subject	 session	 trial	 flanked	 distortion	 freq	 amplitude	 spacing	 im_name	 targ_letter	 targ_pos	 response	 eyemovement	 RT
7	 2	 1	 flanked	 bex	 4	 4.000000	 2.000000	 flanked_bex_freq_4_amplitude_4_rep_9_r_H_2.0.png	 H	 r	 r	 n.a.	 3.333396e-01
7	 2	 2	 flanked	 bex	 4	 3.000000	 2.000000	 flanked_bex_freq_4_amplitude_3_rep_0_t_K_2.0.png	 K	 t	 b	 n.a.	 6.762838e-01
7	 2	 3	 flanked	 bex	 4	 5.000000	 2.000000	 flanked_bex_freq_4_amplitude_5_rep_7_t_N_2.0.png	 N	 t	 t	 n.a.	 2.447621e-01
7	 2	 4	 flanked	 bex	 4	 4.000000	 2.000000	 flanked_bex_freq_4_amplitude_4_rep_7_b_D_2.0.png	 D	 b	 l	 n.a.	 8.141258e-01
7	 2	 5	 flanked	 bex	 4	 2.000000	 2.000000	 flanked_bex_freq_4_amplitude_2_rep_8_r_K_2.0.png	 K	 r	 r	 n.a.	 5.151156e-01
7	 2	 6	 flanked	 bex	 4	 3.000000	 2.000000	 flanked_bex_freq_4_amplitude_3_rep_5_t_N_2.0.png	 N	 t	 t	 n.a.	 3.857280e-01
7	 2	 7	 flanked	 bex	 4	 1.000000	 2.000000	 flanked_bex_freq_4_amplitude_1_rep_6_l_D_2.0.png	 D	 l	 l	 n.a.	 7.191412e-01
7	 2	 8	 flanked	 bex	 4	 1.000000	 2.000000	 flanked_bex_freq_4_amplitude_1_rep_5_r_K_2.0.png	 K	 r	 t	 n.a.	 5.679035e-01
7	 2	 9	 flanked	 bex	 4	 4.000000	 2.000000	 flanked_bex_freq_4_amplitude_4_rep_5_l_H_2.0.png	 H	 l	 l	 n.a.	 3.684032e-01
7	 2	 10	 flanked	 bex	 4	 5.000000	 2.000000	 flanked_bex_freq_4_amplitude_5_rep_3_b_K_2.0.png	 K	 b	 b	 n.a.	 3.879051e-01
7	 2	 11	 flanked	 bex	 4	 3.000000	 2.000000	 flanked_bex_freq_4_amplitude_3_rep_8_t_K_2.0.png	 K	 t	 b	 n.a.	 7.628728e-01
7	 2	 12	 flanked	 bex	 4	 1.000000	 2.000000	 flanked_bex_freq_4_amplitude_1_rep_2_l_N_2.0.png	 N	 l	 r	 n.a.	 1.075067e+00
7	 2	 13	 flanked	 bex	 4	 7.000000	 2.000000	 flanked_bex_freq_4_amplitude_7_rep_1_r_D_2.0.png	 D	 r	 r	 n.a.	 2.683323e-01
7	 2	 14	 flanked	 bex	 4	 2.000000	 2.000000	 flanked_bex_freq_4_amplitude_2_rep_9_t_N_2.0.png	 N	 t	 b	 n.a.	 7.164955e-01
7	 2	 15	 flanked	 bex	 4	 3.000000	 2.000000	 flanked_bex_freq_4_amplitude_3_rep_2_r_K_2.0.png	 K	 r	 r	 n.a.	 2.869184e-01
7	 2	 16	 flanked	 bex	 4	 7.000000	 2.000000	 flanked_bex_freq_4_amplitude_7_rep_7_r_N_2.0.png	 N	 r	 r	 n.a.	 2.690775e-01
7	 2	 17	 flanked	 bex	 4	 4.000000	 2.000000	 flanked_bex_freq_4_amplitude_4_rep_7_b_D_2.0.png	 D	 b	 b	 n.a.	 4.124806e-01
7	 2	 18	 flanked	 bex	 4	 7.000000	 2.000000	 flanked_bex_freq_4_amplitude_7_rep_9_r_D_2.0.png	 D	 r	 r	 n.a.	 2.894152e-01
7	 2	 19	 flanked	 bex	 4	 7.000000	 2.000000	 flanked_bex_freq_4_amplitude_7_rep_2_t_N_2.0.png	 N	 t	 t	 n.a.	 3.112620e-01
7	 2	 20	 flanked	 bex	 4	 6.000000	 2.000000	 flanked_bex_freq_4_amplitude_6_rep_1_t_H_2.0.png	 H	 t	 t	 n.a.	 2.906183e-01
7	 2	 21	 flanked	 bex	 4	 7.000000	 2.000000	 flanked_bex_freq_4_amplitude_7_rep_5_r_H_2.0.png	 H	 r	 r	 n.a.	 2.706788e-01
7	 2	 22	 flanked	 bex	 4	 5.000000	 2.000000	 flanked_bex_freq_4_amplitude_5_rep_2_l_D_2.0.png	 D	 l	 l	 n.a.	 3.037945e-01
7	 2	 23	 flanked	 bex	 4	 1.000000	 2.000000	 flanked_bex_freq_4_amplitude_1_rep_0_b_D_2.0.png	 D	 b	 b	 n.a.	 4.149863e-01
7	 2	 24	 flanked	 bex	 4	 3.000000	 2.000000	 flanked_bex_freq_4_amplitude_3_rep_1_t_N_2.0.png	 N	 t	 l	 n.a.	 9.002847e-01
7	 2	 25	 flanked	 bex	 4	 5.000000	 2.000000	 flanked_bex_freq_4_amplitude_5_rep_2_l_D_2.0.png	 D	 l	 l	 n.a.	 2.918731e-01
7	 2	 26	 flanked	 bex	 4	 2.000000	 2.000000	 flanked_bex_freq_4_amplitude_2_rep_6_t_N_2.0.png	 N	 t	 t	 n.a.	 3.000795e-01
7	 2	 27	 flanked	 bex	 4	 2.000000	 2.000000	 flanked_bex_freq_4_amplitude_2_rep_4_r_D_2.0.png	 D	 r	 r	 n.a.	 3.438579e-01
7	 2	 28	 flanked	 bex	 4	 4.000000	 2.000000	 flanked_bex_freq_4_amplitude_4_rep_9_r_H_2.0.png	 H	 r	 r	 n.a.	 3.440797e-01
7	 2	 29	 flanked	 bex	 4	 7.000000	 2.000000	 flanked_bex_freq_4_amplitude_7_rep_4_b_H_2.0.png	 H	 b	 b	 n.a.	 2.830783e-01
7	 2	 30	 flanked	 bex	 4	 4.000000	 2.000000	 flanked_bex_freq_4_amplitude_4_rep_1_b_H_2.0.png	 H	 b	 b	 n.a.	 2.608963e-01
7	 2	 31	 flanked	 bex	 4	 1.000000	 2.000000	 flanked_bex_freq_4_amplitude_1_rep_9_t_D_2.0.png	 D	 t	 t	 n.a.	 5.376797e-01
7	 2	 32	 flanked	 bex	 4	 2.000000	 2.000000	 flanked_bex_freq_4_amplitude_2_rep_0_r_K_2.0.png	 K	 r	 b	 n.a.	 5.448645e-01
7	 2	 33	 flanked	 bex	 4	 3.000000	 2.000000	 flanked_bex_freq_4_amplitude_3_rep_7_b_H_2.0.png	 H	 b	 b	 n.a.	 4.158588e-01
7	 2	 34	 flanked	 bex	 4	 1.000000	 2.000000	 flanked_bex_freq_4_amplitude_1_rep_3_r_N_2.0.png	 N	 r	 b	 n.a.	 6.953175e-01
7	 2	 35	 flanked	 bex	 4	 1.000000	 2.000000	 flanked_bex_freq_4_amplitude_1_rep_0_b_D_2.0.png	 D	 b	 b	 n.a.	 4.052253e-01
7	 2	 36	 flanked	 bex	 4	 4.000000	 2.000000	 flanked_bex_freq_4_amplitude_4_rep_8_l_N_2.0.png	 N	 l	 l	 n.a.	 4.379624e-01
7	 2	 37	 flanked	 bex	 4	 1.000000	 2.000000	 flanked_bex_freq_4_amplitude_1_rep_6_l_D_2.0.png	 D	 l	 b	 n.a.	 7.438788e-01
7	 2	 38	 flanked	 bex	 4	 1.000000	 2.000000	 flanked_bex_freq_4_amplitude_1_rep_9_t_D_2.0.png	 D	 t	 l	 n.a.	 7.676079e-01
7	 2	 39	 flanked	 bex	 4	 4.000000	 2.000000	 flanked_bex_freq_4_amplitude_4_rep_1_b_H_2.0.png	 H	 b	 b	 n.a.	 4.377077e-01
7	 2	 40	 flanked	 bex	 4	 3.000000	 2.000000	 flanked_bex_freq_4_amplitude_3_rep_5_t_N_2.0.png	 N	 t	 t	 n.a.	 5.922809e-01
7	 2	 41	 flanked	 bex	 4	 4.000000	 2.000000	 flanked_bex_freq_4_amplitude_4_rep_5_l_H_2.0.png	 H	 l	 l	 n.a.	 3.519828e-01
7	 2	 42	 flanked	 bex	 4	 7.000000	 2.000000	 flanked_bex_freq_4_amplitude_7_rep_0_t_D_2.0.png	 D	 t	 t	 n.a.	 2.962015e-01
7	 2	 43	 flanked	 bex	 4	 4.000000	 2.000000	 flanked_bex_freq_4_amplitude_4_rep_4_b_D_2.0.png	 D	 b	 t	 n.a.	 4.256747e-01
7	 2	 44	 flanked	 bex	 4	 4.000000	 2.000000	 flanked_bex_freq_4_amplitude_4_rep_2_r_K_2.0.png	 K	 r	 r	 n.a.	 6.476034e-01
7	 2	 45	 flanked	 bex	 4	 6.000000	 2.000000	 flanked_bex_freq_4_amplitude_6_rep_1_t_H_2.0.png	 H	 t	 t	 n.a.	 3.769820e-01
7	 2	 46	 flanked	 bex	 4	 3.000000	 2.000000	 flanked_bex_freq_4_amplitude_3_rep_4_r_H_2.0.png	 H	 r	 r	 n.a.	 3.170861e-01
7	 2	 47	 flanked	 bex	 4	 5.000000	 2.000000	 flanked_bex_freq_4_amplitude_5_rep_9_r_D_2.0.png	 D	 r	 r	 n.a.	 3.183935e-01
7	 2	 48	 flanked	 bex	 4	 6.000000	 2.000000	 flanked_bex_freq_4_amplitude_6_rep_3_b_N_2.0.png	 N	 b	 b	 n.a.	 2.814686e-01
7	 2	 49	 flanked	 bex	 4	 1.000000	 2.000000	 flanked_bex_freq_4_amplitude_1_rep_1_b_D_2.0.png	 D	 b	 t	 n.a.	 3.835534e-01
7	 2	 50	 flanked	 bex	 4	 5.000000	 2.000000	 flanked_bex_freq_4_amplitude_5_rep_0_b_H_2.0.png	 H	 b	 b	 n.a.	 2.916757e-01
7	 2	 51	 flanked	 bex	 4	 3.000000	 2.000000	 flanked_bex_freq_4_amplitude_3_rep_8_t_K_2.0.png	 K	 t	 t	 n.a.	 3.098956e-01
7	 2	 52	 flanked	 bex	 4	 2.000000	 2.000000	 flanked_bex_freq_4_amplitude_2_rep_2_t_K_2.0.png	 K	 t	 r	 n.a.	 6.935940e-01
7	 2	 53	 flanked	 bex	 4	 1.000000	 2.000000	 flanked_bex_freq_4_amplitude_1_rep_1_b_D_2.0.png	 D	 b	 t	 n.a.	 3.744920e-01
7	 2	 54	 flanked	 bex	 4	 2.000000	 2.000000	 flanked_bex_freq_4_amplitude_2_rep_9_t_N_2.0.png	 N	 t	 b	 n.a.	 4.512349e-01
7	 2	 55	 flanked	 bex	 4	 2.000000	 2.000000	 flanked_bex_freq_4_amplitude_2_rep_4_r_D_2.0.png	 D	 r	 r	 n.a.	 3.399500e-01
7	 2	 56	 flanked	 bex	 4	 5.000000	 2.000000	 flanked_bex_freq_4_amplitude_5_rep_0_b_H_2.0.png	 H	 b	 b	 n.a.	 3.168768e-01
7	 2	 57	 flanked	 bex	 4	 3.000000	 2.000000	 flanked_bex_freq_4_amplitude_3_rep_7_b_H_2.0.png	 H	 b	 b	 n.a.	 3.685573e-01
7	 2	 58	 flanked	 bex	 4	 2.000000	 2.000000	 flanked_bex_freq_4_amplitude_2_rep_0_r_K_2.0.png	 K	 r	 b	 n.a.	 6.540880e-01
7	 2	 59	 flanked	 bex	 4	 6.000000	 2.000000	 flanked_bex_freq_4_amplitude_6_rep_6_r_H_2.0.png	 H	 r	 r	 n.a.	 3.109648e-01
7	 2	 60	 flanked	 bex	 4	 4.000000	 2.000000	 flanked_bex_freq_4_amplitude_4_rep_5_l_H_2.0.png	 H	 l	 l	 n.a.	 3.044936e-01
7	 2	 61	 flanked	 bex	 4	 6.000000	 2.000000	 flanked_bex_freq_4_amplitude_6_rep_7_t_H_2.0.png	 H	 t	 t	 n.a.	 3.247823e-01
7	 2	 62	 flanked	 bex	 4	 2.000000	 2.000000	 flanked_bex_freq_4_amplitude_2_rep_8_r_K_2.0.png	 K	 r	 r	 n.a.	 3.337456e-01
7	 2	 63	 flanked	 bex	 4	 4.000000	 2.000000	 flanked_bex_freq_4_amplitude_4_rep_3_r_K_2.0.png	 K	 r	 r	 n.a.	 3.948062e-01
7	 2	 64	 flanked	 bex	 4	 7.000000	 2.000000	 flanked_bex_freq_4_amplitude_7_rep_1_r_D_2.0.png	 D	 r	 r	 n.a.	 2.864102e-01
7	 2	 65	 flanked	 bex	 4	 4.000000	 2.000000	 flanked_bex_freq_4_amplitude_4_rep_4_b_D_2.0.png	 D	 b	 b	 n.a.	 3.846855e-01
7	 2	 66	 flanked	 bex	 4	 7.000000	 2.000000	 flanked_bex_freq_4_amplitude_7_rep_4_b_H_2.0.png	 H	 b	 b	 n.a.	 3.267606e-01
7	 2	 67	 flanked	 bex	 4	 1.000000	 2.000000	 flanked_bex_freq_4_amplitude_1_rep_6_l_D_2.0.png	 D	 l	 t	 n.a.	 7.893925e-01
7	 2	 68	 flanked	 bex	 4	 1.000000	 2.000000	 flanked_bex_freq_4_amplitude_1_rep_9_t_D_2.0.png	 D	 t	 b	 n.a.	 3.972911e-01
7	 2	 69	 flanked	 bex	 4	 1.000000	 2.000000	 flanked_bex_freq_4_amplitude_1_rep_3_r_N_2.0.png	 N	 r	 t	 n.a.	 3.668711e-01
7	 2	 70	 flanked	 bex	 4	 2.000000	 2.000000	 flanked_bex_freq_4_amplitude_2_rep_8_r_K_2.0.png	 K	 r	 b	 n.a.	 4.890989e-01
7	 2	 71	 flanked	 bex	 4	 7.000000	 2.000000	 flanked_bex_freq_4_amplitude_7_rep_5_r_H_2.0.png	 H	 r	 r	 n.a.	 3.238198e-01
7	 2	 72	 flanked	 bex	 4	 1.000000	 2.000000	 flanked_bex_freq_4_amplitude_1_rep_2_l_N_2.0.png	 N	 l	 b	 n.a.	 6.857912e-01
7	 2	 73	 flanked	 bex	 4	 7.000000	 2.000000	 flanked_bex_freq_4_amplitude_7_rep_0_t_D_2.0.png	 D	 t	 t	 n.a.	 2.419628e-01
7	 2	 74	 flanked	 bex	 4	 6.000000	 2.000000	 flanked_bex_freq_4_amplitude_6_rep_2_r_N_2.0.png	 N	 r	 r	 n.a.	 2.444994e-01
7	 2	 75	 flanked	 bex	 4	 3.000000	 2.000000	 flanked_bex_freq_4_amplitude_3_rep_2_r_K_2.0.png	 K	 r	 r	 n.a.	 3.661483e-01
7	 2	 76	 flanked	 bex	 4	 2.000000	 2.000000	 flanked_bex_freq_4_amplitude_2_rep_5_b_D_2.0.png	 D	 b	 b	 n.a.	 3.601896e-01
7	 2	 77	 flanked	 bex	 4	 3.000000	 2.000000	 flanked_bex_freq_4_amplitude_3_rep_3_t_K_2.0.png	 K	 t	 t	 n.a.	 4.126911e-01
7	 2	 78	 flanked	 bex	 4	 3.000000	 2.000000	 flanked_bex_freq_4_amplitude_3_rep_9_r_H_2.0.png	 H	 r	 r	 n.a.	 2.517493e-01
7	 2	 79	 flanked	 bex	 4	 7.000000	 2.000000	 flanked_bex_freq_4_amplitude_7_rep_3_l_N_2.0.png	 N	 l	 l	 n.a.	 2.514654e-01
7	 2	 80	 flanked	 bex	 4	 5.000000	 2.000000	 flanked_bex_freq_4_amplitude_5_rep_6_r_H_2.0.png	 H	 r	 r	 n.a.	 2.626255e-01
7	 2	 81	 flanked	 bex	 4	 3.000000	 2.000000	 flanked_bex_freq_4_amplitude_3_rep_1_t_N_2.0.png	 N	 t	 b	 n.a.	 6.096280e-01
7	 2	 82	 flanked	 bex	 4	 5.000000	 2.000000	 flanked_bex_freq_4_amplitude_5_rep_1_t_N_2.0.png	 N	 t	 t	 n.a.	 3.198352e-01
7	 2	 83	 flanked	 bex	 4	 6.000000	 2.000000	 flanked_bex_freq_4_amplitude_6_rep_5_t_D_2.0.png	 D	 t	 t	 n.a.	 2.775600e-01
7	 2	 84	 flanked	 bex	 4	 3.000000	 2.000000	 flanked_bex_freq_4_amplitude_3_rep_7_b_H_2.0.png	 H	 b	 b	 n.a.	 5.955260e-01
7	 2	 85	 flanked	 bex	 4	 3.000000	 2.000000	 flanked_bex_freq_4_amplitude_3_rep_3_t_K_2.0.png	 K	 t	 t	 n.a.	 2.874518e-01
7	 2	 86	 flanked	 bex	 4	 5.000000	 2.000000	 flanked_bex_freq_4_amplitude_5_rep_8_b_N_2.0.png	 N	 b	 b	 n.a.	 2.598598e-01
7	 2	 87	 flanked	 bex	 4	 2.000000	 2.000000	 flanked_bex_freq_4_amplitude_2_rep_7_l_N_2.0.png	 N	 l	 l	 n.a.	 3.138328e-01
7	 2	 88	 flanked	 bex	 4	 6.000000	 2.000000	 flanked_bex_freq_4_amplitude_6_rep_9_b_D_2.0.png	 D	 b	 b	 n.a.	 2.271181e-01
7	 2	 89	 flanked	 bex	 4	 5.000000	 2.000000	 flanked_bex_freq_4_amplitude_5_rep_2_l_D_2.0.png	 D	 l	 l	 n.a.	 2.623529e-01
7	 2	 90	 flanked	 bex	 4	 2.000000	 2.000000	 flanked_bex_freq_4_amplitude_2_rep_7_l_N_2.0.png	 N	 l	 b	 n.a.	 5.628246e-01
7	 2	 91	 flanked	 bex	 4	 4.000000	 2.000000	 flanked_bex_freq_4_amplitude_4_rep_6_t_D_2.0.png	 D	 t	 t	 n.a.	 2.689728e-01
7	 2	 92	 flanked	 bex	 4	 6.000000	 2.000000	 flanked_bex_freq_4_amplitude_6_rep_3_b_N_2.0.png	 N	 b	 b	 n.a.	 2.628870e-01
7	 2	 93	 flanked	 bex	 4	 5.000000	 2.000000	 flanked_bex_freq_4_amplitude_5_rep_5_b_N_2.0.png	 N	 b	 b	 n.a.	 2.734878e-01
7	 2	 94	 flanked	 bex	 4	 6.000000	 2.000000	 flanked_bex_freq_4_amplitude_6_rep_6_r_H_2.0.png	 H	 r	 r	 n.a.	 2.595298e-01
7	 2	 95	 flanked	 bex	 4	 4.000000	 2.000000	 flanked_bex_freq_4_amplitude_4_rep_8_l_N_2.0.png	 N	 l	 l	 n.a.	 2.518169e-01
7	 2	 96	 flanked	 bex	 4	 7.000000	 2.000000	 flanked_bex_freq_4_amplitude_7_rep_7_r_N_2.0.png	 N	 r	 r	 n.a.	 2.439048e-01
7	 2	 97	 flanked	 bex	 4	 2.000000	 2.000000	 flanked_bex_freq_4_amplitude_2_rep_6_t_N_2.0.png	 N	 t	 t	 n.a.	 6.743955e-01
7	 2	 98	 flanked	 bex	 4	 3.000000	 2.000000	 flanked_bex_freq_4_amplitude_3_rep_9_r_H_2.0.png	 H	 r	 r	 n.a.	 3.224376e-01
7	 2	 99	 flanked	 bex	 4	 1.000000	 2.000000	 flanked_bex_freq_4_amplitude_1_rep_0_b_D_2.0.png	 D	 b	 b	 n.a.	 4.339854e-01
7	 2	 100	 flanked	 bex	 4	 2.000000	 2.000000	 flanked_bex_freq_4_amplitude_2_rep_1_l_D_2.0.png	 D	 l	 l	 n.a.	 2.854356e-01
7	 2	 101	 flanked	 bex	 4	 7.000000	 2.000000	 flanked_bex_freq_4_amplitude_7_rep_5_r_H_2.0.png	 H	 r	 r	 n.a.	 2.264681e-01
7	 2	 102	 flanked	 bex	 4	 3.000000	 2.000000	 flanked_bex_freq_4_amplitude_3_rep_2_r_K_2.0.png	 K	 r	 r	 n.a.	 5.023989e-01
7	 2	 103	 flanked	 bex	 4	 1.000000	 2.000000	 flanked_bex_freq_4_amplitude_1_rep_8_r_N_2.0.png	 N	 r	 t	 n.a.	 4.352128e-01
7	 2	 104	 flanked	 bex	 4	 2.000000	 2.000000	 flanked_bex_freq_4_amplitude_2_rep_3_l_D_2.0.png	 D	 l	 l	 n.a.	 3.628217e-01
7	 2	 105	 flanked	 bex	 4	 3.000000	 2.000000	 flanked_bex_freq_4_amplitude_3_rep_0_t_K_2.0.png	 K	 t	 t	 n.a.	 4.416390e-01
7	 2	 106	 flanked	 bex	 4	 6.000000	 2.000000	 flanked_bex_freq_4_amplitude_6_rep_1_t_H_2.0.png	 H	 t	 t	 n.a.	 3.292138e-01
7	 2	 107	 flanked	 bex	 4	 1.000000	 2.000000	 flanked_bex_freq_4_amplitude_1_rep_5_r_K_2.0.png	 K	 r	 t	 n.a.	 3.724725e-01
7	 2	 108	 flanked	 bex	 4	 5.000000	 2.000000	 flanked_bex_freq_4_amplitude_5_rep_3_b_K_2.0.png	 K	 b	 b	 n.a.	 2.893125e-01
7	 2	 109	 flanked	 bex	 4	 5.000000	 2.000000	 flanked_bex_freq_4_amplitude_5_rep_6_r_H_2.0.png	 H	 r	 r	 n.a.	 2.487350e-01
7	 2	 110	 flanked	 bex	 4	 6.000000	 2.000000	 flanked_bex_freq_4_amplitude_6_rep_0_l_D_2.0.png	 D	 l	 l	 n.a.	 2.385658e-01
7	 2	 111	 flanked	 bex	 4	 7.000000	 2.000000	 flanked_bex_freq_4_amplitude_7_rep_8_b_H_2.0.png	 H	 b	 b	 n.a.	 2.774521e-01
7	 2	 112	 flanked	 bex	 4	 6.000000	 2.000000	 flanked_bex_freq_4_amplitude_6_rep_8_l_D_2.0.png	 D	 l	 l	 n.a.	 2.397584e-01
7	 2	 113	 flanked	 bex	 4	 7.000000	 2.000000	 flanked_bex_freq_4_amplitude_7_rep_7_r_N_2.0.png	 N	 r	 r	 n.a.	 2.167720e-01
7	 2	 114	 flanked	 bex	 4	 2.000000	 2.000000	 flanked_bex_freq_4_amplitude_2_rep_5_b_D_2.0.png	 D	 b	 b	 n.a.	 4.458352e-01
7	 2	 115	 flanked	 bex	 4	 3.000000	 2.000000	 flanked_bex_freq_4_amplitude_3_rep_3_t_K_2.0.png	 K	 t	 t	 n.a.	 2.809913e-01
7	 2	 116	 flanked	 bex	 4	 2.000000	 2.000000	 flanked_bex_freq_4_amplitude_2_rep_1_l_D_2.0.png	 D	 l	 l	 n.a.	 2.940432e-01
7	 2	 117	 flanked	 bex	 4	 3.000000	 2.000000	 flanked_bex_freq_4_amplitude_3_rep_8_t_K_2.0.png	 K	 t	 b	 n.a.	 4.395964e-01
7	 2	 118	 flanked	 bex	 4	 6.000000	 2.000000	 flanked_bex_freq_4_amplitude_6_rep_4_b_D_2.0.png	 D	 b	 b	 n.a.	 2.535674e-01
7	 2	 119	 flanked	 bex	 4	 2.000000	 2.000000	 flanked_bex_freq_4_amplitude_2_rep_6_t_N_2.0.png	 N	 t	 b	 n.a.	 5.081555e-01
7	 2	 120	 flanked	 bex	 4	 1.000000	 2.000000	 flanked_bex_freq_4_amplitude_1_rep_4_l_N_2.0.png	 N	 l	 t	 n.a.	 5.899621e-01
7	 2	 121	 flanked	 bex	 4	 2.000000	 2.000000	 flanked_bex_freq_4_amplitude_2_rep_2_t_K_2.0.png	 K	 t	 t	 n.a.	 5.256287e-01
7	 2	 122	 flanked	 bex	 4	 2.000000	 2.000000	 flanked_bex_freq_4_amplitude_2_rep_3_l_D_2.0.png	 D	 l	 l	 n.a.	 3.331980e-01
7	 2	 123	 flanked	 bex	 4	 4.000000	 2.000000	 flanked_bex_freq_4_amplitude_4_rep_4_b_D_2.0.png	 D	 b	 b	 n.a.	 8.143640e-01
7	 2	 124	 flanked	 bex	 4	 7.000000	 2.000000	 flanked_bex_freq_4_amplitude_7_rep_3_l_N_2.0.png	 N	 l	 l	 n.a.	 5.101480e-01
7	 2	 125	 flanked	 bex	 4	 4.000000	 2.000000	 flanked_bex_freq_4_amplitude_4_rep_0_t_N_2.0.png	 N	 t	 t	 n.a.	 2.959144e-01
7	 2	 126	 flanked	 bex	 4	 5.000000	 2.000000	 flanked_bex_freq_4_amplitude_5_rep_4_t_D_2.0.png	 D	 t	 t	 n.a.	 4.265283e-01
7	 2	 127	 flanked	 bex	 4	 5.000000	 2.000000	 flanked_bex_freq_4_amplitude_5_rep_5_b_N_2.0.png	 N	 b	 b	 n.a.	 2.930140e-01
7	 2	 128	 flanked	 bex	 4	 1.000000	 2.000000	 flanked_bex_freq_4_amplitude_1_rep_3_r_N_2.0.png	 N	 r	 t	 n.a.	 5.305514e-01
7	 2	 129	 flanked	 bex	 4	 6.000000	 2.000000	 flanked_bex_freq_4_amplitude_6_rep_5_t_D_2.0.png	 D	 t	 t	 n.a.	 2.309185e-01
7	 2	 130	 flanked	 bex	 4	 1.000000	 2.000000	 flanked_bex_freq_4_amplitude_1_rep_1_b_D_2.0.png	 D	 b	 t	 n.a.	 4.159422e-01
7	 2	 131	 flanked	 bex	 4	 2.000000	 2.000000	 flanked_bex_freq_4_amplitude_2_rep_1_l_D_2.0.png	 D	 l	 l	 n.a.	 3.287223e-01
7	 2	 132	 flanked	 bex	 4	 1.000000	 2.000000	 flanked_bex_freq_4_amplitude_1_rep_8_r_N_2.0.png	 N	 r	 t	 n.a.	 7.230565e-01
7	 2	 133	 flanked	 bex	 4	 6.000000	 2.000000	 flanked_bex_freq_4_amplitude_6_rep_3_b_N_2.0.png	 N	 b	 b	 n.a.	 2.541339e-01
7	 2	 134	 flanked	 bex	 4	 3.000000	 2.000000	 flanked_bex_freq_4_amplitude_3_rep_6_t_N_2.0.png	 N	 t	 t	 n.a.	 6.344057e-01
7	 2	 135	 flanked	 bex	 4	 1.000000	 2.000000	 flanked_bex_freq_4_amplitude_1_rep_7_t_D_2.0.png	 D	 t	 b	 n.a.	 7.181296e-01
7	 2	 136	 flanked	 bex	 4	 5.000000	 2.000000	 flanked_bex_freq_4_amplitude_5_rep_1_t_N_2.0.png	 N	 t	 t	 n.a.	 3.049539e-01
7	 2	 137	 flanked	 bex	 4	 6.000000	 2.000000	 flanked_bex_freq_4_amplitude_6_rep_8_l_D_2.0.png	 D	 l	 l	 n.a.	 3.321637e-01
7	 2	 138	 flanked	 bex	 4	 5.000000	 2.000000	 flanked_bex_freq_4_amplitude_5_rep_8_b_N_2.0.png	 N	 b	 b	 n.a.	 2.637008e-01
7	 2	 139	 flanked	 bex	 4	 2.000000	 2.000000	 flanked_bex_freq_4_amplitude_2_rep_9_t_N_2.0.png	 N	 t	 t	 n.a.	 5.741109e-01
7	 2	 140	 flanked	 bex	 4	 7.000000	 2.000000	 flanked_bex_freq_4_amplitude_7_rep_2_t_N_2.0.png	 N	 t	 t	 n.a.	 3.380051e-01
7	 2	 141	 flanked	 bex	 4	 7.000000	 2.000000	 flanked_bex_freq_4_amplitude_7_rep_2_t_N_2.0.png	 N	 t	 t	 n.a.	 2.824073e-01
7	 2	 142	 flanked	 bex	 4	 5.000000	 2.000000	 flanked_bex_freq_4_amplitude_5_rep_0_b_H_2.0.png	 H	 b	 b	 n.a.	 2.621286e-01
7	 2	 143	 flanked	 bex	 4	 5.000000	 2.000000	 flanked_bex_freq_4_amplitude_5_rep_4_t_D_2.0.png	 D	 t	 t	 n.a.	 3.687892e-01
7	 2	 144	 flanked	 bex	 4	 3.000000	 2.000000	 flanked_bex_freq_4_amplitude_3_rep_5_t_N_2.0.png	 N	 t	 t	 n.a.	 3.186649e-01
7	 2	 145	 flanked	 bex	 4	 4.000000	 2.000000	 flanked_bex_freq_4_amplitude_4_rep_0_t_N_2.0.png	 N	 t	 t	 n.a.	 2.612604e-01
7	 2	 146	 flanked	 bex	 4	 5.000000	 2.000000	 flanked_bex_freq_4_amplitude_5_rep_6_r_H_2.0.png	 H	 r	 r	 n.a.	 2.453073e-01
7	 2	 147	 flanked	 bex	 4	 5.000000	 2.000000	 flanked_bex_freq_4_amplitude_5_rep_9_r_D_2.0.png	 D	 r	 r	 n.a.	 2.776960e-01
7	 2	 148	 flanked	 bex	 4	 6.000000	 2.000000	 flanked_bex_freq_4_amplitude_6_rep_6_r_H_2.0.png	 H	 r	 r	 n.a.	 3.106367e-01
7	 2	 149	 flanked	 bex	 4	 5.000000	 2.000000	 flanked_bex_freq_4_amplitude_5_rep_8_b_N_2.0.png	 N	 b	 b	 n.a.	 2.705461e-01
7	 2	 150	 flanked	 bex	 4	 1.000000	 2.000000	 flanked_bex_freq_4_amplitude_1_rep_7_t_D_2.0.png	 D	 t	 l	 n.a.	 7.902019e-01
7	 2	 151	 flanked	 bex	 4	 5.000000	 2.000000	 flanked_bex_freq_4_amplitude_5_rep_7_t_N_2.0.png	 N	 t	 t	 n.a.	 2.918941e-01
7	 2	 152	 flanked	 bex	 4	 2.000000	 2.000000	 flanked_bex_freq_4_amplitude_2_rep_3_l_D_2.0.png	 D	 l	 l	 n.a.	 3.622757e-01
7	 2	 153	 flanked	 bex	 4	 7.000000	 2.000000	 flanked_bex_freq_4_amplitude_7_rep_4_b_H_2.0.png	 H	 b	 b	 n.a.	 2.542985e-01
7	 2	 154	 flanked	 bex	 4	 3.000000	 2.000000	 flanked_bex_freq_4_amplitude_3_rep_0_t_K_2.0.png	 K	 t	 t	 n.a.	 2.810902e-01
7	 2	 155	 flanked	 bex	 4	 4.000000	 2.000000	 flanked_bex_freq_4_amplitude_4_rep_6_t_D_2.0.png	 D	 t	 t	 n.a.	 2.565280e-01
7	 2	 156	 flanked	 bex	 4	 7.000000	 2.000000	 flanked_bex_freq_4_amplitude_7_rep_0_t_D_2.0.png	 D	 t	 t	 n.a.	 2.865988e-01
7	 2	 157	 flanked	 bex	 4	 7.000000	 2.000000	 flanked_bex_freq_4_amplitude_7_rep_9_r_D_2.0.png	 D	 r	 r	 n.a.	 2.734948e-01
7	 2	 158	 flanked	 bex	 4	 4.000000	 2.000000	 flanked_bex_freq_4_amplitude_4_rep_0_t_N_2.0.png	 N	 t	 t	 n.a.	 2.442899e-01
7	 2	 159	 flanked	 bex	 4	 1.000000	 2.000000	 flanked_bex_freq_4_amplitude_1_rep_4_l_N_2.0.png	 N	 l	 b	 n.a.	 6.718195e-01
7	 2	 160	 flanked	 bex	 4	 6.000000	 2.000000	 flanked_bex_freq_4_amplitude_6_rep_9_b_D_2.0.png	 D	 b	 b	 n.a.	 2.838044e-01
7	 2	 161	 flanked	 bex	 4	 6.000000	 2.000000	 flanked_bex_freq_4_amplitude_6_rep_2_r_N_2.0.png	 N	 r	 r	 n.a.	 2.353907e-01
7	 2	 162	 flanked	 bex	 4	 6.000000	 2.000000	 flanked_bex_freq_4_amplitude_6_rep_5_t_D_2.0.png	 D	 t	 t	 n.a.	 2.262007e-01
7	 2	 163	 flanked	 bex	 4	 6.000000	 2.000000	 flanked_bex_freq_4_amplitude_6_rep_8_l_D_2.0.png	 D	 l	 l	 n.a.	 2.305835e-01
7	 2	 164	 flanked	 bex	 4	 6.000000	 2.000000	 flanked_bex_freq_4_amplitude_6_rep_7_t_H_2.0.png	 H	 t	 t	 n.a.	 2.463266e-01
7	 2	 165	 flanked	 bex	 4	 3.000000	 2.000000	 flanked_bex_freq_4_amplitude_3_rep_1_t_N_2.0.png	 N	 t	 t	 n.a.	 3.385549e-01
7	 2	 166	 flanked	 bex	 4	 4.000000	 2.000000	 flanked_bex_freq_4_amplitude_4_rep_1_b_H_2.0.png	 H	 b	 b	 n.a.	 2.231602e-01
7	 2	 167	 flanked	 bex	 4	 7.000000	 2.000000	 flanked_bex_freq_4_amplitude_7_rep_9_r_D_2.0.png	 D	 r	 r	 n.a.	 2.125128e-01
7	 2	 168	 flanked	 bex	 4	 3.000000	 2.000000	 flanked_bex_freq_4_amplitude_3_rep_6_t_N_2.0.png	 N	 t	 t	 n.a.	 3.496332e-01
7	 2	 169	 flanked	 bex	 4	 6.000000	 2.000000	 flanked_bex_freq_4_amplitude_6_rep_4_b_D_2.0.png	 D	 b	 b	 n.a.	 2.674995e-01
7	 2	 170	 flanked	 bex	 4	 7.000000	 2.000000	 flanked_bex_freq_4_amplitude_7_rep_6_l_D_2.0.png	 D	 l	 l	 n.a.	 2.127992e-01
7	 2	 171	 flanked	 bex	 4	 5.000000	 2.000000	 flanked_bex_freq_4_amplitude_5_rep_4_t_D_2.0.png	 D	 t	 t	 n.a.	 3.304870e-01
7	 2	 172	 flanked	 bex	 4	 7.000000	 2.000000	 flanked_bex_freq_4_amplitude_7_rep_1_r_D_2.0.png	 D	 r	 r	 n.a.	 1.971272e-01
7	 2	 173	 flanked	 bex	 4	 5.000000	 2.000000	 flanked_bex_freq_4_amplitude_5_rep_3_b_K_2.0.png	 K	 b	 b	 n.a.	 3.271872e-01
7	 2	 174	 flanked	 bex	 4	 6.000000	 2.000000	 flanked_bex_freq_4_amplitude_6_rep_2_r_N_2.0.png	 N	 r	 r	 n.a.	 2.250709e-01
7	 2	 175	 flanked	 bex	 4	 3.000000	 2.000000	 flanked_bex_freq_4_amplitude_3_rep_6_t_N_2.0.png	 N	 t	 t	 n.a.	 5.602304e-01
7	 2	 176	 flanked	 bex	 4	 6.000000	 2.000000	 flanked_bex_freq_4_amplitude_6_rep_4_b_D_2.0.png	 D	 b	 b	 n.a.	 2.484429e-01
7	 2	 177	 flanked	 bex	 4	 2.000000	 2.000000	 flanked_bex_freq_4_amplitude_2_rep_7_l_N_2.0.png	 N	 l	 l	 n.a.	 4.437863e-01
7	 2	 178	 flanked	 bex	 4	 7.000000	 2.000000	 flanked_bex_freq_4_amplitude_7_rep_8_b_H_2.0.png	 H	 b	 b	 n.a.	 2.541924e-01
7	 2	 179	 flanked	 bex	 4	 1.000000	 2.000000	 flanked_bex_freq_4_amplitude_1_rep_4_l_N_2.0.png	 N	 l	 b	 n.a.	 4.782968e-01
7	 2	 180	 flanked	 bex	 4	 1.000000	 2.000000	 flanked_bex_freq_4_amplitude_1_rep_5_r_K_2.0.png	 K	 r	 t	 n.a.	 4.363187e-01
7	 2	 181	 flanked	 bex	 4	 7.000000	 2.000000	 flanked_bex_freq_4_amplitude_7_rep_6_l_D_2.0.png	 D	 l	 l	 n.a.	 2.537057e-01
7	 2	 182	 flanked	 bex	 4	 5.000000	 2.000000	 flanked_bex_freq_4_amplitude_5_rep_1_t_N_2.0.png	 N	 t	 t	 n.a.	 2.855707e-01
7	 2	 183	 flanked	 bex	 4	 3.000000	 2.000000	 flanked_bex_freq_4_amplitude_3_rep_4_r_H_2.0.png	 H	 r	 r	 n.a.	 2.865029e-01
7	 2	 184	 flanked	 bex	 4	 6.000000	 2.000000	 flanked_bex_freq_4_amplitude_6_rep_0_l_D_2.0.png	 D	 l	 l	 n.a.	 2.037261e-01
7	 2	 185	 flanked	 bex	 4	 3.000000	 2.000000	 flanked_bex_freq_4_amplitude_3_rep_4_r_H_2.0.png	 H	 r	 r	 n.a.	 2.494717e-01
7	 2	 186	 flanked	 bex	 4	 4.000000	 2.000000	 flanked_bex_freq_4_amplitude_4_rep_3_r_K_2.0.png	 K	 r	 r	 n.a.	 3.676280e-01
7	 2	 187	 flanked	 bex	 4	 2.000000	 2.000000	 flanked_bex_freq_4_amplitude_2_rep_2_t_K_2.0.png	 K	 t	 b	 n.a.	 6.871054e-01
7	 2	 188	 flanked	 bex	 4	 2.000000	 2.000000	 flanked_bex_freq_4_amplitude_2_rep_5_b_D_2.0.png	 D	 b	 b	 n.a.	 4.660679e-01
7	 2	 189	 flanked	 bex	 4	 4.000000	 2.000000	 flanked_bex_freq_4_amplitude_4_rep_7_b_D_2.0.png	 D	 b	 b	 n.a.	 2.447642e-01
7	 2	 190	 flanked	 bex	 4	 1.000000	 2.000000	 flanked_bex_freq_4_amplitude_1_rep_8_r_N_2.0.png	 N	 r	 b	 n.a.	 6.892086e-01
7	 2	 191	 flanked	 bex	 4	 4.000000	 2.000000	 flanked_bex_freq_4_amplitude_4_rep_2_r_K_2.0.png	 K	 r	 r	 n.a.	 2.900857e-01
7	 2	 192	 flanked	 bex	 4	 7.000000	 2.000000	 flanked_bex_freq_4_amplitude_7_rep_6_l_D_2.0.png	 D	 l	 l	 n.a.	 2.221787e-01
7	 2	 193	 flanked	 bex	 4	 2.000000	 2.000000	 flanked_bex_freq_4_amplitude_2_rep_4_r_D_2.0.png	 D	 r	 r	 n.a.	 3.110403e-01
7	 2	 194	 flanked	 bex	 4	 5.000000	 2.000000	 flanked_bex_freq_4_amplitude_5_rep_7_t_N_2.0.png	 N	 t	 t	 n.a.	 2.739760e-01
7	 2	 195	 flanked	 bex	 4	 5.000000	 2.000000	 flanked_bex_freq_4_amplitude_5_rep_5_b_N_2.0.png	 N	 b	 b	 n.a.	 2.692481e-01
7	 2	 196	 flanked	 bex	 4	 5.000000	 2.000000	 flanked_bex_freq_4_amplitude_5_rep_9_r_D_2.0.png	 D	 r	 r	 n.a.	 2.712386e-01
7	 2	 197	 flanked	 bex	 4	 6.000000	 2.000000	 flanked_bex_freq_4_amplitude_6_rep_0_l_D_2.0.png	 D	 l	 l	 n.a.	 2.624648e-01
7	 2	 198	 flanked	 bex	 4	 4.000000	 2.000000	 flanked_bex_freq_4_amplitude_4_rep_8_l_N_2.0.png	 N	 l	 l	 n.a.	 3.034198e-01
7	 2	 199	 flanked	 bex	 4	 4.000000	 2.000000	 flanked_bex_freq_4_amplitude_4_rep_9_r_H_2.0.png	 H	 r	 r	 n.a.	 2.983376e-01
7	 2	 200	 flanked	 bex	 4	 2.000000	 2.000000	 flanked_bex_freq_4_amplitude_2_rep_0_r_K_2.0.png	 K	 r	 r	 n.a.	 4.939280e-01
7	 2	 201	 flanked	 bex	 4	 3.000000	 2.000000	 flanked_bex_freq_4_amplitude_3_rep_9_r_H_2.0.png	 H	 r	 r	 n.a.	 3.231580e-01
7	 2	 202	 flanked	 bex	 4	 4.000000	 2.000000	 flanked_bex_freq_4_amplitude_4_rep_6_t_D_2.0.png	 D	 t	 t	 n.a.	 3.095342e-01
7	 2	 203	 flanked	 bex	 4	 7.000000	 2.000000	 flanked_bex_freq_4_amplitude_7_rep_8_b_H_2.0.png	 H	 b	 b	 n.a.	 2.565629e-01
7	 2	 204	 flanked	 bex	 4	 4.000000	 2.000000	 flanked_bex_freq_4_amplitude_4_rep_3_r_K_2.0.png	 K	 r	 r	 n.a.	 2.295513e-01
7	 2	 205	 flanked	 bex	 4	 6.000000	 2.000000	 flanked_bex_freq_4_amplitude_6_rep_7_t_H_2.0.png	 H	 t	 t	 n.a.	 2.762566e-01
7	 2	 206	 flanked	 bex	 4	 4.000000	 2.000000	 flanked_bex_freq_4_amplitude_4_rep_2_r_K_2.0.png	 K	 r	 r	 n.a.	 2.872070e-01
7	 2	 207	 flanked	 bex	 4	 6.000000	 2.000000	 flanked_bex_freq_4_amplitude_6_rep_9_b_D_2.0.png	 D	 b	 b	 n.a.	 2.271235e-01
7	 2	 208	 flanked	 bex	 4	 1.000000	 2.000000	 flanked_bex_freq_4_amplitude_1_rep_2_l_N_2.0.png	 N	 l	 t	 n.a.	 3.578923e-01
7	 2	 209	 flanked	 bex	 4	 1.000000	 2.000000	 flanked_bex_freq_4_amplitude_1_rep_7_t_D_2.0.png	 D	 t	 b	 n.a.	 6.106650e-01
7	 2	 210	 flanked	 bex	 4	 7.000000	 2.000000	 flanked_bex_freq_4_amplitude_7_rep_3_l_N_2.0.png	 N	 l	 l	 n.a.	 3.005611e-01
