subject	 session	 trial	 flanked	 distortion	 freq	 amplitude	 spacing	 im_name	 targ_letter	 targ_pos	 response	 eyemovement	 RT
7	 1	 1	 flanked	 rf	 4	 0.500000	 2.000000	 flanked_rf_freq_4_amplitude_0.5_rep_5_l_N_2.0.png	 N	 l	 l	 n.a.	 3.646692e-01
7	 1	 2	 flanked	 rf	 4	 0.350000	 2.000000	 flanked_rf_freq_4_amplitude_0.35_rep_6_b_N_2.0.png	 N	 b	 b	 n.a.	 5.579680e-01
7	 1	 3	 flanked	 rf	 4	 0.125000	 2.000000	 flanked_rf_freq_4_amplitude_0.125_rep_5_r_D_2.0.png	 D	 r	 t	 n.a.	 4.810508e-01
7	 1	 4	 flanked	 rf	 4	 0.050000	 2.000000	 flanked_rf_freq_4_amplitude_0.05_rep_3_r_K_2.0.png	 K	 r	 r	 n.a.	 3.179624e-01
7	 1	 5	 flanked	 rf	 4	 0.500000	 2.000000	 flanked_rf_freq_4_amplitude_0.5_rep_3_r_N_2.0.png	 N	 r	 r	 n.a.	 3.619979e-01
7	 1	 6	 flanked	 rf	 4	 0.350000	 2.000000	 flanked_rf_freq_4_amplitude_0.35_rep_4_r_H_2.0.png	 H	 r	 r	 n.a.	 3.684045e-01
7	 1	 7	 flanked	 rf	 4	 0.425000	 2.000000	 flanked_rf_freq_4_amplitude_0.425_rep_1_l_D_2.0.png	 D	 l	 l	 n.a.	 2.291637e-01
7	 1	 8	 flanked	 rf	 4	 0.275000	 2.000000	 flanked_rf_freq_4_amplitude_0.275_rep_2_r_H_2.0.png	 H	 r	 r	 n.a.	 2.770894e-01
7	 1	 9	 flanked	 rf	 4	 0.275000	 2.000000	 flanked_rf_freq_4_amplitude_0.275_rep_1_l_N_2.0.png	 N	 l	 l	 n.a.	 3.929119e-01
7	 1	 10	 flanked	 rf	 4	 0.500000	 2.000000	 flanked_rf_freq_4_amplitude_0.5_rep_1_r_D_2.0.png	 D	 r	 r	 n.a.	 3.015255e-01
7	 1	 11	 flanked	 rf	 4	 0.500000	 2.000000	 flanked_rf_freq_4_amplitude_0.5_rep_9_b_H_2.0.png	 H	 b	 b	 n.a.	 3.242385e-01
7	 1	 12	 flanked	 rf	 4	 0.425000	 2.000000	 flanked_rf_freq_4_amplitude_0.425_rep_4_t_D_2.0.png	 D	 t	 t	 n.a.	 3.704783e-01
7	 1	 13	 flanked	 rf	 4	 0.200000	 2.000000	 flanked_rf_freq_4_amplitude_0.2_rep_8_b_K_2.0.png	 K	 b	 b	 n.a.	 6.850319e-01
7	 1	 14	 flanked	 rf	 4	 0.125000	 2.000000	 flanked_rf_freq_4_amplitude_0.125_rep_7_b_D_2.0.png	 D	 b	 l	 n.a.	 4.822994e-01
7	 1	 15	 flanked	 rf	 4	 0.350000	 2.000000	 flanked_rf_freq_4_amplitude_0.35_rep_5_t_D_2.0.png	 D	 t	 t	 n.a.	 3.323723e-01
7	 1	 16	 flanked	 rf	 4	 0.350000	 2.000000	 flanked_rf_freq_4_amplitude_0.35_rep_8_l_D_2.0.png	 D	 l	 l	 n.a.	 3.165955e-01
7	 1	 17	 flanked	 rf	 4	 0.500000	 2.000000	 flanked_rf_freq_4_amplitude_0.5_rep_3_r_N_2.0.png	 N	 r	 r	 n.a.	 3.518853e-01
7	 1	 18	 flanked	 rf	 4	 0.050000	 2.000000	 flanked_rf_freq_4_amplitude_0.05_rep_0_l_D_2.0.png	 D	 l	 b	 n.a.	 6.893575e-01
7	 1	 19	 flanked	 rf	 4	 0.125000	 2.000000	 flanked_rf_freq_4_amplitude_0.125_rep_8_t_H_2.0.png	 H	 t	 t	 n.a.	 7.854996e-01
7	 1	 20	 flanked	 rf	 4	 0.050000	 2.000000	 flanked_rf_freq_4_amplitude_0.05_rep_7_r_N_2.0.png	 N	 r	 r	 n.a.	 6.218921e-01
7	 1	 21	 flanked	 rf	 4	 0.200000	 2.000000	 flanked_rf_freq_4_amplitude_0.2_rep_1_r_H_2.0.png	 H	 r	 r	 n.a.	 5.247342e-01
7	 1	 22	 flanked	 rf	 4	 0.500000	 2.000000	 flanked_rf_freq_4_amplitude_0.5_rep_8_t_H_2.0.png	 H	 t	 t	 n.a.	 6.628376e-01
7	 1	 23	 flanked	 rf	 4	 0.200000	 2.000000	 flanked_rf_freq_4_amplitude_0.2_rep_6_b_H_2.0.png	 H	 b	 b	 n.a.	 5.452606e-01
7	 1	 24	 flanked	 rf	 4	 0.350000	 2.000000	 flanked_rf_freq_4_amplitude_0.35_rep_7_b_N_2.0.png	 N	 b	 b	 n.a.	 5.487280e-01
7	 1	 25	 flanked	 rf	 4	 0.050000	 2.000000	 flanked_rf_freq_4_amplitude_0.05_rep_3_r_K_2.0.png	 K	 r	 b	 n.a.	 7.000627e-01
7	 1	 26	 flanked	 rf	 4	 0.500000	 2.000000	 flanked_rf_freq_4_amplitude_0.5_rep_8_t_H_2.0.png	 H	 t	 t	 n.a.	 5.138740e-01
7	 1	 27	 flanked	 rf	 4	 0.350000	 2.000000	 flanked_rf_freq_4_amplitude_0.35_rep_2_r_D_2.0.png	 D	 r	 r	 n.a.	 4.113109e-01
7	 1	 28	 flanked	 rf	 4	 0.350000	 2.000000	 flanked_rf_freq_4_amplitude_0.35_rep_0_r_N_2.0.png	 N	 r	 r	 n.a.	 4.505001e-01
7	 1	 29	 flanked	 rf	 4	 0.500000	 2.000000	 flanked_rf_freq_4_amplitude_0.5_rep_5_l_N_2.0.png	 N	 l	 l	 n.a.	 3.761924e-01
7	 1	 30	 flanked	 rf	 4	 0.200000	 2.000000	 flanked_rf_freq_4_amplitude_0.2_rep_0_t_K_2.0.png	 K	 t	 t	 n.a.	 3.496227e-01
7	 1	 31	 flanked	 rf	 4	 0.425000	 2.000000	 flanked_rf_freq_4_amplitude_0.425_rep_7_b_N_2.0.png	 N	 b	 b	 n.a.	 3.197630e-01
7	 1	 32	 flanked	 rf	 4	 0.275000	 2.000000	 flanked_rf_freq_4_amplitude_0.275_rep_5_r_K_2.0.png	 K	 r	 r	 n.a.	 3.641984e-01
7	 1	 33	 flanked	 rf	 4	 0.275000	 2.000000	 flanked_rf_freq_4_amplitude_0.275_rep_6_b_K_2.0.png	 K	 b	 b	 n.a.	 3.548139e-01
7	 1	 34	 flanked	 rf	 4	 0.425000	 2.000000	 flanked_rf_freq_4_amplitude_0.425_rep_3_b_H_2.0.png	 H	 b	 b	 n.a.	 4.009830e-01
7	 1	 35	 flanked	 rf	 4	 0.200000	 2.000000	 flanked_rf_freq_4_amplitude_0.2_rep_9_b_H_2.0.png	 H	 b	 b	 n.a.	 3.079256e-01
7	 1	 36	 flanked	 rf	 4	 0.200000	 2.000000	 flanked_rf_freq_4_amplitude_0.2_rep_6_b_H_2.0.png	 H	 b	 b	 n.a.	 2.894005e-01
7	 1	 37	 flanked	 rf	 4	 0.500000	 2.000000	 flanked_rf_freq_4_amplitude_0.5_rep_4_r_H_2.0.png	 H	 r	 r	 n.a.	 3.572646e-01
7	 1	 38	 flanked	 rf	 4	 0.275000	 2.000000	 flanked_rf_freq_4_amplitude_0.275_rep_2_r_H_2.0.png	 H	 r	 r	 n.a.	 3.054643e-01
7	 1	 39	 flanked	 rf	 4	 0.275000	 2.000000	 flanked_rf_freq_4_amplitude_0.275_rep_5_r_K_2.0.png	 K	 r	 r	 n.a.	 3.444552e-01
7	 1	 40	 flanked	 rf	 4	 0.425000	 2.000000	 flanked_rf_freq_4_amplitude_0.425_rep_7_b_N_2.0.png	 N	 b	 t	 n.a.	 5.581801e-01
7	 1	 41	 flanked	 rf	 4	 0.425000	 2.000000	 flanked_rf_freq_4_amplitude_0.425_rep_1_l_D_2.0.png	 D	 l	 l	 n.a.	 2.326748e-01
7	 1	 42	 flanked	 rf	 4	 0.500000	 2.000000	 flanked_rf_freq_4_amplitude_0.5_rep_1_r_D_2.0.png	 D	 r	 r	 n.a.	 3.076947e-01
7	 1	 43	 flanked	 rf	 4	 0.125000	 2.000000	 flanked_rf_freq_4_amplitude_0.125_rep_6_t_D_2.0.png	 D	 t	 l	 n.a.	 4.372756e-01
7	 1	 44	 flanked	 rf	 4	 0.500000	 2.000000	 flanked_rf_freq_4_amplitude_0.5_rep_0_t_D_2.0.png	 D	 t	 t	 n.a.	 3.047396e-01
7	 1	 45	 flanked	 rf	 4	 0.425000	 2.000000	 flanked_rf_freq_4_amplitude_0.425_rep_8_r_K_2.0.png	 K	 r	 r	 n.a.	 3.148686e-01
7	 1	 46	 flanked	 rf	 4	 0.425000	 2.000000	 flanked_rf_freq_4_amplitude_0.425_rep_0_l_N_2.0.png	 N	 l	 l	 n.a.	 2.385880e-01
7	 1	 47	 flanked	 rf	 4	 0.125000	 2.000000	 flanked_rf_freq_4_amplitude_0.125_rep_1_r_D_2.0.png	 D	 r	 r	 n.a.	 2.941131e-01
7	 1	 48	 flanked	 rf	 4	 0.050000	 2.000000	 flanked_rf_freq_4_amplitude_0.05_rep_9_r_H_2.0.png	 H	 r	 r	 n.a.	 4.073741e-01
7	 1	 49	 flanked	 rf	 4	 0.200000	 2.000000	 flanked_rf_freq_4_amplitude_0.2_rep_0_t_K_2.0.png	 K	 t	 t	 n.a.	 3.035876e-01
7	 1	 50	 flanked	 rf	 4	 0.200000	 2.000000	 flanked_rf_freq_4_amplitude_0.2_rep_7_b_K_2.0.png	 K	 b	 b	 n.a.	 2.953787e-01
7	 1	 51	 flanked	 rf	 4	 0.500000	 2.000000	 flanked_rf_freq_4_amplitude_0.5_rep_6_t_D_2.0.png	 D	 t	 t	 n.a.	 3.304317e-01
7	 1	 52	 flanked	 rf	 4	 0.425000	 2.000000	 flanked_rf_freq_4_amplitude_0.425_rep_4_t_D_2.0.png	 D	 t	 t	 n.a.	 3.679550e-01
7	 1	 53	 flanked	 rf	 4	 0.275000	 2.000000	 flanked_rf_freq_4_amplitude_0.275_rep_8_r_N_2.0.png	 N	 r	 r	 n.a.	 3.310707e-01
7	 1	 54	 flanked	 rf	 4	 0.200000	 2.000000	 flanked_rf_freq_4_amplitude_0.2_rep_7_b_K_2.0.png	 K	 b	 b	 n.a.	 3.954515e-01
7	 1	 55	 flanked	 rf	 4	 0.350000	 2.000000	 flanked_rf_freq_4_amplitude_0.35_rep_5_t_D_2.0.png	 D	 t	 t	 n.a.	 3.072909e-01
7	 1	 56	 flanked	 rf	 4	 0.350000	 2.000000	 flanked_rf_freq_4_amplitude_0.35_rep_0_r_N_2.0.png	 N	 r	 r	 n.a.	 3.349306e-01
7	 1	 57	 flanked	 rf	 4	 0.125000	 2.000000	 flanked_rf_freq_4_amplitude_0.125_rep_4_t_N_2.0.png	 N	 t	 t	 n.a.	 4.866119e-01
7	 1	 58	 flanked	 rf	 4	 0.500000	 2.000000	 flanked_rf_freq_4_amplitude_0.5_rep_6_t_D_2.0.png	 D	 t	 t	 n.a.	 3.791846e-01
7	 1	 59	 flanked	 rf	 4	 0.425000	 2.000000	 flanked_rf_freq_4_amplitude_0.425_rep_3_b_H_2.0.png	 H	 b	 b	 n.a.	 3.491943e-01
7	 1	 60	 flanked	 rf	 4	 0.125000	 2.000000	 flanked_rf_freq_4_amplitude_0.125_rep_9_l_K_2.0.png	 K	 l	 b	 n.a.	 4.880349e-01
7	 1	 61	 flanked	 rf	 4	 0.125000	 2.000000	 flanked_rf_freq_4_amplitude_0.125_rep_3_l_H_2.0.png	 H	 l	 l	 n.a.	 4.268751e-01
7	 1	 62	 flanked	 rf	 4	 0.275000	 2.000000	 flanked_rf_freq_4_amplitude_0.275_rep_6_b_K_2.0.png	 K	 b	 b	 n.a.	 4.907206e-01
7	 1	 63	 flanked	 rf	 4	 0.125000	 2.000000	 flanked_rf_freq_4_amplitude_0.125_rep_2_l_N_2.0.png	 N	 l	 t	 n.a.	 5.549831e-01
7	 1	 64	 flanked	 rf	 4	 0.125000	 2.000000	 flanked_rf_freq_4_amplitude_0.125_rep_8_t_H_2.0.png	 H	 t	 l	 n.a.	 7.595340e-01
7	 1	 65	 flanked	 rf	 4	 0.500000	 2.000000	 flanked_rf_freq_4_amplitude_0.5_rep_1_r_D_2.0.png	 D	 r	 r	 n.a.	 3.635110e-01
7	 1	 66	 flanked	 rf	 4	 0.050000	 2.000000	 flanked_rf_freq_4_amplitude_0.05_rep_7_r_N_2.0.png	 N	 r	 t	 n.a.	 4.895795e-01
7	 1	 67	 flanked	 rf	 4	 0.350000	 2.000000	 flanked_rf_freq_4_amplitude_0.35_rep_4_r_H_2.0.png	 H	 r	 r	 n.a.	 2.628294e-01
7	 1	 68	 flanked	 rf	 4	 0.425000	 2.000000	 flanked_rf_freq_4_amplitude_0.425_rep_9_r_H_2.0.png	 H	 r	 r	 n.a.	 3.111487e-01
7	 1	 69	 flanked	 rf	 4	 0.125000	 2.000000	 flanked_rf_freq_4_amplitude_0.125_rep_7_b_D_2.0.png	 D	 b	 b	 n.a.	 7.830745e-01
7	 1	 70	 flanked	 rf	 4	 0.500000	 2.000000	 flanked_rf_freq_4_amplitude_0.5_rep_0_t_D_2.0.png	 D	 t	 t	 n.a.	 3.992302e-01
7	 1	 71	 flanked	 rf	 4	 0.200000	 2.000000	 flanked_rf_freq_4_amplitude_0.2_rep_0_t_K_2.0.png	 K	 t	 t	 n.a.	 4.388186e-01
7	 1	 72	 flanked	 rf	 4	 0.275000	 2.000000	 flanked_rf_freq_4_amplitude_0.275_rep_2_r_H_2.0.png	 H	 r	 r	 n.a.	 2.982800e-01
7	 1	 73	 flanked	 rf	 4	 0.275000	 2.000000	 flanked_rf_freq_4_amplitude_0.275_rep_5_r_K_2.0.png	 K	 r	 r	 n.a.	 3.070191e-01
7	 1	 74	 flanked	 rf	 4	 0.200000	 2.000000	 flanked_rf_freq_4_amplitude_0.2_rep_9_b_H_2.0.png	 H	 b	 b	 n.a.	 4.241448e-01
7	 1	 75	 flanked	 rf	 4	 0.350000	 2.000000	 flanked_rf_freq_4_amplitude_0.35_rep_4_r_H_2.0.png	 H	 r	 r	 n.a.	 3.121040e-01
7	 1	 76	 flanked	 rf	 4	 0.200000	 2.000000	 flanked_rf_freq_4_amplitude_0.2_rep_1_r_H_2.0.png	 H	 r	 r	 n.a.	 2.924121e-01
7	 1	 77	 flanked	 rf	 4	 0.200000	 2.000000	 flanked_rf_freq_4_amplitude_0.2_rep_8_b_K_2.0.png	 K	 b	 b	 n.a.	 4.211099e-01
7	 1	 78	 flanked	 rf	 4	 0.125000	 2.000000	 flanked_rf_freq_4_amplitude_0.125_rep_6_t_D_2.0.png	 D	 t	 r	 n.a.	 3.745622e-01
7	 1	 79	 flanked	 rf	 4	 0.050000	 2.000000	 flanked_rf_freq_4_amplitude_0.05_rep_8_l_N_2.0.png	 N	 l	 b	 n.a.	 8.960960e-01
7	 1	 80	 flanked	 rf	 4	 0.350000	 2.000000	 flanked_rf_freq_4_amplitude_0.35_rep_8_l_D_2.0.png	 D	 l	 l	 n.a.	 3.414967e-01
7	 1	 81	 flanked	 rf	 4	 0.350000	 2.000000	 flanked_rf_freq_4_amplitude_0.35_rep_1_b_N_2.0.png	 N	 b	 b	 n.a.	 4.077129e-01
7	 1	 82	 flanked	 rf	 4	 0.350000	 2.000000	 flanked_rf_freq_4_amplitude_0.35_rep_9_r_H_2.0.png	 H	 r	 r	 n.a.	 2.614358e-01
7	 1	 83	 flanked	 rf	 4	 0.125000	 2.000000	 flanked_rf_freq_4_amplitude_0.125_rep_6_t_D_2.0.png	 D	 t	 l	 n.a.	 5.043303e-01
7	 1	 84	 flanked	 rf	 4	 0.425000	 2.000000	 flanked_rf_freq_4_amplitude_0.425_rep_5_b_D_2.0.png	 D	 b	 b	 n.a.	 3.653171e-01
7	 1	 85	 flanked	 rf	 4	 0.125000	 2.000000	 flanked_rf_freq_4_amplitude_0.125_rep_9_l_K_2.0.png	 K	 l	 r	 n.a.	 5.844159e-01
7	 1	 86	 flanked	 rf	 4	 0.050000	 2.000000	 flanked_rf_freq_4_amplitude_0.05_rep_2_r_H_2.0.png	 H	 r	 b	 n.a.	 4.052591e-01
7	 1	 87	 flanked	 rf	 4	 0.350000	 2.000000	 flanked_rf_freq_4_amplitude_0.35_rep_7_b_N_2.0.png	 N	 b	 b	 n.a.	 4.614881e-01
7	 1	 88	 flanked	 rf	 4	 0.500000	 2.000000	 flanked_rf_freq_4_amplitude_0.5_rep_7_l_N_2.0.png	 N	 l	 l	 n.a.	 2.643742e-01
7	 1	 89	 flanked	 rf	 4	 0.125000	 2.000000	 flanked_rf_freq_4_amplitude_0.125_rep_1_r_D_2.0.png	 D	 r	 r	 n.a.	 3.067056e-01
7	 1	 90	 flanked	 rf	 4	 0.425000	 2.000000	 flanked_rf_freq_4_amplitude_0.425_rep_3_b_H_2.0.png	 H	 b	 b	 n.a.	 3.035317e-01
7	 1	 91	 flanked	 rf	 4	 0.350000	 2.000000	 flanked_rf_freq_4_amplitude_0.35_rep_9_r_H_2.0.png	 H	 r	 r	 n.a.	 2.407965e-01
7	 1	 92	 flanked	 rf	 4	 0.200000	 2.000000	 flanked_rf_freq_4_amplitude_0.2_rep_3_t_N_2.0.png	 N	 t	 t	 n.a.	 8.075201e-01
7	 1	 93	 flanked	 rf	 4	 0.050000	 2.000000	 flanked_rf_freq_4_amplitude_0.05_rep_8_l_N_2.0.png	 N	 l	 r	 n.a.	 4.770208e-01
7	 1	 94	 flanked	 rf	 4	 0.350000	 2.000000	 flanked_rf_freq_4_amplitude_0.35_rep_3_l_H_2.0.png	 H	 l	 l	 n.a.	 2.751287e-01
7	 1	 95	 flanked	 rf	 4	 0.125000	 2.000000	 flanked_rf_freq_4_amplitude_0.125_rep_5_r_D_2.0.png	 D	 r	 b	 n.a.	 6.396642e-01
7	 1	 96	 flanked	 rf	 4	 0.500000	 2.000000	 flanked_rf_freq_4_amplitude_0.5_rep_8_t_H_2.0.png	 H	 t	 t	 n.a.	 3.206982e-01
7	 1	 97	 flanked	 rf	 4	 0.125000	 2.000000	 flanked_rf_freq_4_amplitude_0.125_rep_7_b_D_2.0.png	 D	 b	 l	 n.a.	 5.217619e-01
7	 1	 98	 flanked	 rf	 4	 0.350000	 2.000000	 flanked_rf_freq_4_amplitude_0.35_rep_3_l_H_2.0.png	 H	 l	 l	 n.a.	 3.384645e-01
7	 1	 99	 flanked	 rf	 4	 0.050000	 2.000000	 flanked_rf_freq_4_amplitude_0.05_rep_1_t_D_2.0.png	 D	 t	 r	 n.a.	 4.425950e-01
7	 1	 100	 flanked	 rf	 4	 0.500000	 2.000000	 flanked_rf_freq_4_amplitude_0.5_rep_2_l_N_2.0.png	 N	 l	 l	 n.a.	 2.359893e-01
7	 1	 101	 flanked	 rf	 4	 0.050000	 2.000000	 flanked_rf_freq_4_amplitude_0.05_rep_9_r_H_2.0.png	 H	 r	 b	 n.a.	 4.308559e-01
7	 1	 102	 flanked	 rf	 4	 0.050000	 2.000000	 flanked_rf_freq_4_amplitude_0.05_rep_4_r_K_2.0.png	 K	 r	 b	 n.a.	 5.684518e-01
7	 1	 103	 flanked	 rf	 4	 0.050000	 2.000000	 flanked_rf_freq_4_amplitude_0.05_rep_1_t_D_2.0.png	 D	 t	 l	 n.a.	 5.501360e-01
7	 1	 104	 flanked	 rf	 4	 0.500000	 2.000000	 flanked_rf_freq_4_amplitude_0.5_rep_4_r_H_2.0.png	 H	 r	 r	 n.a.	 2.778614e-01
7	 1	 105	 flanked	 rf	 4	 0.200000	 2.000000	 flanked_rf_freq_4_amplitude_0.2_rep_4_b_D_2.0.png	 D	 b	 t	 n.a.	 3.969107e-01
7	 1	 106	 flanked	 rf	 4	 0.200000	 2.000000	 flanked_rf_freq_4_amplitude_0.2_rep_3_t_N_2.0.png	 N	 t	 l	 n.a.	 5.833413e-01
7	 1	 107	 flanked	 rf	 4	 0.350000	 2.000000	 flanked_rf_freq_4_amplitude_0.35_rep_2_r_D_2.0.png	 D	 r	 r	 n.a.	 3.161994e-01
7	 1	 108	 flanked	 rf	 4	 0.425000	 2.000000	 flanked_rf_freq_4_amplitude_0.425_rep_5_b_D_2.0.png	 D	 b	 b	 n.a.	 4.791868e-01
7	 1	 109	 flanked	 rf	 4	 0.200000	 2.000000	 flanked_rf_freq_4_amplitude_0.2_rep_6_b_H_2.0.png	 H	 b	 b	 n.a.	 3.525867e-01
7	 1	 110	 flanked	 rf	 4	 0.275000	 2.000000	 flanked_rf_freq_4_amplitude_0.275_rep_7_r_D_2.0.png	 D	 r	 r	 n.a.	 2.769555e-01
7	 1	 111	 flanked	 rf	 4	 0.350000	 2.000000	 flanked_rf_freq_4_amplitude_0.35_rep_8_l_D_2.0.png	 D	 l	 l	 n.a.	 2.865179e-01
7	 1	 112	 flanked	 rf	 4	 0.275000	 2.000000	 flanked_rf_freq_4_amplitude_0.275_rep_4_l_D_2.0.png	 D	 l	 l	 n.a.	 2.947675e-01
7	 1	 113	 flanked	 rf	 4	 0.275000	 2.000000	 flanked_rf_freq_4_amplitude_0.275_rep_9_r_D_2.0.png	 D	 r	 r	 n.a.	 2.726689e-01
7	 1	 114	 flanked	 rf	 4	 0.350000	 2.000000	 flanked_rf_freq_4_amplitude_0.35_rep_6_b_N_2.0.png	 N	 b	 t	 n.a.	 5.731184e-01
7	 1	 115	 flanked	 rf	 4	 0.050000	 2.000000	 flanked_rf_freq_4_amplitude_0.05_rep_7_r_N_2.0.png	 N	 r	 r	 n.a.	 6.358048e-01
7	 1	 116	 flanked	 rf	 4	 0.275000	 2.000000	 flanked_rf_freq_4_amplitude_0.275_rep_1_l_N_2.0.png	 N	 l	 r	 n.a.	 4.802783e-01
7	 1	 117	 flanked	 rf	 4	 0.500000	 2.000000	 flanked_rf_freq_4_amplitude_0.5_rep_9_b_H_2.0.png	 H	 b	 b	 n.a.	 5.360458e-01
7	 1	 118	 flanked	 rf	 4	 0.050000	 2.000000	 flanked_rf_freq_4_amplitude_0.05_rep_2_r_H_2.0.png	 H	 r	 r	 n.a.	 7.239375e-01
7	 1	 119	 flanked	 rf	 4	 0.200000	 2.000000	 flanked_rf_freq_4_amplitude_0.2_rep_4_b_D_2.0.png	 D	 b	 b	 n.a.	 5.551591e-01
7	 1	 120	 flanked	 rf	 4	 0.125000	 2.000000	 flanked_rf_freq_4_amplitude_0.125_rep_4_t_N_2.0.png	 N	 t	 r	 n.a.	 7.926226e-01
7	 1	 121	 flanked	 rf	 4	 0.200000	 2.000000	 flanked_rf_freq_4_amplitude_0.2_rep_3_t_N_2.0.png	 N	 t	 l	 n.a.	 3.997917e-01
7	 1	 122	 flanked	 rf	 4	 0.350000	 2.000000	 flanked_rf_freq_4_amplitude_0.35_rep_1_b_N_2.0.png	 N	 b	 r	 n.a.	 5.229828e-01
7	 1	 123	 flanked	 rf	 4	 0.350000	 2.000000	 flanked_rf_freq_4_amplitude_0.35_rep_9_r_H_2.0.png	 H	 r	 r	 n.a.	 3.216434e-01
7	 1	 124	 flanked	 rf	 4	 0.275000	 2.000000	 flanked_rf_freq_4_amplitude_0.275_rep_7_r_D_2.0.png	 D	 r	 r	 n.a.	 3.155615e-01
7	 1	 125	 flanked	 rf	 4	 0.425000	 2.000000	 flanked_rf_freq_4_amplitude_0.425_rep_4_t_D_2.0.png	 D	 t	 t	 n.a.	 3.955215e-01
7	 1	 126	 flanked	 rf	 4	 0.125000	 2.000000	 flanked_rf_freq_4_amplitude_0.125_rep_0_r_N_2.0.png	 N	 r	 r	 n.a.	 4.279811e-01
7	 1	 127	 flanked	 rf	 4	 0.200000	 2.000000	 flanked_rf_freq_4_amplitude_0.2_rep_5_t_H_2.0.png	 H	 t	 r	 n.a.	 4.117979e-01
7	 1	 128	 flanked	 rf	 4	 0.350000	 2.000000	 flanked_rf_freq_4_amplitude_0.35_rep_2_r_D_2.0.png	 D	 r	 r	 n.a.	 2.929726e-01
7	 1	 129	 flanked	 rf	 4	 0.275000	 2.000000	 flanked_rf_freq_4_amplitude_0.275_rep_0_b_D_2.0.png	 D	 b	 b	 n.a.	 6.772258e-01
7	 1	 130	 flanked	 rf	 4	 0.275000	 2.000000	 flanked_rf_freq_4_amplitude_0.275_rep_8_r_N_2.0.png	 N	 r	 r	 n.a.	 4.501417e-01
7	 1	 131	 flanked	 rf	 4	 0.275000	 2.000000	 flanked_rf_freq_4_amplitude_0.275_rep_9_r_D_2.0.png	 D	 r	 r	 n.a.	 3.938493e-01
7	 1	 132	 flanked	 rf	 4	 0.500000	 2.000000	 flanked_rf_freq_4_amplitude_0.5_rep_0_t_D_2.0.png	 D	 t	 t	 n.a.	 4.391999e-01
7	 1	 133	 flanked	 rf	 4	 0.425000	 2.000000	 flanked_rf_freq_4_amplitude_0.425_rep_6_r_K_2.0.png	 K	 r	 r	 n.a.	 3.715174e-01
7	 1	 134	 flanked	 rf	 4	 0.050000	 2.000000	 flanked_rf_freq_4_amplitude_0.05_rep_0_l_D_2.0.png	 D	 l	 r	 n.a.	 6.142998e-01
7	 1	 135	 flanked	 rf	 4	 0.050000	 2.000000	 flanked_rf_freq_4_amplitude_0.05_rep_1_t_D_2.0.png	 D	 t	 t	 n.a.	 5.414037e-01
7	 1	 136	 flanked	 rf	 4	 0.200000	 2.000000	 flanked_rf_freq_4_amplitude_0.2_rep_9_b_H_2.0.png	 H	 b	 b	 n.a.	 4.533843e-01
7	 1	 137	 flanked	 rf	 4	 0.125000	 2.000000	 flanked_rf_freq_4_amplitude_0.125_rep_1_r_D_2.0.png	 D	 r	 r	 n.a.	 3.970374e-01
7	 1	 138	 flanked	 rf	 4	 0.200000	 2.000000	 flanked_rf_freq_4_amplitude_0.2_rep_7_b_K_2.0.png	 K	 b	 b	 n.a.	 3.311451e-01
7	 1	 139	 flanked	 rf	 4	 0.275000	 2.000000	 flanked_rf_freq_4_amplitude_0.275_rep_7_r_D_2.0.png	 D	 r	 r	 n.a.	 3.465024e-01
7	 1	 140	 flanked	 rf	 4	 0.050000	 2.000000	 flanked_rf_freq_4_amplitude_0.05_rep_2_r_H_2.0.png	 H	 r	 t	 n.a.	 5.168730e-01
7	 1	 141	 flanked	 rf	 4	 0.275000	 2.000000	 flanked_rf_freq_4_amplitude_0.275_rep_4_l_D_2.0.png	 D	 l	 l	 n.a.	 3.752049e-01
7	 1	 142	 flanked	 rf	 4	 0.050000	 2.000000	 flanked_rf_freq_4_amplitude_0.05_rep_5_r_H_2.0.png	 H	 r	 r	 n.a.	 2.109677e-01
7	 1	 143	 flanked	 rf	 4	 0.425000	 2.000000	 flanked_rf_freq_4_amplitude_0.425_rep_2_r_H_2.0.png	 H	 r	 r	 n.a.	 2.438034e-01
7	 1	 144	 flanked	 rf	 4	 0.275000	 2.000000	 flanked_rf_freq_4_amplitude_0.275_rep_3_t_H_2.0.png	 H	 t	 t	 n.a.	 3.735901e-01
7	 1	 145	 flanked	 rf	 4	 0.500000	 2.000000	 flanked_rf_freq_4_amplitude_0.5_rep_7_l_N_2.0.png	 N	 l	 l	 n.a.	 2.792508e-01
7	 1	 146	 flanked	 rf	 4	 0.050000	 2.000000	 flanked_rf_freq_4_amplitude_0.05_rep_4_r_K_2.0.png	 K	 r	 r	 n.a.	 3.599481e-01
7	 1	 147	 flanked	 rf	 4	 0.125000	 2.000000	 flanked_rf_freq_4_amplitude_0.125_rep_0_r_N_2.0.png	 N	 r	 r	 n.a.	 5.924605e-01
7	 1	 148	 flanked	 rf	 4	 0.350000	 2.000000	 flanked_rf_freq_4_amplitude_0.35_rep_5_t_D_2.0.png	 D	 t	 t	 n.a.	 2.633986e-01
7	 1	 149	 flanked	 rf	 4	 0.125000	 2.000000	 flanked_rf_freq_4_amplitude_0.125_rep_8_t_H_2.0.png	 H	 t	 r	 n.a.	 4.566708e-01
7	 1	 150	 flanked	 rf	 4	 0.500000	 2.000000	 flanked_rf_freq_4_amplitude_0.5_rep_6_t_D_2.0.png	 D	 t	 t	 n.a.	 2.746909e-01
7	 1	 151	 flanked	 rf	 4	 0.425000	 2.000000	 flanked_rf_freq_4_amplitude_0.425_rep_1_l_D_2.0.png	 D	 l	 l	 n.a.	 2.895432e-01
7	 1	 152	 flanked	 rf	 4	 0.425000	 2.000000	 flanked_rf_freq_4_amplitude_0.425_rep_6_r_K_2.0.png	 K	 r	 r	 n.a.	 2.235838e-01
7	 1	 153	 flanked	 rf	 4	 0.050000	 2.000000	 flanked_rf_freq_4_amplitude_0.05_rep_5_r_H_2.0.png	 H	 r	 b	 n.a.	 7.157270e-01
7	 1	 154	 flanked	 rf	 4	 0.125000	 2.000000	 flanked_rf_freq_4_amplitude_0.125_rep_2_l_N_2.0.png	 N	 l	 l	 n.a.	 6.653242e-01
7	 1	 155	 flanked	 rf	 4	 0.050000	 2.000000	 flanked_rf_freq_4_amplitude_0.05_rep_4_r_K_2.0.png	 K	 r	 r	 n.a.	 6.022932e-01
7	 1	 156	 flanked	 rf	 4	 0.275000	 2.000000	 flanked_rf_freq_4_amplitude_0.275_rep_3_t_H_2.0.png	 H	 t	 t	 n.a.	 2.422910e-01
7	 1	 157	 flanked	 rf	 4	 0.275000	 2.000000	 flanked_rf_freq_4_amplitude_0.275_rep_9_r_D_2.0.png	 D	 r	 r	 n.a.	 2.870641e-01
7	 1	 158	 flanked	 rf	 4	 0.350000	 2.000000	 flanked_rf_freq_4_amplitude_0.35_rep_6_b_N_2.0.png	 N	 b	 b	 n.a.	 7.763667e-01
7	 1	 159	 flanked	 rf	 4	 0.125000	 2.000000	 flanked_rf_freq_4_amplitude_0.125_rep_2_l_N_2.0.png	 N	 l	 t	 n.a.	 6.762934e-01
7	 1	 160	 flanked	 rf	 4	 0.500000	 2.000000	 flanked_rf_freq_4_amplitude_0.5_rep_2_l_N_2.0.png	 N	 l	 l	 n.a.	 2.551082e-01
7	 1	 161	 flanked	 rf	 4	 0.200000	 2.000000	 flanked_rf_freq_4_amplitude_0.2_rep_5_t_H_2.0.png	 H	 t	 r	 n.a.	 4.297844e-01
7	 1	 162	 flanked	 rf	 4	 0.425000	 2.000000	 flanked_rf_freq_4_amplitude_0.425_rep_6_r_K_2.0.png	 K	 r	 r	 n.a.	 3.208851e-01
7	 1	 163	 flanked	 rf	 4	 0.275000	 2.000000	 flanked_rf_freq_4_amplitude_0.275_rep_0_b_D_2.0.png	 D	 b	 t	 n.a.	 4.714980e-01
7	 1	 164	 flanked	 rf	 4	 0.125000	 2.000000	 flanked_rf_freq_4_amplitude_0.125_rep_5_r_D_2.0.png	 D	 r	 b	 n.a.	 3.585154e-01
7	 1	 165	 flanked	 rf	 4	 0.050000	 2.000000	 flanked_rf_freq_4_amplitude_0.05_rep_8_l_N_2.0.png	 N	 l	 r	 n.a.	 2.996316e-01
7	 1	 166	 flanked	 rf	 4	 0.125000	 2.000000	 flanked_rf_freq_4_amplitude_0.125_rep_4_t_N_2.0.png	 N	 t	 b	 n.a.	 1.039851e+00
7	 1	 167	 flanked	 rf	 4	 0.125000	 2.000000	 flanked_rf_freq_4_amplitude_0.125_rep_3_l_H_2.0.png	 H	 l	 l	 n.a.	 7.167985e-01
7	 1	 168	 flanked	 rf	 4	 0.350000	 2.000000	 flanked_rf_freq_4_amplitude_0.35_rep_7_b_N_2.0.png	 N	 b	 b	 n.a.	 5.648554e-01
7	 1	 169	 flanked	 rf	 4	 0.425000	 2.000000	 flanked_rf_freq_4_amplitude_0.425_rep_7_b_N_2.0.png	 N	 b	 b	 n.a.	 5.757494e-01
7	 1	 170	 flanked	 rf	 4	 0.200000	 2.000000	 flanked_rf_freq_4_amplitude_0.2_rep_5_t_H_2.0.png	 H	 t	 t	 n.a.	 4.229291e-01
7	 1	 171	 flanked	 rf	 4	 0.425000	 2.000000	 flanked_rf_freq_4_amplitude_0.425_rep_2_r_H_2.0.png	 H	 r	 r	 n.a.	 3.786266e-01
7	 1	 172	 flanked	 rf	 4	 0.200000	 2.000000	 flanked_rf_freq_4_amplitude_0.2_rep_2_l_K_2.0.png	 K	 l	 l	 n.a.	 3.407721e-01
7	 1	 173	 flanked	 rf	 4	 0.050000	 2.000000	 flanked_rf_freq_4_amplitude_0.05_rep_0_l_D_2.0.png	 D	 l	 b	 n.a.	 4.562806e-01
7	 1	 174	 flanked	 rf	 4	 0.050000	 2.000000	 flanked_rf_freq_4_amplitude_0.05_rep_6_b_N_2.0.png	 N	 b	 t	 n.a.	 8.536337e-01
7	 1	 175	 flanked	 rf	 4	 0.500000	 2.000000	 flanked_rf_freq_4_amplitude_0.5_rep_9_b_H_2.0.png	 H	 b	 b	 n.a.	 3.619649e-01
7	 1	 176	 flanked	 rf	 4	 0.425000	 2.000000	 flanked_rf_freq_4_amplitude_0.425_rep_2_r_H_2.0.png	 H	 r	 r	 n.a.	 3.591052e-01
7	 1	 177	 flanked	 rf	 4	 0.125000	 2.000000	 flanked_rf_freq_4_amplitude_0.125_rep_0_r_N_2.0.png	 N	 r	 b	 n.a.	 5.667526e-01
7	 1	 178	 flanked	 rf	 4	 0.350000	 2.000000	 flanked_rf_freq_4_amplitude_0.35_rep_3_l_H_2.0.png	 H	 l	 l	 n.a.	 3.286804e-01
7	 1	 179	 flanked	 rf	 4	 0.200000	 2.000000	 flanked_rf_freq_4_amplitude_0.2_rep_4_b_D_2.0.png	 D	 b	 b	 n.a.	 4.456264e-01
7	 1	 180	 flanked	 rf	 4	 0.200000	 2.000000	 flanked_rf_freq_4_amplitude_0.2_rep_2_l_K_2.0.png	 K	 l	 l	 n.a.	 4.289038e-01
7	 1	 181	 flanked	 rf	 4	 0.275000	 2.000000	 flanked_rf_freq_4_amplitude_0.275_rep_0_b_D_2.0.png	 D	 b	 t	 n.a.	 4.927821e-01
7	 1	 182	 flanked	 rf	 4	 0.275000	 2.000000	 flanked_rf_freq_4_amplitude_0.275_rep_1_l_N_2.0.png	 N	 l	 b	 n.a.	 5.397407e-01
7	 1	 183	 flanked	 rf	 4	 0.500000	 2.000000	 flanked_rf_freq_4_amplitude_0.5_rep_7_l_N_2.0.png	 N	 l	 l	 n.a.	 2.940895e-01
7	 1	 184	 flanked	 rf	 4	 0.425000	 2.000000	 flanked_rf_freq_4_amplitude_0.425_rep_0_l_N_2.0.png	 N	 l	 l	 n.a.	 2.725992e-01
7	 1	 185	 flanked	 rf	 4	 0.050000	 2.000000	 flanked_rf_freq_4_amplitude_0.05_rep_6_b_N_2.0.png	 N	 b	 b	 n.a.	 4.265861e-01
7	 1	 186	 flanked	 rf	 4	 0.050000	 2.000000	 flanked_rf_freq_4_amplitude_0.05_rep_9_r_H_2.0.png	 H	 r	 b	 n.a.	 5.245867e-01
7	 1	 187	 flanked	 rf	 4	 0.425000	 2.000000	 flanked_rf_freq_4_amplitude_0.425_rep_0_l_N_2.0.png	 N	 l	 l	 n.a.	 2.572368e-01
7	 1	 188	 flanked	 rf	 4	 0.425000	 2.000000	 flanked_rf_freq_4_amplitude_0.425_rep_9_r_H_2.0.png	 H	 r	 r	 n.a.	 2.650670e-01
7	 1	 189	 flanked	 rf	 4	 0.275000	 2.000000	 flanked_rf_freq_4_amplitude_0.275_rep_8_r_N_2.0.png	 N	 r	 r	 n.a.	 2.606433e-01
7	 1	 190	 flanked	 rf	 4	 0.350000	 2.000000	 flanked_rf_freq_4_amplitude_0.35_rep_1_b_N_2.0.png	 N	 b	 b	 n.a.	 3.810018e-01
7	 1	 191	 flanked	 rf	 4	 0.500000	 2.000000	 flanked_rf_freq_4_amplitude_0.5_rep_3_r_N_2.0.png	 N	 r	 r	 n.a.	 2.778935e-01
7	 1	 192	 flanked	 rf	 4	 0.275000	 2.000000	 flanked_rf_freq_4_amplitude_0.275_rep_4_l_D_2.0.png	 D	 l	 l	 n.a.	 2.860548e-01
7	 1	 193	 flanked	 rf	 4	 0.425000	 2.000000	 flanked_rf_freq_4_amplitude_0.425_rep_8_r_K_2.0.png	 K	 r	 r	 n.a.	 2.461586e-01
7	 1	 194	 flanked	 rf	 4	 0.200000	 2.000000	 flanked_rf_freq_4_amplitude_0.2_rep_2_l_K_2.0.png	 K	 l	 l	 n.a.	 2.653650e-01
7	 1	 195	 flanked	 rf	 4	 0.350000	 2.000000	 flanked_rf_freq_4_amplitude_0.35_rep_0_r_N_2.0.png	 N	 r	 b	 n.a.	 3.959468e-01
7	 1	 196	 flanked	 rf	 4	 0.050000	 2.000000	 flanked_rf_freq_4_amplitude_0.05_rep_3_r_K_2.0.png	 K	 r	 r	 n.a.	 3.392615e-01
7	 1	 197	 flanked	 rf	 4	 0.200000	 2.000000	 flanked_rf_freq_4_amplitude_0.2_rep_1_r_H_2.0.png	 H	 r	 t	 n.a.	 7.456036e-01
7	 1	 198	 flanked	 rf	 4	 0.050000	 2.000000	 flanked_rf_freq_4_amplitude_0.05_rep_5_r_H_2.0.png	 H	 r	 b	 n.a.	 4.028251e-01
7	 1	 199	 flanked	 rf	 4	 0.050000	 2.000000	 flanked_rf_freq_4_amplitude_0.05_rep_6_b_N_2.0.png	 N	 b	 l	 n.a.	 5.145794e-01
7	 1	 200	 flanked	 rf	 4	 0.500000	 2.000000	 flanked_rf_freq_4_amplitude_0.5_rep_4_r_H_2.0.png	 H	 r	 r	 n.a.	 3.130339e-01
7	 1	 201	 flanked	 rf	 4	 0.500000	 2.000000	 flanked_rf_freq_4_amplitude_0.5_rep_5_l_N_2.0.png	 N	 l	 l	 n.a.	 2.546857e-01
7	 1	 202	 flanked	 rf	 4	 0.275000	 2.000000	 flanked_rf_freq_4_amplitude_0.275_rep_6_b_K_2.0.png	 K	 b	 b	 n.a.	 3.345486e-01
7	 1	 203	 flanked	 rf	 4	 0.425000	 2.000000	 flanked_rf_freq_4_amplitude_0.425_rep_5_b_D_2.0.png	 D	 b	 b	 n.a.	 4.448829e-01
7	 1	 204	 flanked	 rf	 4	 0.500000	 2.000000	 flanked_rf_freq_4_amplitude_0.5_rep_2_l_N_2.0.png	 N	 l	 l	 n.a.	 3.241805e-01
7	 1	 205	 flanked	 rf	 4	 0.425000	 2.000000	 flanked_rf_freq_4_amplitude_0.425_rep_9_r_H_2.0.png	 H	 r	 r	 n.a.	 3.409062e-01
7	 1	 206	 flanked	 rf	 4	 0.125000	 2.000000	 flanked_rf_freq_4_amplitude_0.125_rep_3_l_H_2.0.png	 H	 l	 l	 n.a.	 6.027928e-01
7	 1	 207	 flanked	 rf	 4	 0.425000	 2.000000	 flanked_rf_freq_4_amplitude_0.425_rep_8_r_K_2.0.png	 K	 r	 r	 n.a.	 4.194456e-01
7	 1	 208	 flanked	 rf	 4	 0.200000	 2.000000	 flanked_rf_freq_4_amplitude_0.2_rep_8_b_K_2.0.png	 K	 b	 b	 n.a.	 5.279307e-01
7	 1	 209	 flanked	 rf	 4	 0.275000	 2.000000	 flanked_rf_freq_4_amplitude_0.275_rep_3_t_H_2.0.png	 H	 t	 r	 n.a.	 5.290011e-01
7	 1	 210	 flanked	 rf	 4	 0.125000	 2.000000	 flanked_rf_freq_4_amplitude_0.125_rep_9_l_K_2.0.png	 K	 l	 t	 n.a.	 4.527389e-01
