subject	 session	 trial	 flanked	 distortion	 freq	 amplitude	 spacing	 im_name	 targ_letter	 targ_pos	 response	 eyemovement	 RT
2	 1	 1	 flanked	 rf	 4	 0.125000	 2.000000	 flanked_rf_freq_4_amplitude_0.125_rep_4_t_N_2.0.png	 N	 t	 b	 n.a.	 3.833919e-01
2	 1	 2	 flanked	 rf	 4	 0.425000	 2.000000	 flanked_rf_freq_4_amplitude_0.425_rep_5_b_D_2.0.png	 D	 b	 l	 n.a.	 4.186792e-01
2	 1	 3	 flanked	 rf	 4	 0.350000	 2.000000	 flanked_rf_freq_4_amplitude_0.35_rep_9_r_H_2.0.png	 H	 r	 r	 n.a.	 3.825166e-01
2	 1	 4	 flanked	 rf	 4	 0.275000	 2.000000	 flanked_rf_freq_4_amplitude_0.275_rep_5_r_K_2.0.png	 K	 r	 r	 n.a.	 4.457286e-01
2	 1	 5	 flanked	 rf	 4	 0.500000	 2.000000	 flanked_rf_freq_4_amplitude_0.5_rep_6_t_D_2.0.png	 D	 t	 t	 n.a.	 3.290205e-01
2	 1	 6	 flanked	 rf	 4	 0.125000	 2.000000	 flanked_rf_freq_4_amplitude_0.125_rep_5_r_D_2.0.png	 D	 r	 b	 n.a.	 3.914891e-01
2	 1	 7	 flanked	 rf	 4	 0.425000	 2.000000	 flanked_rf_freq_4_amplitude_0.425_rep_4_t_D_2.0.png	 D	 t	 l	 n.a.	 2.034631e-01
2	 1	 8	 flanked	 rf	 4	 0.500000	 2.000000	 flanked_rf_freq_4_amplitude_0.5_rep_8_t_H_2.0.png	 H	 t	 t	 n.a.	 3.807812e-01
2	 1	 9	 flanked	 rf	 4	 0.275000	 2.000000	 flanked_rf_freq_4_amplitude_0.275_rep_4_l_D_2.0.png	 D	 l	 l	 n.a.	 3.430264e-01
2	 1	 10	 flanked	 rf	 4	 0.050000	 2.000000	 flanked_rf_freq_4_amplitude_0.05_rep_0_l_D_2.0.png	 D	 l	 l	 n.a.	 6.213682e-01
2	 1	 11	 flanked	 rf	 4	 0.050000	 2.000000	 flanked_rf_freq_4_amplitude_0.05_rep_8_l_N_2.0.png	 N	 l	 r	 n.a.	 3.355872e-01
2	 1	 12	 flanked	 rf	 4	 0.200000	 2.000000	 flanked_rf_freq_4_amplitude_0.2_rep_6_b_H_2.0.png	 H	 b	 b	 n.a.	 2.989545e-01
2	 1	 13	 flanked	 rf	 4	 0.050000	 2.000000	 flanked_rf_freq_4_amplitude_0.05_rep_1_t_D_2.0.png	 D	 t	 l	 n.a.	 3.525739e-01
2	 1	 14	 flanked	 rf	 4	 0.200000	 2.000000	 flanked_rf_freq_4_amplitude_0.2_rep_8_b_K_2.0.png	 K	 b	 b	 n.a.	 3.320349e-01
2	 1	 15	 flanked	 rf	 4	 0.200000	 2.000000	 flanked_rf_freq_4_amplitude_0.2_rep_8_b_K_2.0.png	 K	 b	 b	 n.a.	 5.614448e-01
2	 1	 16	 flanked	 rf	 4	 0.500000	 2.000000	 flanked_rf_freq_4_amplitude_0.5_rep_6_t_D_2.0.png	 D	 t	 t	 n.a.	 5.902587e-01
2	 1	 17	 flanked	 rf	 4	 0.350000	 2.000000	 flanked_rf_freq_4_amplitude_0.35_rep_3_l_H_2.0.png	 H	 l	 l	 n.a.	 3.998863e-01
2	 1	 18	 flanked	 rf	 4	 0.350000	 2.000000	 flanked_rf_freq_4_amplitude_0.35_rep_6_b_N_2.0.png	 N	 b	 b	 n.a.	 3.623389e-01
2	 1	 19	 flanked	 rf	 4	 0.125000	 2.000000	 flanked_rf_freq_4_amplitude_0.125_rep_3_l_H_2.0.png	 H	 l	 l	 n.a.	 4.307193e-01
2	 1	 20	 flanked	 rf	 4	 0.275000	 2.000000	 flanked_rf_freq_4_amplitude_0.275_rep_8_r_N_2.0.png	 N	 r	 r	 n.a.	 3.082417e-01
2	 1	 21	 flanked	 rf	 4	 0.500000	 2.000000	 flanked_rf_freq_4_amplitude_0.5_rep_4_r_H_2.0.png	 H	 r	 r	 n.a.	 2.737499e-01
2	 1	 22	 flanked	 rf	 4	 0.500000	 2.000000	 flanked_rf_freq_4_amplitude_0.5_rep_0_t_D_2.0.png	 D	 t	 t	 n.a.	 3.983416e-01
2	 1	 23	 flanked	 rf	 4	 0.200000	 2.000000	 flanked_rf_freq_4_amplitude_0.2_rep_8_b_K_2.0.png	 K	 b	 b	 n.a.	 3.962672e-01
2	 1	 24	 flanked	 rf	 4	 0.425000	 2.000000	 flanked_rf_freq_4_amplitude_0.425_rep_4_t_D_2.0.png	 D	 t	 t	 n.a.	 3.980048e-01
2	 1	 25	 flanked	 rf	 4	 0.425000	 2.000000	 flanked_rf_freq_4_amplitude_0.425_rep_1_l_D_2.0.png	 D	 l	 l	 n.a.	 2.515551e-01
2	 1	 26	 flanked	 rf	 4	 0.500000	 2.000000	 flanked_rf_freq_4_amplitude_0.5_rep_8_t_H_2.0.png	 H	 t	 t	 n.a.	 4.549027e-01
2	 1	 27	 flanked	 rf	 4	 0.350000	 2.000000	 flanked_rf_freq_4_amplitude_0.35_rep_6_b_N_2.0.png	 N	 b	 l	 n.a.	 7.524926e-01
2	 1	 28	 flanked	 rf	 4	 0.425000	 2.000000	 flanked_rf_freq_4_amplitude_0.425_rep_2_r_H_2.0.png	 H	 r	 r	 n.a.	 3.196340e-01
2	 1	 29	 flanked	 rf	 4	 0.275000	 2.000000	 flanked_rf_freq_4_amplitude_0.275_rep_5_r_K_2.0.png	 K	 r	 l	 n.a.	 6.204907e-01
2	 1	 30	 flanked	 rf	 4	 0.125000	 2.000000	 flanked_rf_freq_4_amplitude_0.125_rep_7_b_D_2.0.png	 D	 b	 t	 n.a.	 4.580738e-01
2	 1	 31	 flanked	 rf	 4	 0.425000	 2.000000	 flanked_rf_freq_4_amplitude_0.425_rep_3_b_H_2.0.png	 H	 b	 b	 n.a.	 3.241160e-01
2	 1	 32	 flanked	 rf	 4	 0.200000	 2.000000	 flanked_rf_freq_4_amplitude_0.2_rep_5_t_H_2.0.png	 H	 t	 t	 n.a.	 3.788451e-01
2	 1	 33	 flanked	 rf	 4	 0.125000	 2.000000	 flanked_rf_freq_4_amplitude_0.125_rep_0_r_N_2.0.png	 N	 r	 b	 n.a.	 3.558679e-01
2	 1	 34	 flanked	 rf	 4	 0.125000	 2.000000	 flanked_rf_freq_4_amplitude_0.125_rep_4_t_N_2.0.png	 N	 t	 b	 n.a.	 3.774645e-01
2	 1	 35	 flanked	 rf	 4	 0.275000	 2.000000	 flanked_rf_freq_4_amplitude_0.275_rep_2_r_H_2.0.png	 H	 r	 t	 n.a.	 4.249837e-01
2	 1	 36	 flanked	 rf	 4	 0.425000	 2.000000	 flanked_rf_freq_4_amplitude_0.425_rep_2_r_H_2.0.png	 H	 r	 r	 n.a.	 2.226197e-01
2	 1	 37	 flanked	 rf	 4	 0.500000	 2.000000	 flanked_rf_freq_4_amplitude_0.5_rep_4_r_H_2.0.png	 H	 r	 r	 n.a.	 2.577829e-01
2	 1	 38	 flanked	 rf	 4	 0.350000	 2.000000	 flanked_rf_freq_4_amplitude_0.35_rep_4_r_H_2.0.png	 H	 r	 r	 n.a.	 3.169174e-01
2	 1	 39	 flanked	 rf	 4	 0.125000	 2.000000	 flanked_rf_freq_4_amplitude_0.125_rep_3_l_H_2.0.png	 H	 l	 b	 n.a.	 3.012739e-01
2	 1	 40	 flanked	 rf	 4	 0.125000	 2.000000	 flanked_rf_freq_4_amplitude_0.125_rep_1_r_D_2.0.png	 D	 r	 r	 n.a.	 3.922993e-01
2	 1	 41	 flanked	 rf	 4	 0.275000	 2.000000	 flanked_rf_freq_4_amplitude_0.275_rep_6_b_K_2.0.png	 K	 b	 b	 n.a.	 3.544994e-01
2	 1	 42	 flanked	 rf	 4	 0.275000	 2.000000	 flanked_rf_freq_4_amplitude_0.275_rep_2_r_H_2.0.png	 H	 r	 r	 n.a.	 3.680742e-01
2	 1	 43	 flanked	 rf	 4	 0.125000	 2.000000	 flanked_rf_freq_4_amplitude_0.125_rep_6_t_D_2.0.png	 D	 t	 b	 n.a.	 3.436840e-01
2	 1	 44	 flanked	 rf	 4	 0.125000	 2.000000	 flanked_rf_freq_4_amplitude_0.125_rep_7_b_D_2.0.png	 D	 b	 l	 n.a.	 4.205955e-01
2	 1	 45	 flanked	 rf	 4	 0.125000	 2.000000	 flanked_rf_freq_4_amplitude_0.125_rep_8_t_H_2.0.png	 H	 t	 b	 n.a.	 3.274286e-01
2	 1	 46	 flanked	 rf	 4	 0.050000	 2.000000	 flanked_rf_freq_4_amplitude_0.05_rep_7_r_N_2.0.png	 N	 r	 l	 n.a.	 5.024179e-01
2	 1	 47	 flanked	 rf	 4	 0.050000	 2.000000	 flanked_rf_freq_4_amplitude_0.05_rep_6_b_N_2.0.png	 N	 b	 b	 n.a.	 3.530100e-01
2	 1	 48	 flanked	 rf	 4	 0.200000	 2.000000	 flanked_rf_freq_4_amplitude_0.2_rep_2_l_K_2.0.png	 K	 l	 l	 n.a.	 3.780324e-01
2	 1	 49	 flanked	 rf	 4	 0.500000	 2.000000	 flanked_rf_freq_4_amplitude_0.5_rep_2_l_N_2.0.png	 N	 l	 l	 n.a.	 3.366716e-01
2	 1	 50	 flanked	 rf	 4	 0.275000	 2.000000	 flanked_rf_freq_4_amplitude_0.275_rep_8_r_N_2.0.png	 N	 r	 r	 n.a.	 4.372812e-01
2	 1	 51	 flanked	 rf	 4	 0.275000	 2.000000	 flanked_rf_freq_4_amplitude_0.275_rep_1_l_N_2.0.png	 N	 l	 b	 n.a.	 5.892091e-01
2	 1	 52	 flanked	 rf	 4	 0.500000	 2.000000	 flanked_rf_freq_4_amplitude_0.5_rep_2_l_N_2.0.png	 N	 l	 l	 n.a.	 4.260344e-01
2	 1	 53	 flanked	 rf	 4	 0.425000	 2.000000	 flanked_rf_freq_4_amplitude_0.425_rep_7_b_N_2.0.png	 N	 b	 b	 n.a.	 5.900085e-01
2	 1	 54	 flanked	 rf	 4	 0.350000	 2.000000	 flanked_rf_freq_4_amplitude_0.35_rep_2_r_D_2.0.png	 D	 r	 r	 n.a.	 4.691696e-01
2	 1	 55	 flanked	 rf	 4	 0.350000	 2.000000	 flanked_rf_freq_4_amplitude_0.35_rep_8_l_D_2.0.png	 D	 l	 l	 n.a.	 3.483736e-01
2	 1	 56	 flanked	 rf	 4	 0.275000	 2.000000	 flanked_rf_freq_4_amplitude_0.275_rep_9_r_D_2.0.png	 D	 r	 r	 n.a.	 3.370730e-01
2	 1	 57	 flanked	 rf	 4	 0.350000	 2.000000	 flanked_rf_freq_4_amplitude_0.35_rep_1_b_N_2.0.png	 N	 b	 b	 n.a.	 3.414305e-01
2	 1	 58	 flanked	 rf	 4	 0.200000	 2.000000	 flanked_rf_freq_4_amplitude_0.2_rep_5_t_H_2.0.png	 H	 t	 r	 n.a.	 3.239225e-01
2	 1	 59	 flanked	 rf	 4	 0.500000	 2.000000	 flanked_rf_freq_4_amplitude_0.5_rep_0_t_D_2.0.png	 D	 t	 b	 n.a.	 3.226788e-01
2	 1	 60	 flanked	 rf	 4	 0.125000	 2.000000	 flanked_rf_freq_4_amplitude_0.125_rep_9_l_K_2.0.png	 K	 l	 l	 n.a.	 4.560869e-01
2	 1	 61	 flanked	 rf	 4	 0.275000	 2.000000	 flanked_rf_freq_4_amplitude_0.275_rep_0_b_D_2.0.png	 D	 b	 b	 n.a.	 3.124233e-01
2	 1	 62	 flanked	 rf	 4	 0.500000	 2.000000	 flanked_rf_freq_4_amplitude_0.5_rep_7_l_N_2.0.png	 N	 l	 l	 n.a.	 3.363491e-01
2	 1	 63	 flanked	 rf	 4	 0.050000	 2.000000	 flanked_rf_freq_4_amplitude_0.05_rep_4_r_K_2.0.png	 K	 r	 r	 n.a.	 3.517882e-01
2	 1	 64	 flanked	 rf	 4	 0.125000	 2.000000	 flanked_rf_freq_4_amplitude_0.125_rep_0_r_N_2.0.png	 N	 r	 b	 n.a.	 2.899333e-01
2	 1	 65	 flanked	 rf	 4	 0.500000	 2.000000	 flanked_rf_freq_4_amplitude_0.5_rep_8_t_H_2.0.png	 H	 t	 t	 n.a.	 4.099747e-01
2	 1	 66	 flanked	 rf	 4	 0.125000	 2.000000	 flanked_rf_freq_4_amplitude_0.125_rep_3_l_H_2.0.png	 H	 l	 b	 n.a.	 4.522633e-01
2	 1	 67	 flanked	 rf	 4	 0.200000	 2.000000	 flanked_rf_freq_4_amplitude_0.2_rep_1_r_H_2.0.png	 H	 r	 b	 n.a.	 2.812973e-01
2	 1	 68	 flanked	 rf	 4	 0.275000	 2.000000	 flanked_rf_freq_4_amplitude_0.275_rep_7_r_D_2.0.png	 D	 r	 r	 n.a.	 2.238291e-01
2	 1	 69	 flanked	 rf	 4	 0.350000	 2.000000	 flanked_rf_freq_4_amplitude_0.35_rep_4_r_H_2.0.png	 H	 r	 r	 n.a.	 3.568134e-01
2	 1	 70	 flanked	 rf	 4	 0.050000	 2.000000	 flanked_rf_freq_4_amplitude_0.05_rep_4_r_K_2.0.png	 K	 r	 b	 n.a.	 3.604200e-01
2	 1	 71	 flanked	 rf	 4	 0.425000	 2.000000	 flanked_rf_freq_4_amplitude_0.425_rep_2_r_H_2.0.png	 H	 r	 r	 n.a.	 2.681231e-01
2	 1	 72	 flanked	 rf	 4	 0.200000	 2.000000	 flanked_rf_freq_4_amplitude_0.2_rep_3_t_N_2.0.png	 N	 t	 b	 n.a.	 4.100362e-01
2	 1	 73	 flanked	 rf	 4	 0.050000	 2.000000	 flanked_rf_freq_4_amplitude_0.05_rep_9_r_H_2.0.png	 H	 r	 b	 n.a.	 3.185554e-01
2	 1	 74	 flanked	 rf	 4	 0.500000	 2.000000	 flanked_rf_freq_4_amplitude_0.5_rep_3_r_N_2.0.png	 N	 r	 r	 n.a.	 2.489209e-01
2	 1	 75	 flanked	 rf	 4	 0.200000	 2.000000	 flanked_rf_freq_4_amplitude_0.2_rep_5_t_H_2.0.png	 H	 t	 t	 n.a.	 4.122593e-01
2	 1	 76	 flanked	 rf	 4	 0.350000	 2.000000	 flanked_rf_freq_4_amplitude_0.35_rep_3_l_H_2.0.png	 H	 l	 l	 n.a.	 2.893779e-01
2	 1	 77	 flanked	 rf	 4	 0.050000	 2.000000	 flanked_rf_freq_4_amplitude_0.05_rep_2_r_H_2.0.png	 H	 r	 b	 n.a.	 2.282023e-01
2	 1	 78	 flanked	 rf	 4	 0.425000	 2.000000	 flanked_rf_freq_4_amplitude_0.425_rep_9_r_H_2.0.png	 H	 r	 r	 n.a.	 2.277739e-01
2	 1	 79	 flanked	 rf	 4	 0.275000	 2.000000	 flanked_rf_freq_4_amplitude_0.275_rep_3_t_H_2.0.png	 H	 t	 t	 n.a.	 3.967442e-01
2	 1	 80	 flanked	 rf	 4	 0.125000	 2.000000	 flanked_rf_freq_4_amplitude_0.125_rep_6_t_D_2.0.png	 D	 t	 l	 n.a.	 4.042867e-01
2	 1	 81	 flanked	 rf	 4	 0.500000	 2.000000	 flanked_rf_freq_4_amplitude_0.5_rep_5_l_N_2.0.png	 N	 l	 l	 n.a.	 3.534486e-01
2	 1	 82	 flanked	 rf	 4	 0.500000	 2.000000	 flanked_rf_freq_4_amplitude_0.5_rep_9_b_H_2.0.png	 H	 b	 b	 n.a.	 2.503247e-01
2	 1	 83	 flanked	 rf	 4	 0.050000	 2.000000	 flanked_rf_freq_4_amplitude_0.05_rep_0_l_D_2.0.png	 D	 l	 r	 n.a.	 4.718077e-01
2	 1	 84	 flanked	 rf	 4	 0.050000	 2.000000	 flanked_rf_freq_4_amplitude_0.05_rep_9_r_H_2.0.png	 H	 r	 l	 n.a.	 5.222036e-01
2	 1	 85	 flanked	 rf	 4	 0.275000	 2.000000	 flanked_rf_freq_4_amplitude_0.275_rep_9_r_D_2.0.png	 D	 r	 r	 n.a.	 3.211992e-01
2	 1	 86	 flanked	 rf	 4	 0.500000	 2.000000	 flanked_rf_freq_4_amplitude_0.5_rep_5_l_N_2.0.png	 N	 l	 l	 n.a.	 4.038796e-01
2	 1	 87	 flanked	 rf	 4	 0.125000	 2.000000	 flanked_rf_freq_4_amplitude_0.125_rep_9_l_K_2.0.png	 K	 l	 t	 n.a.	 4.899400e-01
2	 1	 88	 flanked	 rf	 4	 0.275000	 2.000000	 flanked_rf_freq_4_amplitude_0.275_rep_0_b_D_2.0.png	 D	 b	 b	 n.a.	 3.211345e-01
2	 1	 89	 flanked	 rf	 4	 0.500000	 2.000000	 flanked_rf_freq_4_amplitude_0.5_rep_9_b_H_2.0.png	 H	 b	 b	 n.a.	 2.867566e-01
2	 1	 90	 flanked	 rf	 4	 0.275000	 2.000000	 flanked_rf_freq_4_amplitude_0.275_rep_6_b_K_2.0.png	 K	 b	 b	 n.a.	 2.903127e-01
2	 1	 91	 flanked	 rf	 4	 0.275000	 2.000000	 flanked_rf_freq_4_amplitude_0.275_rep_4_l_D_2.0.png	 D	 l	 l	 n.a.	 3.673267e-01
2	 1	 92	 flanked	 rf	 4	 0.500000	 2.000000	 flanked_rf_freq_4_amplitude_0.5_rep_1_r_D_2.0.png	 D	 r	 r	 n.a.	 3.154431e-01
2	 1	 93	 flanked	 rf	 4	 0.200000	 2.000000	 flanked_rf_freq_4_amplitude_0.2_rep_9_b_H_2.0.png	 H	 b	 b	 n.a.	 2.638506e-01
2	 1	 94	 flanked	 rf	 4	 0.350000	 2.000000	 flanked_rf_freq_4_amplitude_0.35_rep_9_r_H_2.0.png	 H	 r	 r	 n.a.	 3.018377e-01
2	 1	 95	 flanked	 rf	 4	 0.050000	 2.000000	 flanked_rf_freq_4_amplitude_0.05_rep_3_r_K_2.0.png	 K	 r	 t	 n.a.	 8.597741e-01
2	 1	 96	 flanked	 rf	 4	 0.350000	 2.000000	 flanked_rf_freq_4_amplitude_0.35_rep_0_r_N_2.0.png	 N	 r	 r	 n.a.	 4.281299e-01
2	 1	 97	 flanked	 rf	 4	 0.425000	 2.000000	 flanked_rf_freq_4_amplitude_0.425_rep_7_b_N_2.0.png	 N	 b	 b	 n.a.	 3.144606e-01
2	 1	 98	 flanked	 rf	 4	 0.050000	 2.000000	 flanked_rf_freq_4_amplitude_0.05_rep_2_r_H_2.0.png	 H	 r	 b	 n.a.	 3.062102e-01
2	 1	 99	 flanked	 rf	 4	 0.425000	 2.000000	 flanked_rf_freq_4_amplitude_0.425_rep_0_l_N_2.0.png	 N	 l	 l	 n.a.	 3.425179e-01
2	 1	 100	 flanked	 rf	 4	 0.200000	 2.000000	 flanked_rf_freq_4_amplitude_0.2_rep_9_b_H_2.0.png	 H	 b	 b	 n.a.	 2.709626e-01
2	 1	 101	 flanked	 rf	 4	 0.275000	 2.000000	 flanked_rf_freq_4_amplitude_0.275_rep_3_t_H_2.0.png	 H	 t	 l	 n.a.	 5.983104e-01
2	 1	 102	 flanked	 rf	 4	 0.050000	 2.000000	 flanked_rf_freq_4_amplitude_0.05_rep_3_r_K_2.0.png	 K	 r	 l	 n.a.	 7.531575e-01
2	 1	 103	 flanked	 rf	 4	 0.200000	 2.000000	 flanked_rf_freq_4_amplitude_0.2_rep_0_t_K_2.0.png	 K	 t	 t	 n.a.	 5.961830e-01
2	 1	 104	 flanked	 rf	 4	 0.050000	 2.000000	 flanked_rf_freq_4_amplitude_0.05_rep_8_l_N_2.0.png	 N	 l	 b	 n.a.	 3.948116e-01
2	 1	 105	 flanked	 rf	 4	 0.050000	 2.000000	 flanked_rf_freq_4_amplitude_0.05_rep_6_b_N_2.0.png	 N	 b	 l	 n.a.	 4.979807e-01
2	 1	 106	 flanked	 rf	 4	 0.125000	 2.000000	 flanked_rf_freq_4_amplitude_0.125_rep_5_r_D_2.0.png	 D	 r	 b	 n.a.	 3.679047e-01
2	 1	 107	 flanked	 rf	 4	 0.500000	 2.000000	 flanked_rf_freq_4_amplitude_0.5_rep_4_r_H_2.0.png	 H	 r	 r	 n.a.	 2.672649e-01
2	 1	 108	 flanked	 rf	 4	 0.350000	 2.000000	 flanked_rf_freq_4_amplitude_0.35_rep_5_t_D_2.0.png	 D	 t	 b	 n.a.	 5.457888e-01
2	 1	 109	 flanked	 rf	 4	 0.350000	 2.000000	 flanked_rf_freq_4_amplitude_0.35_rep_7_b_N_2.0.png	 N	 b	 b	 n.a.	 3.571890e-01
2	 1	 110	 flanked	 rf	 4	 0.350000	 2.000000	 flanked_rf_freq_4_amplitude_0.35_rep_1_b_N_2.0.png	 N	 b	 b	 n.a.	 3.121517e-01
2	 1	 111	 flanked	 rf	 4	 0.275000	 2.000000	 flanked_rf_freq_4_amplitude_0.275_rep_8_r_N_2.0.png	 N	 r	 r	 n.a.	 3.819060e-01
2	 1	 112	 flanked	 rf	 4	 0.125000	 2.000000	 flanked_rf_freq_4_amplitude_0.125_rep_1_r_D_2.0.png	 D	 r	 b	 n.a.	 3.776384e-01
2	 1	 113	 flanked	 rf	 4	 0.050000	 2.000000	 flanked_rf_freq_4_amplitude_0.05_rep_0_l_D_2.0.png	 D	 l	 b	 n.a.	 4.067343e-01
2	 1	 114	 flanked	 rf	 4	 0.425000	 2.000000	 flanked_rf_freq_4_amplitude_0.425_rep_5_b_D_2.0.png	 D	 b	 b	 n.a.	 3.092091e-01
2	 1	 115	 flanked	 rf	 4	 0.275000	 2.000000	 flanked_rf_freq_4_amplitude_0.275_rep_1_l_N_2.0.png	 N	 l	 b	 n.a.	 3.247047e-01
2	 1	 116	 flanked	 rf	 4	 0.500000	 2.000000	 flanked_rf_freq_4_amplitude_0.5_rep_9_b_H_2.0.png	 H	 b	 b	 n.a.	 2.830199e-01
2	 1	 117	 flanked	 rf	 4	 0.425000	 2.000000	 flanked_rf_freq_4_amplitude_0.425_rep_6_r_K_2.0.png	 K	 r	 r	 n.a.	 3.092235e-01
2	 1	 118	 flanked	 rf	 4	 0.125000	 2.000000	 flanked_rf_freq_4_amplitude_0.125_rep_1_r_D_2.0.png	 D	 r	 b	 n.a.	 4.641568e-01
2	 1	 119	 flanked	 rf	 4	 0.200000	 2.000000	 flanked_rf_freq_4_amplitude_0.2_rep_6_b_H_2.0.png	 H	 b	 b	 n.a.	 3.171618e-01
2	 1	 120	 flanked	 rf	 4	 0.425000	 2.000000	 flanked_rf_freq_4_amplitude_0.425_rep_7_b_N_2.0.png	 N	 b	 b	 n.a.	 3.122258e-01
2	 1	 121	 flanked	 rf	 4	 0.350000	 2.000000	 flanked_rf_freq_4_amplitude_0.35_rep_0_r_N_2.0.png	 N	 r	 r	 n.a.	 3.705972e-01
2	 1	 122	 flanked	 rf	 4	 0.125000	 2.000000	 flanked_rf_freq_4_amplitude_0.125_rep_0_r_N_2.0.png	 N	 r	 b	 n.a.	 3.709394e-01
2	 1	 123	 flanked	 rf	 4	 0.200000	 2.000000	 flanked_rf_freq_4_amplitude_0.2_rep_6_b_H_2.0.png	 H	 b	 b	 n.a.	 2.825872e-01
2	 1	 124	 flanked	 rf	 4	 0.500000	 2.000000	 flanked_rf_freq_4_amplitude_0.5_rep_0_t_D_2.0.png	 D	 t	 t	 n.a.	 4.134167e-01
2	 1	 125	 flanked	 rf	 4	 0.425000	 2.000000	 flanked_rf_freq_4_amplitude_0.425_rep_6_r_K_2.0.png	 K	 r	 r	 n.a.	 3.032470e-01
2	 1	 126	 flanked	 rf	 4	 0.275000	 2.000000	 flanked_rf_freq_4_amplitude_0.275_rep_4_l_D_2.0.png	 D	 l	 b	 n.a.	 2.800119e-01
2	 1	 127	 flanked	 rf	 4	 0.125000	 2.000000	 flanked_rf_freq_4_amplitude_0.125_rep_8_t_H_2.0.png	 H	 t	 b	 n.a.	 3.389568e-01
2	 1	 128	 flanked	 rf	 4	 0.200000	 2.000000	 flanked_rf_freq_4_amplitude_0.2_rep_7_b_K_2.0.png	 K	 b	 b	 n.a.	 2.757400e-01
2	 1	 129	 flanked	 rf	 4	 0.425000	 2.000000	 flanked_rf_freq_4_amplitude_0.425_rep_3_b_H_2.0.png	 H	 b	 b	 n.a.	 2.927281e-01
2	 1	 130	 flanked	 rf	 4	 0.425000	 2.000000	 flanked_rf_freq_4_amplitude_0.425_rep_1_l_D_2.0.png	 D	 l	 l	 n.a.	 3.086796e-01
2	 1	 131	 flanked	 rf	 4	 0.275000	 2.000000	 flanked_rf_freq_4_amplitude_0.275_rep_1_l_N_2.0.png	 N	 l	 l	 n.a.	 6.205113e-01
2	 1	 132	 flanked	 rf	 4	 0.275000	 2.000000	 flanked_rf_freq_4_amplitude_0.275_rep_7_r_D_2.0.png	 D	 r	 r	 n.a.	 3.185664e-01
2	 1	 133	 flanked	 rf	 4	 0.350000	 2.000000	 flanked_rf_freq_4_amplitude_0.35_rep_0_r_N_2.0.png	 N	 r	 b	 n.a.	 3.962336e-01
2	 1	 134	 flanked	 rf	 4	 0.425000	 2.000000	 flanked_rf_freq_4_amplitude_0.425_rep_1_l_D_2.0.png	 D	 l	 l	 n.a.	 3.824550e-01
2	 1	 135	 flanked	 rf	 4	 0.425000	 2.000000	 flanked_rf_freq_4_amplitude_0.425_rep_8_r_K_2.0.png	 K	 r	 r	 n.a.	 3.329582e-01
2	 1	 136	 flanked	 rf	 4	 0.200000	 2.000000	 flanked_rf_freq_4_amplitude_0.2_rep_0_t_K_2.0.png	 K	 t	 t	 n.a.	 4.582358e-01
2	 1	 137	 flanked	 rf	 4	 0.125000	 2.000000	 flanked_rf_freq_4_amplitude_0.125_rep_7_b_D_2.0.png	 D	 b	 b	 n.a.	 4.140505e-01
2	 1	 138	 flanked	 rf	 4	 0.350000	 2.000000	 flanked_rf_freq_4_amplitude_0.35_rep_2_r_D_2.0.png	 D	 r	 r	 n.a.	 5.237494e-01
2	 1	 139	 flanked	 rf	 4	 0.350000	 2.000000	 flanked_rf_freq_4_amplitude_0.35_rep_3_l_H_2.0.png	 H	 l	 l	 n.a.	 4.239771e-01
2	 1	 140	 flanked	 rf	 4	 0.425000	 2.000000	 flanked_rf_freq_4_amplitude_0.425_rep_3_b_H_2.0.png	 H	 b	 b	 n.a.	 3.397669e-01
2	 1	 141	 flanked	 rf	 4	 0.200000	 2.000000	 flanked_rf_freq_4_amplitude_0.2_rep_7_b_K_2.0.png	 K	 b	 b	 n.a.	 3.948282e-01
2	 1	 142	 flanked	 rf	 4	 0.350000	 2.000000	 flanked_rf_freq_4_amplitude_0.35_rep_1_b_N_2.0.png	 N	 b	 b	 n.a.	 3.312302e-01
2	 1	 143	 flanked	 rf	 4	 0.050000	 2.000000	 flanked_rf_freq_4_amplitude_0.05_rep_2_r_H_2.0.png	 H	 r	 b	 n.a.	 3.262114e-01
2	 1	 144	 flanked	 rf	 4	 0.200000	 2.000000	 flanked_rf_freq_4_amplitude_0.2_rep_9_b_H_2.0.png	 H	 b	 b	 n.a.	 3.317292e-01
2	 1	 145	 flanked	 rf	 4	 0.500000	 2.000000	 flanked_rf_freq_4_amplitude_0.5_rep_3_r_N_2.0.png	 N	 r	 r	 n.a.	 2.487351e-01
2	 1	 146	 flanked	 rf	 4	 0.425000	 2.000000	 flanked_rf_freq_4_amplitude_0.425_rep_9_r_H_2.0.png	 H	 r	 r	 n.a.	 2.946525e-01
2	 1	 147	 flanked	 rf	 4	 0.200000	 2.000000	 flanked_rf_freq_4_amplitude_0.2_rep_4_b_D_2.0.png	 D	 b	 b	 n.a.	 3.174432e-01
2	 1	 148	 flanked	 rf	 4	 0.500000	 2.000000	 flanked_rf_freq_4_amplitude_0.5_rep_7_l_N_2.0.png	 N	 l	 l	 n.a.	 2.872765e-01
2	 1	 149	 flanked	 rf	 4	 0.500000	 2.000000	 flanked_rf_freq_4_amplitude_0.5_rep_7_l_N_2.0.png	 N	 l	 l	 n.a.	 3.365733e-01
2	 1	 150	 flanked	 rf	 4	 0.500000	 2.000000	 flanked_rf_freq_4_amplitude_0.5_rep_5_l_N_2.0.png	 N	 l	 l	 n.a.	 3.021026e-01
2	 1	 151	 flanked	 rf	 4	 0.500000	 2.000000	 flanked_rf_freq_4_amplitude_0.5_rep_1_r_D_2.0.png	 D	 r	 r	 n.a.	 2.565495e-01
2	 1	 152	 flanked	 rf	 4	 0.350000	 2.000000	 flanked_rf_freq_4_amplitude_0.35_rep_8_l_D_2.0.png	 D	 l	 l	 n.a.	 2.647791e-01
2	 1	 153	 flanked	 rf	 4	 0.050000	 2.000000	 flanked_rf_freq_4_amplitude_0.05_rep_5_r_H_2.0.png	 H	 r	 b	 n.a.	 3.005448e-01
2	 1	 154	 flanked	 rf	 4	 0.425000	 2.000000	 flanked_rf_freq_4_amplitude_0.425_rep_4_t_D_2.0.png	 D	 t	 t	 n.a.	 3.674926e-01
2	 1	 155	 flanked	 rf	 4	 0.200000	 2.000000	 flanked_rf_freq_4_amplitude_0.2_rep_7_b_K_2.0.png	 K	 b	 b	 n.a.	 2.614739e-01
2	 1	 156	 flanked	 rf	 4	 0.200000	 2.000000	 flanked_rf_freq_4_amplitude_0.2_rep_2_l_K_2.0.png	 K	 l	 l	 n.a.	 2.936697e-01
2	 1	 157	 flanked	 rf	 4	 0.350000	 2.000000	 flanked_rf_freq_4_amplitude_0.35_rep_5_t_D_2.0.png	 D	 t	 t	 n.a.	 3.613556e-01
2	 1	 158	 flanked	 rf	 4	 0.500000	 2.000000	 flanked_rf_freq_4_amplitude_0.5_rep_3_r_N_2.0.png	 N	 r	 r	 n.a.	 2.950028e-01
2	 1	 159	 flanked	 rf	 4	 0.425000	 2.000000	 flanked_rf_freq_4_amplitude_0.425_rep_0_l_N_2.0.png	 N	 l	 l	 n.a.	 2.625568e-01
2	 1	 160	 flanked	 rf	 4	 0.275000	 2.000000	 flanked_rf_freq_4_amplitude_0.275_rep_9_r_D_2.0.png	 D	 r	 r	 n.a.	 2.852533e-01
2	 1	 161	 flanked	 rf	 4	 0.050000	 2.000000	 flanked_rf_freq_4_amplitude_0.05_rep_1_t_D_2.0.png	 D	 t	 r	 n.a.	 4.428505e-01
2	 1	 162	 flanked	 rf	 4	 0.200000	 2.000000	 flanked_rf_freq_4_amplitude_0.2_rep_4_b_D_2.0.png	 D	 b	 b	 n.a.	 2.982245e-01
2	 1	 163	 flanked	 rf	 4	 0.050000	 2.000000	 flanked_rf_freq_4_amplitude_0.05_rep_9_r_H_2.0.png	 H	 r	 b	 n.a.	 3.344276e-01
2	 1	 164	 flanked	 rf	 4	 0.500000	 2.000000	 flanked_rf_freq_4_amplitude_0.5_rep_6_t_D_2.0.png	 D	 t	 t	 n.a.	 3.386163e-01
2	 1	 165	 flanked	 rf	 4	 0.125000	 2.000000	 flanked_rf_freq_4_amplitude_0.125_rep_2_l_N_2.0.png	 N	 l	 t	 n.a.	 4.512313e-01
2	 1	 166	 flanked	 rf	 4	 0.200000	 2.000000	 flanked_rf_freq_4_amplitude_0.2_rep_0_t_K_2.0.png	 K	 t	 t	 n.a.	 6.661102e-01
2	 1	 167	 flanked	 rf	 4	 0.500000	 2.000000	 flanked_rf_freq_4_amplitude_0.5_rep_2_l_N_2.0.png	 N	 l	 l	 n.a.	 3.161454e-01
2	 1	 168	 flanked	 rf	 4	 0.500000	 2.000000	 flanked_rf_freq_4_amplitude_0.5_rep_1_r_D_2.0.png	 D	 r	 r	 n.a.	 2.831708e-01
2	 1	 169	 flanked	 rf	 4	 0.050000	 2.000000	 flanked_rf_freq_4_amplitude_0.05_rep_6_b_N_2.0.png	 N	 b	 b	 n.a.	 3.720024e-01
2	 1	 170	 flanked	 rf	 4	 0.275000	 2.000000	 flanked_rf_freq_4_amplitude_0.275_rep_3_t_H_2.0.png	 H	 t	 t	 n.a.	 4.284440e-01
2	 1	 171	 flanked	 rf	 4	 0.425000	 2.000000	 flanked_rf_freq_4_amplitude_0.425_rep_8_r_K_2.0.png	 K	 r	 r	 n.a.	 2.312626e-01
2	 1	 172	 flanked	 rf	 4	 0.425000	 2.000000	 flanked_rf_freq_4_amplitude_0.425_rep_0_l_N_2.0.png	 N	 l	 l	 n.a.	 3.217665e-01
2	 1	 173	 flanked	 rf	 4	 0.350000	 2.000000	 flanked_rf_freq_4_amplitude_0.35_rep_7_b_N_2.0.png	 N	 b	 b	 n.a.	 2.938847e-01
2	 1	 174	 flanked	 rf	 4	 0.125000	 2.000000	 flanked_rf_freq_4_amplitude_0.125_rep_8_t_H_2.0.png	 H	 t	 b	 n.a.	 3.217974e-01
2	 1	 175	 flanked	 rf	 4	 0.350000	 2.000000	 flanked_rf_freq_4_amplitude_0.35_rep_4_r_H_2.0.png	 H	 r	 r	 n.a.	 2.907094e-01
2	 1	 176	 flanked	 rf	 4	 0.350000	 2.000000	 flanked_rf_freq_4_amplitude_0.35_rep_6_b_N_2.0.png	 N	 b	 b	 n.a.	 3.520591e-01
2	 1	 177	 flanked	 rf	 4	 0.125000	 2.000000	 flanked_rf_freq_4_amplitude_0.125_rep_5_r_D_2.0.png	 D	 r	 t	 n.a.	 5.651201e-01
2	 1	 178	 flanked	 rf	 4	 0.200000	 2.000000	 flanked_rf_freq_4_amplitude_0.2_rep_3_t_N_2.0.png	 N	 t	 b	 n.a.	 3.663654e-01
2	 1	 179	 flanked	 rf	 4	 0.200000	 2.000000	 flanked_rf_freq_4_amplitude_0.2_rep_1_r_H_2.0.png	 H	 r	 b	 n.a.	 4.136083e-01
2	 1	 180	 flanked	 rf	 4	 0.050000	 2.000000	 flanked_rf_freq_4_amplitude_0.05_rep_5_r_H_2.0.png	 H	 r	 r	 n.a.	 3.120321e-01
2	 1	 181	 flanked	 rf	 4	 0.200000	 2.000000	 flanked_rf_freq_4_amplitude_0.2_rep_3_t_N_2.0.png	 N	 t	 l	 n.a.	 5.901071e-01
2	 1	 182	 flanked	 rf	 4	 0.275000	 2.000000	 flanked_rf_freq_4_amplitude_0.275_rep_7_r_D_2.0.png	 D	 r	 r	 n.a.	 3.071593e-01
2	 1	 183	 flanked	 rf	 4	 0.425000	 2.000000	 flanked_rf_freq_4_amplitude_0.425_rep_6_r_K_2.0.png	 K	 r	 r	 n.a.	 2.872397e-01
2	 1	 184	 flanked	 rf	 4	 0.275000	 2.000000	 flanked_rf_freq_4_amplitude_0.275_rep_0_b_D_2.0.png	 D	 b	 b	 n.a.	 3.443063e-01
2	 1	 185	 flanked	 rf	 4	 0.125000	 2.000000	 flanked_rf_freq_4_amplitude_0.125_rep_2_l_N_2.0.png	 N	 l	 r	 n.a.	 4.166526e-01
2	 1	 186	 flanked	 rf	 4	 0.050000	 2.000000	 flanked_rf_freq_4_amplitude_0.05_rep_8_l_N_2.0.png	 N	 l	 r	 n.a.	 4.372995e-01
2	 1	 187	 flanked	 rf	 4	 0.350000	 2.000000	 flanked_rf_freq_4_amplitude_0.35_rep_9_r_H_2.0.png	 H	 r	 r	 n.a.	 3.482867e-01
2	 1	 188	 flanked	 rf	 4	 0.050000	 2.000000	 flanked_rf_freq_4_amplitude_0.05_rep_5_r_H_2.0.png	 H	 r	 b	 n.a.	 4.498343e-01
2	 1	 189	 flanked	 rf	 4	 0.125000	 2.000000	 flanked_rf_freq_4_amplitude_0.125_rep_4_t_N_2.0.png	 N	 t	 b	 n.a.	 6.469430e-01
2	 1	 190	 flanked	 rf	 4	 0.050000	 2.000000	 flanked_rf_freq_4_amplitude_0.05_rep_7_r_N_2.0.png	 N	 r	 l	 n.a.	 4.648489e-01
2	 1	 191	 flanked	 rf	 4	 0.350000	 2.000000	 flanked_rf_freq_4_amplitude_0.35_rep_7_b_N_2.0.png	 N	 b	 b	 n.a.	 3.411307e-01
2	 1	 192	 flanked	 rf	 4	 0.050000	 2.000000	 flanked_rf_freq_4_amplitude_0.05_rep_7_r_N_2.0.png	 N	 r	 l	 n.a.	 5.938931e-01
2	 1	 193	 flanked	 rf	 4	 0.350000	 2.000000	 flanked_rf_freq_4_amplitude_0.35_rep_8_l_D_2.0.png	 D	 l	 l	 n.a.	 4.090958e-01
2	 1	 194	 flanked	 rf	 4	 0.050000	 2.000000	 flanked_rf_freq_4_amplitude_0.05_rep_3_r_K_2.0.png	 K	 r	 b	 n.a.	 4.187767e-01
2	 1	 195	 flanked	 rf	 4	 0.200000	 2.000000	 flanked_rf_freq_4_amplitude_0.2_rep_1_r_H_2.0.png	 H	 r	 b	 n.a.	 3.884288e-01
2	 1	 196	 flanked	 rf	 4	 0.425000	 2.000000	 flanked_rf_freq_4_amplitude_0.425_rep_8_r_K_2.0.png	 K	 r	 r	 n.a.	 2.594071e-01
2	 1	 197	 flanked	 rf	 4	 0.200000	 2.000000	 flanked_rf_freq_4_amplitude_0.2_rep_4_b_D_2.0.png	 D	 b	 b	 n.a.	 3.162435e-01
2	 1	 198	 flanked	 rf	 4	 0.275000	 2.000000	 flanked_rf_freq_4_amplitude_0.275_rep_6_b_K_2.0.png	 K	 b	 b	 n.a.	 3.611371e-01
2	 1	 199	 flanked	 rf	 4	 0.050000	 2.000000	 flanked_rf_freq_4_amplitude_0.05_rep_4_r_K_2.0.png	 K	 r	 b	 n.a.	 4.086805e-01
2	 1	 200	 flanked	 rf	 4	 0.275000	 2.000000	 flanked_rf_freq_4_amplitude_0.275_rep_5_r_K_2.0.png	 K	 r	 b	 n.a.	 5.675094e-01
2	 1	 201	 flanked	 rf	 4	 0.125000	 2.000000	 flanked_rf_freq_4_amplitude_0.125_rep_2_l_N_2.0.png	 N	 l	 l	 n.a.	 6.282210e-01
2	 1	 202	 flanked	 rf	 4	 0.125000	 2.000000	 flanked_rf_freq_4_amplitude_0.125_rep_9_l_K_2.0.png	 K	 l	 l	 n.a.	 6.678691e-01
2	 1	 203	 flanked	 rf	 4	 0.350000	 2.000000	 flanked_rf_freq_4_amplitude_0.35_rep_5_t_D_2.0.png	 D	 t	 t	 n.a.	 6.589493e-01
2	 1	 204	 flanked	 rf	 4	 0.275000	 2.000000	 flanked_rf_freq_4_amplitude_0.275_rep_2_r_H_2.0.png	 H	 r	 r	 n.a.	 6.876764e-01
2	 1	 205	 flanked	 rf	 4	 0.200000	 2.000000	 flanked_rf_freq_4_amplitude_0.2_rep_2_l_K_2.0.png	 K	 l	 l	 n.a.	 4.306478e-01
2	 1	 206	 flanked	 rf	 4	 0.425000	 2.000000	 flanked_rf_freq_4_amplitude_0.425_rep_5_b_D_2.0.png	 D	 b	 b	 n.a.	 7.523193e-01
2	 1	 207	 flanked	 rf	 4	 0.350000	 2.000000	 flanked_rf_freq_4_amplitude_0.35_rep_2_r_D_2.0.png	 D	 r	 r	 n.a.	 4.134873e-01
2	 1	 208	 flanked	 rf	 4	 0.125000	 2.000000	 flanked_rf_freq_4_amplitude_0.125_rep_6_t_D_2.0.png	 D	 t	 l	 n.a.	 5.146485e-01
2	 1	 209	 flanked	 rf	 4	 0.050000	 2.000000	 flanked_rf_freq_4_amplitude_0.05_rep_1_t_D_2.0.png	 D	 t	 b	 n.a.	 6.063941e-01
2	 1	 210	 flanked	 rf	 4	 0.425000	 2.000000	 flanked_rf_freq_4_amplitude_0.425_rep_9_r_H_2.0.png	 H	 r	 r	 n.a.	 3.887340e-01
