subject	 session	 trial	 flanked	 distortion	 freq	 amplitude	 spacing	 im_name	 targ_letter	 targ_pos	 response	 eyemovement	 RT
2	 1	 1	 flanked	 bex	 4	 3.000000	 2.000000	 flanked_bex_freq_4_amplitude_3_rep_2_r_K_2.0.png	 K	 r	 b	 n.a.	 7.583771e-01
2	 1	 2	 flanked	 bex	 4	 1.000000	 2.000000	 flanked_bex_freq_4_amplitude_1_rep_3_r_N_2.0.png	 N	 r	 b	 n.a.	 4.823284e-01
2	 1	 3	 flanked	 bex	 4	 5.000000	 2.000000	 flanked_bex_freq_4_amplitude_5_rep_2_l_D_2.0.png	 D	 l	 l	 n.a.	 3.406234e-01
2	 1	 4	 flanked	 bex	 4	 4.000000	 2.000000	 flanked_bex_freq_4_amplitude_4_rep_0_t_N_2.0.png	 N	 t	 b	 n.a.	 3.451006e-01
2	 1	 5	 flanked	 bex	 4	 3.000000	 2.000000	 flanked_bex_freq_4_amplitude_3_rep_0_t_K_2.0.png	 K	 t	 b	 n.a.	 4.373911e-01
2	 1	 6	 flanked	 bex	 4	 1.000000	 2.000000	 flanked_bex_freq_4_amplitude_1_rep_8_r_N_2.0.png	 N	 r	 b	 n.a.	 4.352861e-01
2	 1	 7	 flanked	 bex	 4	 6.000000	 2.000000	 flanked_bex_freq_4_amplitude_6_rep_9_b_D_2.0.png	 D	 b	 b	 n.a.	 3.988067e-01
2	 1	 8	 flanked	 bex	 4	 6.000000	 2.000000	 flanked_bex_freq_4_amplitude_6_rep_8_l_D_2.0.png	 D	 l	 l	 n.a.	 3.493884e-01
2	 1	 9	 flanked	 bex	 4	 2.000000	 2.000000	 flanked_bex_freq_4_amplitude_2_rep_8_r_K_2.0.png	 K	 r	 t	 n.a.	 2.888883e-01
2	 1	 10	 flanked	 bex	 4	 2.000000	 2.000000	 flanked_bex_freq_4_amplitude_2_rep_1_l_D_2.0.png	 D	 l	 r	 n.a.	 2.594119e-01
2	 1	 11	 flanked	 bex	 4	 3.000000	 2.000000	 flanked_bex_freq_4_amplitude_3_rep_6_t_N_2.0.png	 N	 t	 b	 n.a.	 2.574852e-01
2	 1	 12	 flanked	 bex	 4	 1.000000	 2.000000	 flanked_bex_freq_4_amplitude_1_rep_9_t_D_2.0.png	 D	 t	 l	 n.a.	 1.805471e-01
2	 1	 13	 flanked	 bex	 4	 1.000000	 2.000000	 flanked_bex_freq_4_amplitude_1_rep_0_b_D_2.0.png	 D	 b	 b	 n.a.	 2.666269e-01
2	 1	 14	 flanked	 bex	 4	 6.000000	 2.000000	 flanked_bex_freq_4_amplitude_6_rep_5_t_D_2.0.png	 D	 t	 t	 n.a.	 3.933010e-01
2	 1	 15	 flanked	 bex	 4	 5.000000	 2.000000	 flanked_bex_freq_4_amplitude_5_rep_4_t_D_2.0.png	 D	 t	 l	 n.a.	 3.379724e-01
2	 1	 16	 flanked	 bex	 4	 1.000000	 2.000000	 flanked_bex_freq_4_amplitude_1_rep_2_l_N_2.0.png	 N	 l	 r	 n.a.	 1.913260e-01
2	 1	 17	 flanked	 bex	 4	 1.000000	 2.000000	 flanked_bex_freq_4_amplitude_1_rep_7_t_D_2.0.png	 D	 t	 b	 n.a.	 3.104689e-01
2	 1	 18	 flanked	 bex	 4	 3.000000	 2.000000	 flanked_bex_freq_4_amplitude_3_rep_7_b_H_2.0.png	 H	 b	 l	 n.a.	 2.867688e-01
2	 1	 19	 flanked	 bex	 4	 3.000000	 2.000000	 flanked_bex_freq_4_amplitude_3_rep_2_r_K_2.0.png	 K	 r	 t	 n.a.	 1.718791e-01
2	 1	 20	 flanked	 bex	 4	 5.000000	 2.000000	 flanked_bex_freq_4_amplitude_5_rep_5_b_N_2.0.png	 N	 b	 b	 n.a.	 1.409863e-01
2	 1	 21	 flanked	 bex	 4	 4.000000	 2.000000	 flanked_bex_freq_4_amplitude_4_rep_4_b_D_2.0.png	 D	 b	 l	 n.a.	 2.373893e-01
2	 1	 22	 flanked	 bex	 4	 5.000000	 2.000000	 flanked_bex_freq_4_amplitude_5_rep_8_b_N_2.0.png	 N	 b	 r	 n.a.	 2.399725e-01
2	 1	 23	 flanked	 bex	 4	 3.000000	 2.000000	 flanked_bex_freq_4_amplitude_3_rep_5_t_N_2.0.png	 N	 t	 b	 n.a.	 2.036600e-01
2	 1	 24	 flanked	 bex	 4	 6.000000	 2.000000	 flanked_bex_freq_4_amplitude_6_rep_3_b_N_2.0.png	 N	 b	 b	 n.a.	 3.484226e-01
2	 1	 25	 flanked	 bex	 4	 1.000000	 2.000000	 flanked_bex_freq_4_amplitude_1_rep_4_l_N_2.0.png	 N	 l	 b	 n.a.	 2.949402e-01
2	 1	 26	 flanked	 bex	 4	 4.000000	 2.000000	 flanked_bex_freq_4_amplitude_4_rep_0_t_N_2.0.png	 N	 t	 t	 n.a.	 4.237415e-01
2	 1	 27	 flanked	 bex	 4	 7.000000	 2.000000	 flanked_bex_freq_4_amplitude_7_rep_9_r_D_2.0.png	 D	 r	 r	 n.a.	 2.994184e-01
2	 1	 28	 flanked	 bex	 4	 7.000000	 2.000000	 flanked_bex_freq_4_amplitude_7_rep_7_r_N_2.0.png	 N	 r	 r	 n.a.	 2.709498e-01
2	 1	 29	 flanked	 bex	 4	 5.000000	 2.000000	 flanked_bex_freq_4_amplitude_5_rep_7_t_N_2.0.png	 N	 t	 t	 n.a.	 3.584092e-01
2	 1	 30	 flanked	 bex	 4	 7.000000	 2.000000	 flanked_bex_freq_4_amplitude_7_rep_2_t_N_2.0.png	 N	 t	 t	 n.a.	 3.358191e-01
2	 1	 31	 flanked	 bex	 4	 7.000000	 2.000000	 flanked_bex_freq_4_amplitude_7_rep_3_l_N_2.0.png	 N	 l	 l	 n.a.	 2.821543e-01
2	 1	 32	 flanked	 bex	 4	 2.000000	 2.000000	 flanked_bex_freq_4_amplitude_2_rep_0_r_K_2.0.png	 K	 r	 t	 n.a.	 4.646463e-01
2	 1	 33	 flanked	 bex	 4	 6.000000	 2.000000	 flanked_bex_freq_4_amplitude_6_rep_6_r_H_2.0.png	 H	 r	 t	 n.a.	 4.906465e-01
2	 1	 34	 flanked	 bex	 4	 6.000000	 2.000000	 flanked_bex_freq_4_amplitude_6_rep_3_b_N_2.0.png	 N	 b	 b	 n.a.	 2.275346e-01
2	 1	 35	 flanked	 bex	 4	 3.000000	 2.000000	 flanked_bex_freq_4_amplitude_3_rep_1_t_N_2.0.png	 N	 t	 b	 n.a.	 3.447251e-01
2	 1	 36	 flanked	 bex	 4	 6.000000	 2.000000	 flanked_bex_freq_4_amplitude_6_rep_9_b_D_2.0.png	 D	 b	 b	 n.a.	 2.957976e-01
2	 1	 37	 flanked	 bex	 4	 7.000000	 2.000000	 flanked_bex_freq_4_amplitude_7_rep_2_t_N_2.0.png	 N	 t	 t	 n.a.	 3.232163e-01
2	 1	 38	 flanked	 bex	 4	 2.000000	 2.000000	 flanked_bex_freq_4_amplitude_2_rep_4_r_D_2.0.png	 D	 r	 t	 n.a.	 6.483834e-01
2	 1	 39	 flanked	 bex	 4	 5.000000	 2.000000	 flanked_bex_freq_4_amplitude_5_rep_3_b_K_2.0.png	 K	 b	 b	 n.a.	 2.965264e-01
2	 1	 40	 flanked	 bex	 4	 2.000000	 2.000000	 flanked_bex_freq_4_amplitude_2_rep_7_l_N_2.0.png	 N	 l	 b	 n.a.	 3.333883e-01
2	 1	 41	 flanked	 bex	 4	 2.000000	 2.000000	 flanked_bex_freq_4_amplitude_2_rep_5_b_D_2.0.png	 D	 b	 l	 n.a.	 3.592974e-01
2	 1	 42	 flanked	 bex	 4	 2.000000	 2.000000	 flanked_bex_freq_4_amplitude_2_rep_6_t_N_2.0.png	 N	 t	 t	 n.a.	 3.911441e-01
2	 1	 43	 flanked	 bex	 4	 4.000000	 2.000000	 flanked_bex_freq_4_amplitude_4_rep_8_l_N_2.0.png	 N	 l	 l	 n.a.	 3.908038e-01
2	 1	 44	 flanked	 bex	 4	 4.000000	 2.000000	 flanked_bex_freq_4_amplitude_4_rep_6_t_D_2.0.png	 D	 t	 t	 n.a.	 3.565796e-01
2	 1	 45	 flanked	 bex	 4	 5.000000	 2.000000	 flanked_bex_freq_4_amplitude_5_rep_7_t_N_2.0.png	 N	 t	 t	 n.a.	 3.143437e-01
2	 1	 46	 flanked	 bex	 4	 6.000000	 2.000000	 flanked_bex_freq_4_amplitude_6_rep_4_b_D_2.0.png	 D	 b	 b	 n.a.	 2.330835e-01
2	 1	 47	 flanked	 bex	 4	 3.000000	 2.000000	 flanked_bex_freq_4_amplitude_3_rep_3_t_K_2.0.png	 K	 t	 t	 n.a.	 3.722784e-01
2	 1	 48	 flanked	 bex	 4	 2.000000	 2.000000	 flanked_bex_freq_4_amplitude_2_rep_1_l_D_2.0.png	 D	 l	 l	 n.a.	 3.488482e-01
2	 1	 49	 flanked	 bex	 4	 7.000000	 2.000000	 flanked_bex_freq_4_amplitude_7_rep_5_r_H_2.0.png	 H	 r	 r	 n.a.	 2.768254e-01
2	 1	 50	 flanked	 bex	 4	 2.000000	 2.000000	 flanked_bex_freq_4_amplitude_2_rep_7_l_N_2.0.png	 N	 l	 b	 n.a.	 2.511163e-01
2	 1	 51	 flanked	 bex	 4	 3.000000	 2.000000	 flanked_bex_freq_4_amplitude_3_rep_6_t_N_2.0.png	 N	 t	 t	 n.a.	 4.631800e-01
2	 1	 52	 flanked	 bex	 4	 6.000000	 2.000000	 flanked_bex_freq_4_amplitude_6_rep_4_b_D_2.0.png	 D	 b	 b	 n.a.	 3.418145e-01
2	 1	 53	 flanked	 bex	 4	 1.000000	 2.000000	 flanked_bex_freq_4_amplitude_1_rep_2_l_N_2.0.png	 N	 l	 b	 n.a.	 3.265969e-01
2	 1	 54	 flanked	 bex	 4	 7.000000	 2.000000	 flanked_bex_freq_4_amplitude_7_rep_7_r_N_2.0.png	 N	 r	 r	 n.a.	 2.435006e-01
2	 1	 55	 flanked	 bex	 4	 5.000000	 2.000000	 flanked_bex_freq_4_amplitude_5_rep_1_t_N_2.0.png	 N	 t	 t	 n.a.	 3.996628e-01
2	 1	 56	 flanked	 bex	 4	 2.000000	 2.000000	 flanked_bex_freq_4_amplitude_2_rep_0_r_K_2.0.png	 K	 r	 r	 n.a.	 3.977734e-01
2	 1	 57	 flanked	 bex	 4	 5.000000	 2.000000	 flanked_bex_freq_4_amplitude_5_rep_6_r_H_2.0.png	 H	 r	 r	 n.a.	 2.522137e-01
2	 1	 58	 flanked	 bex	 4	 5.000000	 2.000000	 flanked_bex_freq_4_amplitude_5_rep_0_b_H_2.0.png	 H	 b	 b	 n.a.	 2.673208e-01
2	 1	 59	 flanked	 bex	 4	 7.000000	 2.000000	 flanked_bex_freq_4_amplitude_7_rep_3_l_N_2.0.png	 N	 l	 l	 n.a.	 2.981465e-01
2	 1	 60	 flanked	 bex	 4	 4.000000	 2.000000	 flanked_bex_freq_4_amplitude_4_rep_9_r_H_2.0.png	 H	 r	 r	 n.a.	 3.526873e-01
2	 1	 61	 flanked	 bex	 4	 5.000000	 2.000000	 flanked_bex_freq_4_amplitude_5_rep_5_b_N_2.0.png	 N	 b	 b	 n.a.	 3.426712e-01
2	 1	 62	 flanked	 bex	 4	 2.000000	 2.000000	 flanked_bex_freq_4_amplitude_2_rep_8_r_K_2.0.png	 K	 r	 b	 n.a.	 2.952427e-01
2	 1	 63	 flanked	 bex	 4	 4.000000	 2.000000	 flanked_bex_freq_4_amplitude_4_rep_4_b_D_2.0.png	 D	 b	 t	 n.a.	 3.915367e-01
2	 1	 64	 flanked	 bex	 4	 1.000000	 2.000000	 flanked_bex_freq_4_amplitude_1_rep_1_b_D_2.0.png	 D	 b	 b	 n.a.	 3.187746e-01
2	 1	 65	 flanked	 bex	 4	 5.000000	 2.000000	 flanked_bex_freq_4_amplitude_5_rep_4_t_D_2.0.png	 D	 t	 t	 n.a.	 5.330752e-01
2	 1	 66	 flanked	 bex	 4	 5.000000	 2.000000	 flanked_bex_freq_4_amplitude_5_rep_7_t_N_2.0.png	 N	 t	 t	 n.a.	 4.538931e-01
2	 1	 67	 flanked	 bex	 4	 6.000000	 2.000000	 flanked_bex_freq_4_amplitude_6_rep_9_b_D_2.0.png	 D	 b	 b	 n.a.	 2.297517e-01
2	 1	 68	 flanked	 bex	 4	 7.000000	 2.000000	 flanked_bex_freq_4_amplitude_7_rep_2_t_N_2.0.png	 N	 t	 t	 n.a.	 3.249183e-01
2	 1	 69	 flanked	 bex	 4	 6.000000	 2.000000	 flanked_bex_freq_4_amplitude_6_rep_6_r_H_2.0.png	 H	 r	 r	 n.a.	 4.209837e-01
2	 1	 70	 flanked	 bex	 4	 1.000000	 2.000000	 flanked_bex_freq_4_amplitude_1_rep_1_b_D_2.0.png	 D	 b	 t	 n.a.	 6.374333e-01
2	 1	 71	 flanked	 bex	 4	 5.000000	 2.000000	 flanked_bex_freq_4_amplitude_5_rep_8_b_N_2.0.png	 N	 b	 b	 n.a.	 3.889123e-01
2	 1	 72	 flanked	 bex	 4	 6.000000	 2.000000	 flanked_bex_freq_4_amplitude_6_rep_5_t_D_2.0.png	 D	 t	 t	 n.a.	 3.618423e-01
2	 1	 73	 flanked	 bex	 4	 5.000000	 2.000000	 flanked_bex_freq_4_amplitude_5_rep_3_b_K_2.0.png	 K	 b	 b	 n.a.	 2.616430e-01
2	 1	 74	 flanked	 bex	 4	 4.000000	 2.000000	 flanked_bex_freq_4_amplitude_4_rep_5_l_H_2.0.png	 H	 l	 l	 n.a.	 3.021675e-01
2	 1	 75	 flanked	 bex	 4	 1.000000	 2.000000	 flanked_bex_freq_4_amplitude_1_rep_5_r_K_2.0.png	 K	 r	 b	 n.a.	 4.211908e-01
2	 1	 76	 flanked	 bex	 4	 3.000000	 2.000000	 flanked_bex_freq_4_amplitude_3_rep_0_t_K_2.0.png	 K	 t	 b	 n.a.	 3.760891e-01
2	 1	 77	 flanked	 bex	 4	 7.000000	 2.000000	 flanked_bex_freq_4_amplitude_7_rep_8_b_H_2.0.png	 H	 b	 b	 n.a.	 2.802740e-01
2	 1	 78	 flanked	 bex	 4	 1.000000	 2.000000	 flanked_bex_freq_4_amplitude_1_rep_6_l_D_2.0.png	 D	 l	 t	 n.a.	 6.177762e-01
2	 1	 79	 flanked	 bex	 4	 5.000000	 2.000000	 flanked_bex_freq_4_amplitude_5_rep_3_b_K_2.0.png	 K	 b	 b	 n.a.	 2.371857e-01
2	 1	 80	 flanked	 bex	 4	 5.000000	 2.000000	 flanked_bex_freq_4_amplitude_5_rep_6_r_H_2.0.png	 H	 r	 r	 n.a.	 2.964326e-01
2	 1	 81	 flanked	 bex	 4	 3.000000	 2.000000	 flanked_bex_freq_4_amplitude_3_rep_9_r_H_2.0.png	 H	 r	 r	 n.a.	 3.230994e-01
2	 1	 82	 flanked	 bex	 4	 3.000000	 2.000000	 flanked_bex_freq_4_amplitude_3_rep_4_r_H_2.0.png	 H	 r	 r	 n.a.	 2.962774e-01
2	 1	 83	 flanked	 bex	 4	 4.000000	 2.000000	 flanked_bex_freq_4_amplitude_4_rep_8_l_N_2.0.png	 N	 l	 l	 n.a.	 3.575299e-01
2	 1	 84	 flanked	 bex	 4	 1.000000	 2.000000	 flanked_bex_freq_4_amplitude_1_rep_6_l_D_2.0.png	 D	 l	 b	 n.a.	 3.361971e-01
2	 1	 85	 flanked	 bex	 4	 6.000000	 2.000000	 flanked_bex_freq_4_amplitude_6_rep_0_l_D_2.0.png	 D	 l	 l	 n.a.	 3.462654e-01
2	 1	 86	 flanked	 bex	 4	 4.000000	 2.000000	 flanked_bex_freq_4_amplitude_4_rep_5_l_H_2.0.png	 H	 l	 l	 n.a.	 3.763833e-01
2	 1	 87	 flanked	 bex	 4	 5.000000	 2.000000	 flanked_bex_freq_4_amplitude_5_rep_2_l_D_2.0.png	 D	 l	 l	 n.a.	 3.229048e-01
2	 1	 88	 flanked	 bex	 4	 3.000000	 2.000000	 flanked_bex_freq_4_amplitude_3_rep_4_r_H_2.0.png	 H	 r	 r	 n.a.	 3.767312e-01
2	 1	 89	 flanked	 bex	 4	 3.000000	 2.000000	 flanked_bex_freq_4_amplitude_3_rep_5_t_N_2.0.png	 N	 t	 t	 n.a.	 4.379290e-01
2	 1	 90	 flanked	 bex	 4	 5.000000	 2.000000	 flanked_bex_freq_4_amplitude_5_rep_4_t_D_2.0.png	 D	 t	 l	 n.a.	 5.498799e-01
2	 1	 91	 flanked	 bex	 4	 1.000000	 2.000000	 flanked_bex_freq_4_amplitude_1_rep_0_b_D_2.0.png	 D	 b	 b	 n.a.	 3.984700e-01
2	 1	 92	 flanked	 bex	 4	 1.000000	 2.000000	 flanked_bex_freq_4_amplitude_1_rep_2_l_N_2.0.png	 N	 l	 b	 n.a.	 4.486348e-01
2	 1	 93	 flanked	 bex	 4	 3.000000	 2.000000	 flanked_bex_freq_4_amplitude_3_rep_8_t_K_2.0.png	 K	 t	 t	 n.a.	 4.106922e-01
2	 1	 94	 flanked	 bex	 4	 2.000000	 2.000000	 flanked_bex_freq_4_amplitude_2_rep_9_t_N_2.0.png	 N	 t	 b	 n.a.	 5.042246e-01
2	 1	 95	 flanked	 bex	 4	 4.000000	 2.000000	 flanked_bex_freq_4_amplitude_4_rep_6_t_D_2.0.png	 D	 t	 b	 n.a.	 3.723109e-01
2	 1	 96	 flanked	 bex	 4	 4.000000	 2.000000	 flanked_bex_freq_4_amplitude_4_rep_1_b_H_2.0.png	 H	 b	 b	 n.a.	 3.091953e-01
2	 1	 97	 flanked	 bex	 4	 3.000000	 2.000000	 flanked_bex_freq_4_amplitude_3_rep_8_t_K_2.0.png	 K	 t	 l	 n.a.	 4.849066e-01
2	 1	 98	 flanked	 bex	 4	 1.000000	 2.000000	 flanked_bex_freq_4_amplitude_1_rep_8_r_N_2.0.png	 N	 r	 b	 n.a.	 3.010212e-01
2	 1	 99	 flanked	 bex	 4	 3.000000	 2.000000	 flanked_bex_freq_4_amplitude_3_rep_1_t_N_2.0.png	 N	 t	 l	 n.a.	 4.935068e-01
2	 1	 100	 flanked	 bex	 4	 6.000000	 2.000000	 flanked_bex_freq_4_amplitude_6_rep_1_t_H_2.0.png	 H	 t	 t	 n.a.	 3.832762e-01
2	 1	 101	 flanked	 bex	 4	 6.000000	 2.000000	 flanked_bex_freq_4_amplitude_6_rep_0_l_D_2.0.png	 D	 l	 l	 n.a.	 3.691755e-01
2	 1	 102	 flanked	 bex	 4	 7.000000	 2.000000	 flanked_bex_freq_4_amplitude_7_rep_9_r_D_2.0.png	 D	 r	 r	 n.a.	 2.656399e-01
2	 1	 103	 flanked	 bex	 4	 2.000000	 2.000000	 flanked_bex_freq_4_amplitude_2_rep_2_t_K_2.0.png	 K	 t	 t	 n.a.	 7.942259e-01
2	 1	 104	 flanked	 bex	 4	 6.000000	 2.000000	 flanked_bex_freq_4_amplitude_6_rep_3_b_N_2.0.png	 N	 b	 b	 n.a.	 3.314850e-01
2	 1	 105	 flanked	 bex	 4	 7.000000	 2.000000	 flanked_bex_freq_4_amplitude_7_rep_4_b_H_2.0.png	 H	 b	 b	 n.a.	 2.975384e-01
2	 1	 106	 flanked	 bex	 4	 1.000000	 2.000000	 flanked_bex_freq_4_amplitude_1_rep_5_r_K_2.0.png	 K	 r	 t	 n.a.	 4.506449e-01
2	 1	 107	 flanked	 bex	 4	 7.000000	 2.000000	 flanked_bex_freq_4_amplitude_7_rep_1_r_D_2.0.png	 D	 r	 r	 n.a.	 2.667596e-01
2	 1	 108	 flanked	 bex	 4	 7.000000	 2.000000	 flanked_bex_freq_4_amplitude_7_rep_6_l_D_2.0.png	 D	 l	 l	 n.a.	 2.368772e-01
2	 1	 109	 flanked	 bex	 4	 4.000000	 2.000000	 flanked_bex_freq_4_amplitude_4_rep_4_b_D_2.0.png	 D	 b	 b	 n.a.	 3.250253e-01
2	 1	 110	 flanked	 bex	 4	 6.000000	 2.000000	 flanked_bex_freq_4_amplitude_6_rep_8_l_D_2.0.png	 D	 l	 l	 n.a.	 2.803956e-01
2	 1	 111	 flanked	 bex	 4	 2.000000	 2.000000	 flanked_bex_freq_4_amplitude_2_rep_5_b_D_2.0.png	 D	 b	 l	 n.a.	 4.279581e-01
2	 1	 112	 flanked	 bex	 4	 3.000000	 2.000000	 flanked_bex_freq_4_amplitude_3_rep_9_r_H_2.0.png	 H	 r	 r	 n.a.	 2.838646e-01
2	 1	 113	 flanked	 bex	 4	 6.000000	 2.000000	 flanked_bex_freq_4_amplitude_6_rep_1_t_H_2.0.png	 H	 t	 t	 n.a.	 3.760846e-01
2	 1	 114	 flanked	 bex	 4	 5.000000	 2.000000	 flanked_bex_freq_4_amplitude_5_rep_1_t_N_2.0.png	 N	 t	 t	 n.a.	 3.779804e-01
2	 1	 115	 flanked	 bex	 4	 6.000000	 2.000000	 flanked_bex_freq_4_amplitude_6_rep_0_l_D_2.0.png	 D	 l	 l	 n.a.	 3.074637e-01
2	 1	 116	 flanked	 bex	 4	 7.000000	 2.000000	 flanked_bex_freq_4_amplitude_7_rep_8_b_H_2.0.png	 H	 b	 b	 n.a.	 2.331246e-01
2	 1	 117	 flanked	 bex	 4	 1.000000	 2.000000	 flanked_bex_freq_4_amplitude_1_rep_6_l_D_2.0.png	 D	 l	 b	 n.a.	 4.152927e-01
2	 1	 118	 flanked	 bex	 4	 7.000000	 2.000000	 flanked_bex_freq_4_amplitude_7_rep_4_b_H_2.0.png	 H	 b	 b	 n.a.	 4.428269e-01
2	 1	 119	 flanked	 bex	 4	 1.000000	 2.000000	 flanked_bex_freq_4_amplitude_1_rep_3_r_N_2.0.png	 N	 r	 b	 n.a.	 4.266346e-01
2	 1	 120	 flanked	 bex	 4	 2.000000	 2.000000	 flanked_bex_freq_4_amplitude_2_rep_1_l_D_2.0.png	 D	 l	 l	 n.a.	 4.036369e-01
2	 1	 121	 flanked	 bex	 4	 4.000000	 2.000000	 flanked_bex_freq_4_amplitude_4_rep_7_b_D_2.0.png	 D	 b	 b	 n.a.	 2.267341e-01
2	 1	 122	 flanked	 bex	 4	 6.000000	 2.000000	 flanked_bex_freq_4_amplitude_6_rep_2_r_N_2.0.png	 N	 r	 r	 n.a.	 2.453000e-01
2	 1	 123	 flanked	 bex	 4	 1.000000	 2.000000	 flanked_bex_freq_4_amplitude_1_rep_4_l_N_2.0.png	 N	 l	 b	 n.a.	 3.024007e-01
2	 1	 124	 flanked	 bex	 4	 7.000000	 2.000000	 flanked_bex_freq_4_amplitude_7_rep_9_r_D_2.0.png	 D	 r	 r	 n.a.	 2.612849e-01
2	 1	 125	 flanked	 bex	 4	 6.000000	 2.000000	 flanked_bex_freq_4_amplitude_6_rep_7_t_H_2.0.png	 H	 t	 t	 n.a.	 3.657968e-01
2	 1	 126	 flanked	 bex	 4	 7.000000	 2.000000	 flanked_bex_freq_4_amplitude_7_rep_5_r_H_2.0.png	 H	 r	 r	 n.a.	 2.875311e-01
2	 1	 127	 flanked	 bex	 4	 7.000000	 2.000000	 flanked_bex_freq_4_amplitude_7_rep_6_l_D_2.0.png	 D	 l	 l	 n.a.	 3.220307e-01
2	 1	 128	 flanked	 bex	 4	 2.000000	 2.000000	 flanked_bex_freq_4_amplitude_2_rep_7_l_N_2.0.png	 N	 l	 b	 n.a.	 2.991492e-01
2	 1	 129	 flanked	 bex	 4	 2.000000	 2.000000	 flanked_bex_freq_4_amplitude_2_rep_3_l_D_2.0.png	 D	 l	 t	 n.a.	 6.771752e-01
2	 1	 130	 flanked	 bex	 4	 3.000000	 2.000000	 flanked_bex_freq_4_amplitude_3_rep_3_t_K_2.0.png	 K	 t	 b	 n.a.	 2.786231e-01
2	 1	 131	 flanked	 bex	 4	 3.000000	 2.000000	 flanked_bex_freq_4_amplitude_3_rep_7_b_H_2.0.png	 H	 b	 b	 n.a.	 3.861507e-01
2	 1	 132	 flanked	 bex	 4	 3.000000	 2.000000	 flanked_bex_freq_4_amplitude_3_rep_8_t_K_2.0.png	 K	 t	 t	 n.a.	 5.404037e-01
2	 1	 133	 flanked	 bex	 4	 6.000000	 2.000000	 flanked_bex_freq_4_amplitude_6_rep_6_r_H_2.0.png	 H	 r	 r	 n.a.	 3.539367e-01
2	 1	 134	 flanked	 bex	 4	 4.000000	 2.000000	 flanked_bex_freq_4_amplitude_4_rep_8_l_N_2.0.png	 N	 l	 l	 n.a.	 3.668785e-01
2	 1	 135	 flanked	 bex	 4	 6.000000	 2.000000	 flanked_bex_freq_4_amplitude_6_rep_4_b_D_2.0.png	 D	 b	 b	 n.a.	 3.193411e-01
2	 1	 136	 flanked	 bex	 4	 7.000000	 2.000000	 flanked_bex_freq_4_amplitude_7_rep_4_b_H_2.0.png	 H	 b	 b	 n.a.	 2.883313e-01
2	 1	 137	 flanked	 bex	 4	 3.000000	 2.000000	 flanked_bex_freq_4_amplitude_3_rep_9_r_H_2.0.png	 H	 r	 r	 n.a.	 2.953877e-01
2	 1	 138	 flanked	 bex	 4	 7.000000	 2.000000	 flanked_bex_freq_4_amplitude_7_rep_1_r_D_2.0.png	 D	 r	 r	 n.a.	 2.498008e-01
2	 1	 139	 flanked	 bex	 4	 4.000000	 2.000000	 flanked_bex_freq_4_amplitude_4_rep_2_r_K_2.0.png	 K	 r	 r	 n.a.	 3.568986e-01
2	 1	 140	 flanked	 bex	 4	 1.000000	 2.000000	 flanked_bex_freq_4_amplitude_1_rep_9_t_D_2.0.png	 D	 t	 r	 n.a.	 4.024234e-01
2	 1	 141	 flanked	 bex	 4	 7.000000	 2.000000	 flanked_bex_freq_4_amplitude_7_rep_0_t_D_2.0.png	 D	 t	 t	 n.a.	 4.647493e-01
2	 1	 142	 flanked	 bex	 4	 1.000000	 2.000000	 flanked_bex_freq_4_amplitude_1_rep_5_r_K_2.0.png	 K	 r	 t	 n.a.	 4.478467e-01
2	 1	 143	 flanked	 bex	 4	 4.000000	 2.000000	 flanked_bex_freq_4_amplitude_4_rep_1_b_H_2.0.png	 H	 b	 b	 n.a.	 2.569595e-01
2	 1	 144	 flanked	 bex	 4	 4.000000	 2.000000	 flanked_bex_freq_4_amplitude_4_rep_7_b_D_2.0.png	 D	 b	 b	 n.a.	 2.954778e-01
2	 1	 145	 flanked	 bex	 4	 5.000000	 2.000000	 flanked_bex_freq_4_amplitude_5_rep_5_b_N_2.0.png	 N	 b	 b	 n.a.	 3.247957e-01
2	 1	 146	 flanked	 bex	 4	 3.000000	 2.000000	 flanked_bex_freq_4_amplitude_3_rep_3_t_K_2.0.png	 K	 t	 b	 n.a.	 7.108967e-01
2	 1	 147	 flanked	 bex	 4	 1.000000	 2.000000	 flanked_bex_freq_4_amplitude_1_rep_8_r_N_2.0.png	 N	 r	 b	 n.a.	 4.303594e-01
2	 1	 148	 flanked	 bex	 4	 2.000000	 2.000000	 flanked_bex_freq_4_amplitude_2_rep_3_l_D_2.0.png	 D	 l	 b	 n.a.	 5.557490e-01
2	 1	 149	 flanked	 bex	 4	 3.000000	 2.000000	 flanked_bex_freq_4_amplitude_3_rep_5_t_N_2.0.png	 N	 t	 t	 n.a.	 4.780868e-01
2	 1	 150	 flanked	 bex	 4	 4.000000	 2.000000	 flanked_bex_freq_4_amplitude_4_rep_2_r_K_2.0.png	 K	 r	 r	 n.a.	 3.720181e-01
2	 1	 151	 flanked	 bex	 4	 2.000000	 2.000000	 flanked_bex_freq_4_amplitude_2_rep_0_r_K_2.0.png	 K	 r	 b	 n.a.	 3.974319e-01
2	 1	 152	 flanked	 bex	 4	 4.000000	 2.000000	 flanked_bex_freq_4_amplitude_4_rep_9_r_H_2.0.png	 H	 r	 r	 n.a.	 3.183426e-01
2	 1	 153	 flanked	 bex	 4	 4.000000	 2.000000	 flanked_bex_freq_4_amplitude_4_rep_1_b_H_2.0.png	 H	 b	 b	 n.a.	 3.049516e-01
2	 1	 154	 flanked	 bex	 4	 2.000000	 2.000000	 flanked_bex_freq_4_amplitude_2_rep_3_l_D_2.0.png	 D	 l	 l	 n.a.	 5.857289e-01
2	 1	 155	 flanked	 bex	 4	 7.000000	 2.000000	 flanked_bex_freq_4_amplitude_7_rep_0_t_D_2.0.png	 D	 t	 t	 n.a.	 6.171139e-01
2	 1	 156	 flanked	 bex	 4	 7.000000	 2.000000	 flanked_bex_freq_4_amplitude_7_rep_6_l_D_2.0.png	 D	 l	 l	 n.a.	 4.199551e-01
2	 1	 157	 flanked	 bex	 4	 3.000000	 2.000000	 flanked_bex_freq_4_amplitude_3_rep_1_t_N_2.0.png	 N	 t	 b	 n.a.	 3.129451e-01
2	 1	 158	 flanked	 bex	 4	 1.000000	 2.000000	 flanked_bex_freq_4_amplitude_1_rep_3_r_N_2.0.png	 N	 r	 t	 n.a.	 5.912917e-01
2	 1	 159	 flanked	 bex	 4	 2.000000	 2.000000	 flanked_bex_freq_4_amplitude_2_rep_8_r_K_2.0.png	 K	 r	 b	 n.a.	 2.997271e-01
2	 1	 160	 flanked	 bex	 4	 4.000000	 2.000000	 flanked_bex_freq_4_amplitude_4_rep_9_r_H_2.0.png	 H	 r	 r	 n.a.	 3.455626e-01
2	 1	 161	 flanked	 bex	 4	 6.000000	 2.000000	 flanked_bex_freq_4_amplitude_6_rep_2_r_N_2.0.png	 N	 r	 r	 n.a.	 3.157573e-01
2	 1	 162	 flanked	 bex	 4	 6.000000	 2.000000	 flanked_bex_freq_4_amplitude_6_rep_7_t_H_2.0.png	 H	 t	 t	 n.a.	 4.027906e-01
2	 1	 163	 flanked	 bex	 4	 5.000000	 2.000000	 flanked_bex_freq_4_amplitude_5_rep_2_l_D_2.0.png	 D	 l	 l	 n.a.	 3.459933e-01
2	 1	 164	 flanked	 bex	 4	 4.000000	 2.000000	 flanked_bex_freq_4_amplitude_4_rep_5_l_H_2.0.png	 H	 l	 l	 n.a.	 3.514159e-01
2	 1	 165	 flanked	 bex	 4	 5.000000	 2.000000	 flanked_bex_freq_4_amplitude_5_rep_1_t_N_2.0.png	 N	 t	 t	 n.a.	 5.456834e-01
2	 1	 166	 flanked	 bex	 4	 5.000000	 2.000000	 flanked_bex_freq_4_amplitude_5_rep_0_b_H_2.0.png	 H	 b	 b	 n.a.	 2.941291e-01
2	 1	 167	 flanked	 bex	 4	 1.000000	 2.000000	 flanked_bex_freq_4_amplitude_1_rep_4_l_N_2.0.png	 N	 l	 b	 n.a.	 3.685543e-01
2	 1	 168	 flanked	 bex	 4	 2.000000	 2.000000	 flanked_bex_freq_4_amplitude_2_rep_4_r_D_2.0.png	 D	 r	 b	 n.a.	 3.882218e-01
2	 1	 169	 flanked	 bex	 4	 6.000000	 2.000000	 flanked_bex_freq_4_amplitude_6_rep_2_r_N_2.0.png	 N	 r	 r	 n.a.	 2.486845e-01
2	 1	 170	 flanked	 bex	 4	 5.000000	 2.000000	 flanked_bex_freq_4_amplitude_5_rep_9_r_D_2.0.png	 D	 r	 r	 n.a.	 6.834311e-01
2	 1	 171	 flanked	 bex	 4	 3.000000	 2.000000	 flanked_bex_freq_4_amplitude_3_rep_7_b_H_2.0.png	 H	 b	 r	 n.a.	 4.625554e-01
2	 1	 172	 flanked	 bex	 4	 4.000000	 2.000000	 flanked_bex_freq_4_amplitude_4_rep_3_r_K_2.0.png	 K	 r	 r	 n.a.	 4.166515e-01
2	 1	 173	 flanked	 bex	 4	 3.000000	 2.000000	 flanked_bex_freq_4_amplitude_3_rep_6_t_N_2.0.png	 N	 t	 b	 n.a.	 4.443395e-01
2	 1	 174	 flanked	 bex	 4	 1.000000	 2.000000	 flanked_bex_freq_4_amplitude_1_rep_9_t_D_2.0.png	 D	 t	 t	 n.a.	 5.431884e-01
2	 1	 175	 flanked	 bex	 4	 4.000000	 2.000000	 flanked_bex_freq_4_amplitude_4_rep_7_b_D_2.0.png	 D	 b	 b	 n.a.	 3.361690e-01
2	 1	 176	 flanked	 bex	 4	 1.000000	 2.000000	 flanked_bex_freq_4_amplitude_1_rep_0_b_D_2.0.png	 D	 b	 l	 n.a.	 3.826321e-01
2	 1	 177	 flanked	 bex	 4	 6.000000	 2.000000	 flanked_bex_freq_4_amplitude_6_rep_1_t_H_2.0.png	 H	 t	 t	 n.a.	 3.470518e-01
2	 1	 178	 flanked	 bex	 4	 5.000000	 2.000000	 flanked_bex_freq_4_amplitude_5_rep_9_r_D_2.0.png	 D	 r	 r	 n.a.	 3.487473e-01
2	 1	 179	 flanked	 bex	 4	 6.000000	 2.000000	 flanked_bex_freq_4_amplitude_6_rep_7_t_H_2.0.png	 H	 t	 t	 n.a.	 3.328658e-01
2	 1	 180	 flanked	 bex	 4	 1.000000	 2.000000	 flanked_bex_freq_4_amplitude_1_rep_1_b_D_2.0.png	 D	 b	 l	 n.a.	 6.705878e-01
2	 1	 181	 flanked	 bex	 4	 6.000000	 2.000000	 flanked_bex_freq_4_amplitude_6_rep_8_l_D_2.0.png	 D	 l	 l	 n.a.	 3.779096e-01
2	 1	 182	 flanked	 bex	 4	 3.000000	 2.000000	 flanked_bex_freq_4_amplitude_3_rep_4_r_H_2.0.png	 H	 r	 r	 n.a.	 2.890691e-01
2	 1	 183	 flanked	 bex	 4	 1.000000	 2.000000	 flanked_bex_freq_4_amplitude_1_rep_7_t_D_2.0.png	 D	 t	 b	 n.a.	 3.961951e-01
2	 1	 184	 flanked	 bex	 4	 4.000000	 2.000000	 flanked_bex_freq_4_amplitude_4_rep_3_r_K_2.0.png	 K	 r	 r	 n.a.	 4.855691e-01
2	 1	 185	 flanked	 bex	 4	 4.000000	 2.000000	 flanked_bex_freq_4_amplitude_4_rep_6_t_D_2.0.png	 D	 t	 b	 n.a.	 3.257089e-01
2	 1	 186	 flanked	 bex	 4	 1.000000	 2.000000	 flanked_bex_freq_4_amplitude_1_rep_7_t_D_2.0.png	 D	 t	 l	 n.a.	 4.090975e-01
2	 1	 187	 flanked	 bex	 4	 2.000000	 2.000000	 flanked_bex_freq_4_amplitude_2_rep_6_t_N_2.0.png	 N	 t	 b	 n.a.	 3.730684e-01
2	 1	 188	 flanked	 bex	 4	 7.000000	 2.000000	 flanked_bex_freq_4_amplitude_7_rep_5_r_H_2.0.png	 H	 r	 r	 n.a.	 2.558530e-01
2	 1	 189	 flanked	 bex	 4	 7.000000	 2.000000	 flanked_bex_freq_4_amplitude_7_rep_8_b_H_2.0.png	 H	 b	 b	 n.a.	 3.509252e-01
2	 1	 190	 flanked	 bex	 4	 3.000000	 2.000000	 flanked_bex_freq_4_amplitude_3_rep_0_t_K_2.0.png	 K	 t	 b	 n.a.	 2.892803e-01
2	 1	 191	 flanked	 bex	 4	 7.000000	 2.000000	 flanked_bex_freq_4_amplitude_7_rep_1_r_D_2.0.png	 D	 r	 r	 n.a.	 2.808176e-01
2	 1	 192	 flanked	 bex	 4	 5.000000	 2.000000	 flanked_bex_freq_4_amplitude_5_rep_9_r_D_2.0.png	 D	 r	 r	 n.a.	 3.090531e-01
2	 1	 193	 flanked	 bex	 4	 7.000000	 2.000000	 flanked_bex_freq_4_amplitude_7_rep_7_r_N_2.0.png	 N	 r	 r	 n.a.	 2.914305e-01
2	 1	 194	 flanked	 bex	 4	 4.000000	 2.000000	 flanked_bex_freq_4_amplitude_4_rep_0_t_N_2.0.png	 N	 t	 t	 n.a.	 4.157194e-01
2	 1	 195	 flanked	 bex	 4	 5.000000	 2.000000	 flanked_bex_freq_4_amplitude_5_rep_8_b_N_2.0.png	 N	 b	 b	 n.a.	 2.994011e-01
2	 1	 196	 flanked	 bex	 4	 2.000000	 2.000000	 flanked_bex_freq_4_amplitude_2_rep_4_r_D_2.0.png	 D	 r	 b	 n.a.	 3.212495e-01
2	 1	 197	 flanked	 bex	 4	 4.000000	 2.000000	 flanked_bex_freq_4_amplitude_4_rep_2_r_K_2.0.png	 K	 r	 t	 n.a.	 5.048342e-01
2	 1	 198	 flanked	 bex	 4	 4.000000	 2.000000	 flanked_bex_freq_4_amplitude_4_rep_3_r_K_2.0.png	 K	 r	 r	 n.a.	 6.580663e-01
2	 1	 199	 flanked	 bex	 4	 3.000000	 2.000000	 flanked_bex_freq_4_amplitude_3_rep_2_r_K_2.0.png	 K	 r	 l	 n.a.	 4.599591e-01
2	 1	 200	 flanked	 bex	 4	 7.000000	 2.000000	 flanked_bex_freq_4_amplitude_7_rep_3_l_N_2.0.png	 N	 l	 l	 n.a.	 4.623415e-01
2	 1	 201	 flanked	 bex	 4	 2.000000	 2.000000	 flanked_bex_freq_4_amplitude_2_rep_2_t_K_2.0.png	 K	 t	 t	 n.a.	 4.492731e-01
2	 1	 202	 flanked	 bex	 4	 2.000000	 2.000000	 flanked_bex_freq_4_amplitude_2_rep_2_t_K_2.0.png	 K	 t	 t	 n.a.	 4.807396e-01
2	 1	 203	 flanked	 bex	 4	 2.000000	 2.000000	 flanked_bex_freq_4_amplitude_2_rep_9_t_N_2.0.png	 N	 t	 b	 n.a.	 3.854308e-01
2	 1	 204	 flanked	 bex	 4	 2.000000	 2.000000	 flanked_bex_freq_4_amplitude_2_rep_6_t_N_2.0.png	 N	 t	 l	 n.a.	 4.334531e-01
2	 1	 205	 flanked	 bex	 4	 5.000000	 2.000000	 flanked_bex_freq_4_amplitude_5_rep_0_b_H_2.0.png	 H	 b	 b	 n.a.	 2.894280e-01
2	 1	 206	 flanked	 bex	 4	 2.000000	 2.000000	 flanked_bex_freq_4_amplitude_2_rep_5_b_D_2.0.png	 D	 b	 l	 n.a.	 6.168103e-01
2	 1	 207	 flanked	 bex	 4	 6.000000	 2.000000	 flanked_bex_freq_4_amplitude_6_rep_5_t_D_2.0.png	 D	 t	 t	 n.a.	 3.381550e-01
2	 1	 208	 flanked	 bex	 4	 7.000000	 2.000000	 flanked_bex_freq_4_amplitude_7_rep_0_t_D_2.0.png	 D	 t	 t	 n.a.	 3.451966e-01
2	 1	 209	 flanked	 bex	 4	 5.000000	 2.000000	 flanked_bex_freq_4_amplitude_5_rep_6_r_H_2.0.png	 H	 r	 r	 n.a.	 2.971009e-01
2	 1	 210	 flanked	 bex	 4	 2.000000	 2.000000	 flanked_bex_freq_4_amplitude_2_rep_9_t_N_2.0.png	 N	 t	 l	 n.a.	 6.462625e-01
