subject	 session	 trial	 flanked	 distortion	 freq	 amplitude	 spacing	 im_name	 targ_letter	 targ_pos	 response	 eyemovement	 RT
7	 2	 1	 flanked	 rf	 4	 0.425000	 2.000000	 flanked_rf_freq_4_amplitude_0.425_rep_3_b_H_2.0.png	 H	 b	 b	 n.a.	 4.853037e-01
7	 2	 2	 flanked	 rf	 4	 0.425000	 2.000000	 flanked_rf_freq_4_amplitude_0.425_rep_8_r_K_2.0.png	 K	 r	 r	 n.a.	 4.537912e-01
7	 2	 3	 flanked	 rf	 4	 0.425000	 2.000000	 flanked_rf_freq_4_amplitude_0.425_rep_6_r_K_2.0.png	 K	 r	 r	 n.a.	 4.096190e-01
7	 2	 4	 flanked	 rf	 4	 0.050000	 2.000000	 flanked_rf_freq_4_amplitude_0.05_rep_4_r_K_2.0.png	 K	 r	 b	 n.a.	 8.349813e-01
7	 2	 5	 flanked	 rf	 4	 0.125000	 2.000000	 flanked_rf_freq_4_amplitude_0.125_rep_0_r_N_2.0.png	 N	 r	 b	 n.a.	 8.678184e-01
7	 2	 6	 flanked	 rf	 4	 0.050000	 2.000000	 flanked_rf_freq_4_amplitude_0.05_rep_6_b_N_2.0.png	 N	 b	 l	 n.a.	 9.986486e-01
7	 2	 7	 flanked	 rf	 4	 0.350000	 2.000000	 flanked_rf_freq_4_amplitude_0.35_rep_4_r_H_2.0.png	 H	 r	 r	 n.a.	 5.065887e-01
7	 2	 8	 flanked	 rf	 4	 0.125000	 2.000000	 flanked_rf_freq_4_amplitude_0.125_rep_2_l_N_2.0.png	 N	 l	 r	 n.a.	 7.456375e-01
7	 2	 9	 flanked	 rf	 4	 0.050000	 2.000000	 flanked_rf_freq_4_amplitude_0.05_rep_5_r_H_2.0.png	 H	 r	 b	 n.a.	 6.147888e-01
7	 2	 10	 flanked	 rf	 4	 0.275000	 2.000000	 flanked_rf_freq_4_amplitude_0.275_rep_1_l_N_2.0.png	 N	 l	 r	 n.a.	 7.126523e-01
7	 2	 11	 flanked	 rf	 4	 0.350000	 2.000000	 flanked_rf_freq_4_amplitude_0.35_rep_0_r_N_2.0.png	 N	 r	 r	 n.a.	 4.786136e-01
7	 2	 12	 flanked	 rf	 4	 0.125000	 2.000000	 flanked_rf_freq_4_amplitude_0.125_rep_6_t_D_2.0.png	 D	 t	 l	 n.a.	 5.983133e-01
7	 2	 13	 flanked	 rf	 4	 0.200000	 2.000000	 flanked_rf_freq_4_amplitude_0.2_rep_6_b_H_2.0.png	 H	 b	 r	 n.a.	 8.628096e-01
7	 2	 14	 flanked	 rf	 4	 0.425000	 2.000000	 flanked_rf_freq_4_amplitude_0.425_rep_0_l_N_2.0.png	 N	 l	 l	 n.a.	 5.263516e-01
7	 2	 15	 flanked	 rf	 4	 0.050000	 2.000000	 flanked_rf_freq_4_amplitude_0.05_rep_2_r_H_2.0.png	 H	 r	 b	 n.a.	 5.742615e-01
7	 2	 16	 flanked	 rf	 4	 0.425000	 2.000000	 flanked_rf_freq_4_amplitude_0.425_rep_4_t_D_2.0.png	 D	 t	 t	 n.a.	 3.502862e-01
7	 2	 17	 flanked	 rf	 4	 0.125000	 2.000000	 flanked_rf_freq_4_amplitude_0.125_rep_5_r_D_2.0.png	 D	 r	 r	 n.a.	 6.565658e-01
7	 2	 18	 flanked	 rf	 4	 0.350000	 2.000000	 flanked_rf_freq_4_amplitude_0.35_rep_4_r_H_2.0.png	 H	 r	 r	 n.a.	 4.710681e-01
7	 2	 19	 flanked	 rf	 4	 0.500000	 2.000000	 flanked_rf_freq_4_amplitude_0.5_rep_5_l_N_2.0.png	 N	 l	 l	 n.a.	 3.902169e-01
7	 2	 20	 flanked	 rf	 4	 0.350000	 2.000000	 flanked_rf_freq_4_amplitude_0.35_rep_2_r_D_2.0.png	 D	 r	 r	 n.a.	 4.152369e-01
7	 2	 21	 flanked	 rf	 4	 0.500000	 2.000000	 flanked_rf_freq_4_amplitude_0.5_rep_9_b_H_2.0.png	 H	 b	 b	 n.a.	 4.509209e-01
7	 2	 22	 flanked	 rf	 4	 0.125000	 2.000000	 flanked_rf_freq_4_amplitude_0.125_rep_1_r_D_2.0.png	 D	 r	 r	 n.a.	 4.667571e-01
7	 2	 23	 flanked	 rf	 4	 0.050000	 2.000000	 flanked_rf_freq_4_amplitude_0.05_rep_0_l_D_2.0.png	 D	 l	 b	 n.a.	 5.088128e-01
7	 2	 24	 flanked	 rf	 4	 0.275000	 2.000000	 flanked_rf_freq_4_amplitude_0.275_rep_4_l_D_2.0.png	 D	 l	 l	 n.a.	 3.875766e-01
7	 2	 25	 flanked	 rf	 4	 0.200000	 2.000000	 flanked_rf_freq_4_amplitude_0.2_rep_5_t_H_2.0.png	 H	 t	 t	 n.a.	 5.596555e-01
7	 2	 26	 flanked	 rf	 4	 0.350000	 2.000000	 flanked_rf_freq_4_amplitude_0.35_rep_9_r_H_2.0.png	 H	 r	 r	 n.a.	 3.664130e-01
7	 2	 27	 flanked	 rf	 4	 0.500000	 2.000000	 flanked_rf_freq_4_amplitude_0.5_rep_6_t_D_2.0.png	 D	 t	 t	 n.a.	 3.378747e-01
7	 2	 28	 flanked	 rf	 4	 0.350000	 2.000000	 flanked_rf_freq_4_amplitude_0.35_rep_0_r_N_2.0.png	 N	 r	 r	 n.a.	 4.610302e-01
7	 2	 29	 flanked	 rf	 4	 0.500000	 2.000000	 flanked_rf_freq_4_amplitude_0.5_rep_3_r_N_2.0.png	 N	 r	 r	 n.a.	 3.908390e-01
7	 2	 30	 flanked	 rf	 4	 0.350000	 2.000000	 flanked_rf_freq_4_amplitude_0.35_rep_2_r_D_2.0.png	 D	 r	 r	 n.a.	 3.867689e-01
7	 2	 31	 flanked	 rf	 4	 0.500000	 2.000000	 flanked_rf_freq_4_amplitude_0.5_rep_0_t_D_2.0.png	 D	 t	 t	 n.a.	 3.235550e-01
7	 2	 32	 flanked	 rf	 4	 0.050000	 2.000000	 flanked_rf_freq_4_amplitude_0.05_rep_2_r_H_2.0.png	 H	 r	 t	 n.a.	 4.900191e-01
7	 2	 33	 flanked	 rf	 4	 0.050000	 2.000000	 flanked_rf_freq_4_amplitude_0.05_rep_0_l_D_2.0.png	 D	 l	 b	 n.a.	 9.633014e-01
7	 2	 34	 flanked	 rf	 4	 0.275000	 2.000000	 flanked_rf_freq_4_amplitude_0.275_rep_7_r_D_2.0.png	 D	 r	 r	 n.a.	 4.764011e-01
7	 2	 35	 flanked	 rf	 4	 0.350000	 2.000000	 flanked_rf_freq_4_amplitude_0.35_rep_5_t_D_2.0.png	 D	 t	 t	 n.a.	 3.498152e-01
7	 2	 36	 flanked	 rf	 4	 0.125000	 2.000000	 flanked_rf_freq_4_amplitude_0.125_rep_8_t_H_2.0.png	 H	 t	 t	 n.a.	 5.589822e-01
7	 2	 37	 flanked	 rf	 4	 0.500000	 2.000000	 flanked_rf_freq_4_amplitude_0.5_rep_4_r_H_2.0.png	 H	 r	 r	 n.a.	 4.642246e-01
7	 2	 38	 flanked	 rf	 4	 0.050000	 2.000000	 flanked_rf_freq_4_amplitude_0.05_rep_4_r_K_2.0.png	 K	 r	 r	 n.a.	 6.949356e-01
7	 2	 39	 flanked	 rf	 4	 0.500000	 2.000000	 flanked_rf_freq_4_amplitude_0.5_rep_2_l_N_2.0.png	 N	 l	 l	 n.a.	 2.904066e-01
7	 2	 40	 flanked	 rf	 4	 0.425000	 2.000000	 flanked_rf_freq_4_amplitude_0.425_rep_0_l_N_2.0.png	 N	 l	 l	 n.a.	 3.297498e-01
7	 2	 41	 flanked	 rf	 4	 0.275000	 2.000000	 flanked_rf_freq_4_amplitude_0.275_rep_4_l_D_2.0.png	 D	 l	 l	 n.a.	 3.705920e-01
7	 2	 42	 flanked	 rf	 4	 0.275000	 2.000000	 flanked_rf_freq_4_amplitude_0.275_rep_1_l_N_2.0.png	 N	 l	 l	 n.a.	 9.620929e-01
7	 2	 43	 flanked	 rf	 4	 0.275000	 2.000000	 flanked_rf_freq_4_amplitude_0.275_rep_6_b_K_2.0.png	 K	 b	 b	 n.a.	 5.225211e-01
7	 2	 44	 flanked	 rf	 4	 0.425000	 2.000000	 flanked_rf_freq_4_amplitude_0.425_rep_2_r_H_2.0.png	 H	 r	 r	 n.a.	 4.539713e-01
7	 2	 45	 flanked	 rf	 4	 0.425000	 2.000000	 flanked_rf_freq_4_amplitude_0.425_rep_9_r_H_2.0.png	 H	 r	 r	 n.a.	 3.612802e-01
7	 2	 46	 flanked	 rf	 4	 0.275000	 2.000000	 flanked_rf_freq_4_amplitude_0.275_rep_2_r_H_2.0.png	 H	 r	 r	 n.a.	 4.395156e-01
7	 2	 47	 flanked	 rf	 4	 0.050000	 2.000000	 flanked_rf_freq_4_amplitude_0.05_rep_1_t_D_2.0.png	 D	 t	 t	 n.a.	 8.294118e-01
7	 2	 48	 flanked	 rf	 4	 0.125000	 2.000000	 flanked_rf_freq_4_amplitude_0.125_rep_5_r_D_2.0.png	 D	 r	 r	 n.a.	 6.325293e-01
7	 2	 49	 flanked	 rf	 4	 0.425000	 2.000000	 flanked_rf_freq_4_amplitude_0.425_rep_7_b_N_2.0.png	 N	 b	 b	 n.a.	 5.251415e-01
7	 2	 50	 flanked	 rf	 4	 0.500000	 2.000000	 flanked_rf_freq_4_amplitude_0.5_rep_7_l_N_2.0.png	 N	 l	 l	 n.a.	 4.251330e-01
7	 2	 51	 flanked	 rf	 4	 0.425000	 2.000000	 flanked_rf_freq_4_amplitude_0.425_rep_3_b_H_2.0.png	 H	 b	 b	 n.a.	 4.076423e-01
7	 2	 52	 flanked	 rf	 4	 0.125000	 2.000000	 flanked_rf_freq_4_amplitude_0.125_rep_7_b_D_2.0.png	 D	 b	 t	 n.a.	 6.290037e-01
7	 2	 53	 flanked	 rf	 4	 0.350000	 2.000000	 flanked_rf_freq_4_amplitude_0.35_rep_7_b_N_2.0.png	 N	 b	 b	 n.a.	 4.631876e-01
7	 2	 54	 flanked	 rf	 4	 0.500000	 2.000000	 flanked_rf_freq_4_amplitude_0.5_rep_0_t_D_2.0.png	 D	 t	 t	 n.a.	 3.524754e-01
7	 2	 55	 flanked	 rf	 4	 0.275000	 2.000000	 flanked_rf_freq_4_amplitude_0.275_rep_0_b_D_2.0.png	 D	 b	 l	 n.a.	 8.173475e-01
7	 2	 56	 flanked	 rf	 4	 0.350000	 2.000000	 flanked_rf_freq_4_amplitude_0.35_rep_3_l_H_2.0.png	 H	 l	 l	 n.a.	 4.465337e-01
7	 2	 57	 flanked	 rf	 4	 0.350000	 2.000000	 flanked_rf_freq_4_amplitude_0.35_rep_4_r_H_2.0.png	 H	 r	 r	 n.a.	 4.940661e-01
7	 2	 58	 flanked	 rf	 4	 0.425000	 2.000000	 flanked_rf_freq_4_amplitude_0.425_rep_2_r_H_2.0.png	 H	 r	 r	 n.a.	 3.550540e-01
7	 2	 59	 flanked	 rf	 4	 0.500000	 2.000000	 flanked_rf_freq_4_amplitude_0.5_rep_6_t_D_2.0.png	 D	 t	 t	 n.a.	 3.206290e-01
7	 2	 60	 flanked	 rf	 4	 0.050000	 2.000000	 flanked_rf_freq_4_amplitude_0.05_rep_5_r_H_2.0.png	 H	 r	 r	 n.a.	 5.152452e-01
7	 2	 61	 flanked	 rf	 4	 0.350000	 2.000000	 flanked_rf_freq_4_amplitude_0.35_rep_6_b_N_2.0.png	 N	 b	 b	 n.a.	 4.475765e-01
7	 2	 62	 flanked	 rf	 4	 0.350000	 2.000000	 flanked_rf_freq_4_amplitude_0.35_rep_3_l_H_2.0.png	 H	 l	 l	 n.a.	 4.108678e-01
7	 2	 63	 flanked	 rf	 4	 0.050000	 2.000000	 flanked_rf_freq_4_amplitude_0.05_rep_1_t_D_2.0.png	 D	 t	 t	 n.a.	 5.522172e-01
7	 2	 64	 flanked	 rf	 4	 0.500000	 2.000000	 flanked_rf_freq_4_amplitude_0.5_rep_1_r_D_2.0.png	 D	 r	 r	 n.a.	 5.423405e-01
7	 2	 65	 flanked	 rf	 4	 0.125000	 2.000000	 flanked_rf_freq_4_amplitude_0.125_rep_0_r_N_2.0.png	 N	 r	 r	 n.a.	 6.165928e-01
7	 2	 66	 flanked	 rf	 4	 0.275000	 2.000000	 flanked_rf_freq_4_amplitude_0.275_rep_6_b_K_2.0.png	 K	 b	 b	 n.a.	 4.051108e-01
7	 2	 67	 flanked	 rf	 4	 0.350000	 2.000000	 flanked_rf_freq_4_amplitude_0.35_rep_2_r_D_2.0.png	 D	 r	 r	 n.a.	 4.013393e-01
7	 2	 68	 flanked	 rf	 4	 0.425000	 2.000000	 flanked_rf_freq_4_amplitude_0.425_rep_8_r_K_2.0.png	 K	 r	 r	 n.a.	 4.401713e-01
7	 2	 69	 flanked	 rf	 4	 0.050000	 2.000000	 flanked_rf_freq_4_amplitude_0.05_rep_8_l_N_2.0.png	 N	 l	 b	 n.a.	 4.434989e-01
7	 2	 70	 flanked	 rf	 4	 0.200000	 2.000000	 flanked_rf_freq_4_amplitude_0.2_rep_8_b_K_2.0.png	 K	 b	 r	 n.a.	 8.985988e-01
7	 2	 71	 flanked	 rf	 4	 0.425000	 2.000000	 flanked_rf_freq_4_amplitude_0.425_rep_9_r_H_2.0.png	 H	 r	 r	 n.a.	 3.388589e-01
7	 2	 72	 flanked	 rf	 4	 0.350000	 2.000000	 flanked_rf_freq_4_amplitude_0.35_rep_7_b_N_2.0.png	 N	 b	 b	 n.a.	 4.766555e-01
7	 2	 73	 flanked	 rf	 4	 0.275000	 2.000000	 flanked_rf_freq_4_amplitude_0.275_rep_6_b_K_2.0.png	 K	 b	 b	 n.a.	 3.614118e-01
7	 2	 74	 flanked	 rf	 4	 0.425000	 2.000000	 flanked_rf_freq_4_amplitude_0.425_rep_4_t_D_2.0.png	 D	 t	 t	 n.a.	 3.175326e-01
7	 2	 75	 flanked	 rf	 4	 0.200000	 2.000000	 flanked_rf_freq_4_amplitude_0.2_rep_2_l_K_2.0.png	 K	 l	 l	 n.a.	 3.238882e-01
7	 2	 76	 flanked	 rf	 4	 0.275000	 2.000000	 flanked_rf_freq_4_amplitude_0.275_rep_7_r_D_2.0.png	 D	 r	 r	 n.a.	 2.592275e-01
7	 2	 77	 flanked	 rf	 4	 0.200000	 2.000000	 flanked_rf_freq_4_amplitude_0.2_rep_7_b_K_2.0.png	 K	 b	 b	 n.a.	 3.213215e-01
7	 2	 78	 flanked	 rf	 4	 0.275000	 2.000000	 flanked_rf_freq_4_amplitude_0.275_rep_5_r_K_2.0.png	 K	 r	 r	 n.a.	 3.645700e-01
7	 2	 79	 flanked	 rf	 4	 0.275000	 2.000000	 flanked_rf_freq_4_amplitude_0.275_rep_3_t_H_2.0.png	 H	 t	 t	 n.a.	 3.325603e-01
7	 2	 80	 flanked	 rf	 4	 0.500000	 2.000000	 flanked_rf_freq_4_amplitude_0.5_rep_8_t_H_2.0.png	 H	 t	 t	 n.a.	 3.765930e-01
7	 2	 81	 flanked	 rf	 4	 0.425000	 2.000000	 flanked_rf_freq_4_amplitude_0.425_rep_1_l_D_2.0.png	 D	 l	 l	 n.a.	 2.857385e-01
7	 2	 82	 flanked	 rf	 4	 0.350000	 2.000000	 flanked_rf_freq_4_amplitude_0.35_rep_1_b_N_2.0.png	 N	 b	 b	 n.a.	 4.105959e-01
7	 2	 83	 flanked	 rf	 4	 0.200000	 2.000000	 flanked_rf_freq_4_amplitude_0.2_rep_9_b_H_2.0.png	 H	 b	 b	 n.a.	 5.062493e-01
7	 2	 84	 flanked	 rf	 4	 0.125000	 2.000000	 flanked_rf_freq_4_amplitude_0.125_rep_8_t_H_2.0.png	 H	 t	 t	 n.a.	 7.196995e-01
7	 2	 85	 flanked	 rf	 4	 0.200000	 2.000000	 flanked_rf_freq_4_amplitude_0.2_rep_3_t_N_2.0.png	 N	 t	 r	 n.a.	 5.422174e-01
7	 2	 86	 flanked	 rf	 4	 0.275000	 2.000000	 flanked_rf_freq_4_amplitude_0.275_rep_9_r_D_2.0.png	 D	 r	 r	 n.a.	 3.528938e-01
7	 2	 87	 flanked	 rf	 4	 0.500000	 2.000000	 flanked_rf_freq_4_amplitude_0.5_rep_9_b_H_2.0.png	 H	 b	 b	 n.a.	 3.447306e-01
7	 2	 88	 flanked	 rf	 4	 0.350000	 2.000000	 flanked_rf_freq_4_amplitude_0.35_rep_0_r_N_2.0.png	 N	 r	 r	 n.a.	 4.103763e-01
7	 2	 89	 flanked	 rf	 4	 0.275000	 2.000000	 flanked_rf_freq_4_amplitude_0.275_rep_5_r_K_2.0.png	 K	 r	 r	 n.a.	 1.064794e+00
7	 2	 90	 flanked	 rf	 4	 0.125000	 2.000000	 flanked_rf_freq_4_amplitude_0.125_rep_1_r_D_2.0.png	 D	 r	 r	 n.a.	 1.138344e+00
7	 2	 91	 flanked	 rf	 4	 0.425000	 2.000000	 flanked_rf_freq_4_amplitude_0.425_rep_5_b_D_2.0.png	 D	 b	 b	 n.a.	 7.149033e-01
7	 2	 92	 flanked	 rf	 4	 0.275000	 2.000000	 flanked_rf_freq_4_amplitude_0.275_rep_8_r_N_2.0.png	 N	 r	 r	 n.a.	 3.705176e-01
7	 2	 93	 flanked	 rf	 4	 0.275000	 2.000000	 flanked_rf_freq_4_amplitude_0.275_rep_7_r_D_2.0.png	 D	 r	 r	 n.a.	 4.065634e-01
7	 2	 94	 flanked	 rf	 4	 0.200000	 2.000000	 flanked_rf_freq_4_amplitude_0.2_rep_1_r_H_2.0.png	 H	 r	 b	 n.a.	 7.549641e-01
7	 2	 95	 flanked	 rf	 4	 0.275000	 2.000000	 flanked_rf_freq_4_amplitude_0.275_rep_9_r_D_2.0.png	 D	 r	 r	 n.a.	 3.727345e-01
7	 2	 96	 flanked	 rf	 4	 0.275000	 2.000000	 flanked_rf_freq_4_amplitude_0.275_rep_8_r_N_2.0.png	 N	 r	 r	 n.a.	 4.232646e-01
7	 2	 97	 flanked	 rf	 4	 0.275000	 2.000000	 flanked_rf_freq_4_amplitude_0.275_rep_3_t_H_2.0.png	 H	 t	 t	 n.a.	 6.030745e-01
7	 2	 98	 flanked	 rf	 4	 0.350000	 2.000000	 flanked_rf_freq_4_amplitude_0.35_rep_8_l_D_2.0.png	 D	 l	 l	 n.a.	 4.111927e-01
7	 2	 99	 flanked	 rf	 4	 0.350000	 2.000000	 flanked_rf_freq_4_amplitude_0.35_rep_5_t_D_2.0.png	 D	 t	 t	 n.a.	 3.769349e-01
7	 2	 100	 flanked	 rf	 4	 0.050000	 2.000000	 flanked_rf_freq_4_amplitude_0.05_rep_7_r_N_2.0.png	 N	 r	 l	 n.a.	 4.431991e-01
7	 2	 101	 flanked	 rf	 4	 0.050000	 2.000000	 flanked_rf_freq_4_amplitude_0.05_rep_3_r_K_2.0.png	 K	 r	 b	 n.a.	 7.161896e-01
7	 2	 102	 flanked	 rf	 4	 0.350000	 2.000000	 flanked_rf_freq_4_amplitude_0.35_rep_1_b_N_2.0.png	 N	 b	 b	 n.a.	 7.405799e-01
7	 2	 103	 flanked	 rf	 4	 0.050000	 2.000000	 flanked_rf_freq_4_amplitude_0.05_rep_3_r_K_2.0.png	 K	 r	 l	 n.a.	 1.056996e+00
7	 2	 104	 flanked	 rf	 4	 0.425000	 2.000000	 flanked_rf_freq_4_amplitude_0.425_rep_8_r_K_2.0.png	 K	 r	 r	 n.a.	 3.281768e-01
7	 2	 105	 flanked	 rf	 4	 0.200000	 2.000000	 flanked_rf_freq_4_amplitude_0.2_rep_1_r_H_2.0.png	 H	 r	 r	 n.a.	 5.218568e-01
7	 2	 106	 flanked	 rf	 4	 0.200000	 2.000000	 flanked_rf_freq_4_amplitude_0.2_rep_9_b_H_2.0.png	 H	 b	 b	 n.a.	 7.277928e-01
7	 2	 107	 flanked	 rf	 4	 0.275000	 2.000000	 flanked_rf_freq_4_amplitude_0.275_rep_5_r_K_2.0.png	 K	 r	 r	 n.a.	 7.055146e-01
7	 2	 108	 flanked	 rf	 4	 0.350000	 2.000000	 flanked_rf_freq_4_amplitude_0.35_rep_8_l_D_2.0.png	 D	 l	 l	 n.a.	 3.489163e-01
7	 2	 109	 flanked	 rf	 4	 0.125000	 2.000000	 flanked_rf_freq_4_amplitude_0.125_rep_7_b_D_2.0.png	 D	 b	 l	 n.a.	 6.379241e-01
7	 2	 110	 flanked	 rf	 4	 0.200000	 2.000000	 flanked_rf_freq_4_amplitude_0.2_rep_4_b_D_2.0.png	 D	 b	 b	 n.a.	 6.401433e-01
7	 2	 111	 flanked	 rf	 4	 0.500000	 2.000000	 flanked_rf_freq_4_amplitude_0.5_rep_8_t_H_2.0.png	 H	 t	 t	 n.a.	 7.377002e-01
7	 2	 112	 flanked	 rf	 4	 0.425000	 2.000000	 flanked_rf_freq_4_amplitude_0.425_rep_0_l_N_2.0.png	 N	 l	 l	 n.a.	 4.184282e-01
7	 2	 113	 flanked	 rf	 4	 0.425000	 2.000000	 flanked_rf_freq_4_amplitude_0.425_rep_1_l_D_2.0.png	 D	 l	 l	 n.a.	 3.614958e-01
7	 2	 114	 flanked	 rf	 4	 0.500000	 2.000000	 flanked_rf_freq_4_amplitude_0.5_rep_0_t_D_2.0.png	 D	 t	 t	 n.a.	 3.893773e-01
7	 2	 115	 flanked	 rf	 4	 0.500000	 2.000000	 flanked_rf_freq_4_amplitude_0.5_rep_7_l_N_2.0.png	 N	 l	 l	 n.a.	 3.717258e-01
7	 2	 116	 flanked	 rf	 4	 0.050000	 2.000000	 flanked_rf_freq_4_amplitude_0.05_rep_9_r_H_2.0.png	 H	 r	 b	 n.a.	 9.059920e-01
7	 2	 117	 flanked	 rf	 4	 0.425000	 2.000000	 flanked_rf_freq_4_amplitude_0.425_rep_7_b_N_2.0.png	 N	 b	 b	 n.a.	 4.197312e-01
7	 2	 118	 flanked	 rf	 4	 0.125000	 2.000000	 flanked_rf_freq_4_amplitude_0.125_rep_2_l_N_2.0.png	 N	 l	 l	 n.a.	 8.060912e-01
7	 2	 119	 flanked	 rf	 4	 0.125000	 2.000000	 flanked_rf_freq_4_amplitude_0.125_rep_7_b_D_2.0.png	 D	 b	 l	 n.a.	 7.094560e-01
7	 2	 120	 flanked	 rf	 4	 0.050000	 2.000000	 flanked_rf_freq_4_amplitude_0.05_rep_1_t_D_2.0.png	 D	 t	 b	 n.a.	 6.101862e-01
7	 2	 121	 flanked	 rf	 4	 0.050000	 2.000000	 flanked_rf_freq_4_amplitude_0.05_rep_0_l_D_2.0.png	 D	 l	 t	 n.a.	 9.441720e-01
7	 2	 122	 flanked	 rf	 4	 0.050000	 2.000000	 flanked_rf_freq_4_amplitude_0.05_rep_7_r_N_2.0.png	 N	 r	 l	 n.a.	 6.462875e-01
7	 2	 123	 flanked	 rf	 4	 0.275000	 2.000000	 flanked_rf_freq_4_amplitude_0.275_rep_2_r_H_2.0.png	 H	 r	 r	 n.a.	 3.178269e-01
7	 2	 124	 flanked	 rf	 4	 0.200000	 2.000000	 flanked_rf_freq_4_amplitude_0.2_rep_6_b_H_2.0.png	 H	 b	 b	 n.a.	 4.387001e-01
7	 2	 125	 flanked	 rf	 4	 0.425000	 2.000000	 flanked_rf_freq_4_amplitude_0.425_rep_7_b_N_2.0.png	 N	 b	 b	 n.a.	 4.222911e-01
7	 2	 126	 flanked	 rf	 4	 0.275000	 2.000000	 flanked_rf_freq_4_amplitude_0.275_rep_9_r_D_2.0.png	 D	 r	 r	 n.a.	 3.878144e-01
7	 2	 127	 flanked	 rf	 4	 0.125000	 2.000000	 flanked_rf_freq_4_amplitude_0.125_rep_4_t_N_2.0.png	 N	 t	 b	 n.a.	 7.066529e-01
7	 2	 128	 flanked	 rf	 4	 0.350000	 2.000000	 flanked_rf_freq_4_amplitude_0.35_rep_1_b_N_2.0.png	 N	 b	 b	 n.a.	 4.935513e-01
7	 2	 129	 flanked	 rf	 4	 0.200000	 2.000000	 flanked_rf_freq_4_amplitude_0.2_rep_7_b_K_2.0.png	 K	 b	 b	 n.a.	 3.490740e-01
7	 2	 130	 flanked	 rf	 4	 0.050000	 2.000000	 flanked_rf_freq_4_amplitude_0.05_rep_3_r_K_2.0.png	 K	 r	 t	 n.a.	 8.796923e-01
7	 2	 131	 flanked	 rf	 4	 0.350000	 2.000000	 flanked_rf_freq_4_amplitude_0.35_rep_9_r_H_2.0.png	 H	 r	 r	 n.a.	 2.950789e-01
7	 2	 132	 flanked	 rf	 4	 0.350000	 2.000000	 flanked_rf_freq_4_amplitude_0.35_rep_5_t_D_2.0.png	 D	 t	 t	 n.a.	 3.182653e-01
7	 2	 133	 flanked	 rf	 4	 0.500000	 2.000000	 flanked_rf_freq_4_amplitude_0.5_rep_3_r_N_2.0.png	 N	 r	 r	 n.a.	 2.848431e-01
7	 2	 134	 flanked	 rf	 4	 0.275000	 2.000000	 flanked_rf_freq_4_amplitude_0.275_rep_1_l_N_2.0.png	 N	 l	 r	 n.a.	 5.021324e-01
7	 2	 135	 flanked	 rf	 4	 0.200000	 2.000000	 flanked_rf_freq_4_amplitude_0.2_rep_4_b_D_2.0.png	 D	 b	 b	 n.a.	 3.686507e-01
7	 2	 136	 flanked	 rf	 4	 0.125000	 2.000000	 flanked_rf_freq_4_amplitude_0.125_rep_8_t_H_2.0.png	 H	 t	 t	 n.a.	 1.053434e+00
7	 2	 137	 flanked	 rf	 4	 0.125000	 2.000000	 flanked_rf_freq_4_amplitude_0.125_rep_3_l_H_2.0.png	 H	 l	 r	 n.a.	 7.396135e-01
7	 2	 138	 flanked	 rf	 4	 0.200000	 2.000000	 flanked_rf_freq_4_amplitude_0.2_rep_0_t_K_2.0.png	 K	 t	 t	 n.a.	 4.596531e-01
7	 2	 139	 flanked	 rf	 4	 0.200000	 2.000000	 flanked_rf_freq_4_amplitude_0.2_rep_6_b_H_2.0.png	 H	 b	 b	 n.a.	 4.193755e-01
7	 2	 140	 flanked	 rf	 4	 0.200000	 2.000000	 flanked_rf_freq_4_amplitude_0.2_rep_9_b_H_2.0.png	 H	 b	 b	 n.a.	 5.017243e-01
7	 2	 141	 flanked	 rf	 4	 0.500000	 2.000000	 flanked_rf_freq_4_amplitude_0.5_rep_4_r_H_2.0.png	 H	 r	 r	 n.a.	 3.684428e-01
7	 2	 142	 flanked	 rf	 4	 0.500000	 2.000000	 flanked_rf_freq_4_amplitude_0.5_rep_3_r_N_2.0.png	 N	 r	 r	 n.a.	 2.895823e-01
7	 2	 143	 flanked	 rf	 4	 0.200000	 2.000000	 flanked_rf_freq_4_amplitude_0.2_rep_3_t_N_2.0.png	 N	 t	 t	 n.a.	 7.184238e-01
7	 2	 144	 flanked	 rf	 4	 0.350000	 2.000000	 flanked_rf_freq_4_amplitude_0.35_rep_3_l_H_2.0.png	 H	 l	 l	 n.a.	 3.416945e-01
7	 2	 145	 flanked	 rf	 4	 0.500000	 2.000000	 flanked_rf_freq_4_amplitude_0.5_rep_2_l_N_2.0.png	 N	 l	 l	 n.a.	 4.125809e-01
7	 2	 146	 flanked	 rf	 4	 0.425000	 2.000000	 flanked_rf_freq_4_amplitude_0.425_rep_6_r_K_2.0.png	 K	 r	 r	 n.a.	 3.345489e-01
7	 2	 147	 flanked	 rf	 4	 0.425000	 2.000000	 flanked_rf_freq_4_amplitude_0.425_rep_2_r_H_2.0.png	 H	 r	 r	 n.a.	 3.546196e-01
7	 2	 148	 flanked	 rf	 4	 0.125000	 2.000000	 flanked_rf_freq_4_amplitude_0.125_rep_3_l_H_2.0.png	 H	 l	 b	 n.a.	 1.051161e+00
7	 2	 149	 flanked	 rf	 4	 0.500000	 2.000000	 flanked_rf_freq_4_amplitude_0.5_rep_5_l_N_2.0.png	 N	 l	 l	 n.a.	 3.189277e-01
7	 2	 150	 flanked	 rf	 4	 0.200000	 2.000000	 flanked_rf_freq_4_amplitude_0.2_rep_1_r_H_2.0.png	 H	 r	 r	 n.a.	 3.550277e-01
7	 2	 151	 flanked	 rf	 4	 0.200000	 2.000000	 flanked_rf_freq_4_amplitude_0.2_rep_3_t_N_2.0.png	 N	 t	 t	 n.a.	 1.002308e+00
7	 2	 152	 flanked	 rf	 4	 0.125000	 2.000000	 flanked_rf_freq_4_amplitude_0.125_rep_6_t_D_2.0.png	 D	 t	 l	 n.a.	 6.941065e-01
7	 2	 153	 flanked	 rf	 4	 0.125000	 2.000000	 flanked_rf_freq_4_amplitude_0.125_rep_3_l_H_2.0.png	 H	 l	 l	 n.a.	 9.549380e-01
7	 2	 154	 flanked	 rf	 4	 0.050000	 2.000000	 flanked_rf_freq_4_amplitude_0.05_rep_2_r_H_2.0.png	 H	 r	 t	 n.a.	 8.466739e-01
7	 2	 155	 flanked	 rf	 4	 0.125000	 2.000000	 flanked_rf_freq_4_amplitude_0.125_rep_1_r_D_2.0.png	 D	 r	 r	 n.a.	 3.988987e-01
7	 2	 156	 flanked	 rf	 4	 0.200000	 2.000000	 flanked_rf_freq_4_amplitude_0.2_rep_8_b_K_2.0.png	 K	 b	 b	 n.a.	 1.074148e+00
7	 2	 157	 flanked	 rf	 4	 0.125000	 2.000000	 flanked_rf_freq_4_amplitude_0.125_rep_9_l_K_2.0.png	 K	 l	 l	 n.a.	 6.555122e-01
7	 2	 158	 flanked	 rf	 4	 0.050000	 2.000000	 flanked_rf_freq_4_amplitude_0.05_rep_4_r_K_2.0.png	 K	 r	 b	 n.a.	 8.200586e-01
7	 2	 159	 flanked	 rf	 4	 0.425000	 2.000000	 flanked_rf_freq_4_amplitude_0.425_rep_5_b_D_2.0.png	 D	 b	 b	 n.a.	 6.662975e-01
7	 2	 160	 flanked	 rf	 4	 0.500000	 2.000000	 flanked_rf_freq_4_amplitude_0.5_rep_9_b_H_2.0.png	 H	 b	 b	 n.a.	 4.255390e-01
7	 2	 161	 flanked	 rf	 4	 0.125000	 2.000000	 flanked_rf_freq_4_amplitude_0.125_rep_2_l_N_2.0.png	 N	 l	 t	 n.a.	 8.468591e-01
7	 2	 162	 flanked	 rf	 4	 0.425000	 2.000000	 flanked_rf_freq_4_amplitude_0.425_rep_1_l_D_2.0.png	 D	 l	 l	 n.a.	 3.245855e-01
7	 2	 163	 flanked	 rf	 4	 0.275000	 2.000000	 flanked_rf_freq_4_amplitude_0.275_rep_3_t_H_2.0.png	 H	 t	 l	 n.a.	 7.411602e-01
7	 2	 164	 flanked	 rf	 4	 0.200000	 2.000000	 flanked_rf_freq_4_amplitude_0.2_rep_0_t_K_2.0.png	 K	 t	 t	 n.a.	 3.578851e-01
7	 2	 165	 flanked	 rf	 4	 0.200000	 2.000000	 flanked_rf_freq_4_amplitude_0.2_rep_2_l_K_2.0.png	 K	 l	 l	 n.a.	 4.468399e-01
7	 2	 166	 flanked	 rf	 4	 0.350000	 2.000000	 flanked_rf_freq_4_amplitude_0.35_rep_9_r_H_2.0.png	 H	 r	 r	 n.a.	 3.048232e-01
7	 2	 167	 flanked	 rf	 4	 0.425000	 2.000000	 flanked_rf_freq_4_amplitude_0.425_rep_9_r_H_2.0.png	 H	 r	 r	 n.a.	 3.028833e-01
7	 2	 168	 flanked	 rf	 4	 0.500000	 2.000000	 flanked_rf_freq_4_amplitude_0.5_rep_4_r_H_2.0.png	 H	 r	 r	 n.a.	 3.047819e-01
7	 2	 169	 flanked	 rf	 4	 0.500000	 2.000000	 flanked_rf_freq_4_amplitude_0.5_rep_1_r_D_2.0.png	 D	 r	 r	 n.a.	 3.260153e-01
7	 2	 170	 flanked	 rf	 4	 0.500000	 2.000000	 flanked_rf_freq_4_amplitude_0.5_rep_2_l_N_2.0.png	 N	 l	 l	 n.a.	 3.424657e-01
7	 2	 171	 flanked	 rf	 4	 0.050000	 2.000000	 flanked_rf_freq_4_amplitude_0.05_rep_9_r_H_2.0.png	 H	 r	 t	 n.a.	 1.178202e+00
7	 2	 172	 flanked	 rf	 4	 0.125000	 2.000000	 flanked_rf_freq_4_amplitude_0.125_rep_4_t_N_2.0.png	 N	 t	 b	 n.a.	 4.687828e-01
7	 2	 173	 flanked	 rf	 4	 0.050000	 2.000000	 flanked_rf_freq_4_amplitude_0.05_rep_5_r_H_2.0.png	 H	 r	 b	 n.a.	 5.258058e-01
7	 2	 174	 flanked	 rf	 4	 0.125000	 2.000000	 flanked_rf_freq_4_amplitude_0.125_rep_6_t_D_2.0.png	 D	 t	 l	 n.a.	 2.920421e-01
7	 2	 175	 flanked	 rf	 4	 0.425000	 2.000000	 flanked_rf_freq_4_amplitude_0.425_rep_3_b_H_2.0.png	 H	 b	 b	 n.a.	 3.463311e-01
7	 2	 176	 flanked	 rf	 4	 0.350000	 2.000000	 flanked_rf_freq_4_amplitude_0.35_rep_6_b_N_2.0.png	 N	 b	 b	 n.a.	 4.991119e-01
7	 2	 177	 flanked	 rf	 4	 0.350000	 2.000000	 flanked_rf_freq_4_amplitude_0.35_rep_8_l_D_2.0.png	 D	 l	 l	 n.a.	 3.681328e-01
7	 2	 178	 flanked	 rf	 4	 0.275000	 2.000000	 flanked_rf_freq_4_amplitude_0.275_rep_8_r_N_2.0.png	 N	 r	 r	 n.a.	 3.585855e-01
7	 2	 179	 flanked	 rf	 4	 0.425000	 2.000000	 flanked_rf_freq_4_amplitude_0.425_rep_4_t_D_2.0.png	 D	 t	 t	 n.a.	 4.202514e-01
7	 2	 180	 flanked	 rf	 4	 0.125000	 2.000000	 flanked_rf_freq_4_amplitude_0.125_rep_4_t_N_2.0.png	 N	 t	 l	 n.a.	 6.067488e-01
7	 2	 181	 flanked	 rf	 4	 0.200000	 2.000000	 flanked_rf_freq_4_amplitude_0.2_rep_5_t_H_2.0.png	 H	 t	 t	 n.a.	 6.535634e-01
7	 2	 182	 flanked	 rf	 4	 0.425000	 2.000000	 flanked_rf_freq_4_amplitude_0.425_rep_6_r_K_2.0.png	 K	 r	 r	 n.a.	 3.704406e-01
7	 2	 183	 flanked	 rf	 4	 0.050000	 2.000000	 flanked_rf_freq_4_amplitude_0.05_rep_6_b_N_2.0.png	 N	 b	 t	 n.a.	 9.864682e-01
7	 2	 184	 flanked	 rf	 4	 0.200000	 2.000000	 flanked_rf_freq_4_amplitude_0.2_rep_8_b_K_2.0.png	 K	 b	 b	 n.a.	 5.378168e-01
7	 2	 185	 flanked	 rf	 4	 0.200000	 2.000000	 flanked_rf_freq_4_amplitude_0.2_rep_0_t_K_2.0.png	 K	 t	 t	 n.a.	 6.520485e-01
7	 2	 186	 flanked	 rf	 4	 0.500000	 2.000000	 flanked_rf_freq_4_amplitude_0.5_rep_7_l_N_2.0.png	 N	 l	 l	 n.a.	 3.220621e-01
7	 2	 187	 flanked	 rf	 4	 0.275000	 2.000000	 flanked_rf_freq_4_amplitude_0.275_rep_2_r_H_2.0.png	 H	 r	 r	 n.a.	 3.472679e-01
7	 2	 188	 flanked	 rf	 4	 0.125000	 2.000000	 flanked_rf_freq_4_amplitude_0.125_rep_9_l_K_2.0.png	 K	 l	 l	 n.a.	 5.066516e-01
7	 2	 189	 flanked	 rf	 4	 0.500000	 2.000000	 flanked_rf_freq_4_amplitude_0.5_rep_5_l_N_2.0.png	 N	 l	 l	 n.a.	 3.195938e-01
7	 2	 190	 flanked	 rf	 4	 0.275000	 2.000000	 flanked_rf_freq_4_amplitude_0.275_rep_0_b_D_2.0.png	 D	 b	 b	 n.a.	 4.717022e-01
7	 2	 191	 flanked	 rf	 4	 0.125000	 2.000000	 flanked_rf_freq_4_amplitude_0.125_rep_0_r_N_2.0.png	 N	 r	 t	 n.a.	 5.104684e-01
7	 2	 192	 flanked	 rf	 4	 0.200000	 2.000000	 flanked_rf_freq_4_amplitude_0.2_rep_5_t_H_2.0.png	 H	 t	 b	 n.a.	 5.876254e-01
7	 2	 193	 flanked	 rf	 4	 0.200000	 2.000000	 flanked_rf_freq_4_amplitude_0.2_rep_4_b_D_2.0.png	 D	 b	 b	 n.a.	 5.296865e-01
7	 2	 194	 flanked	 rf	 4	 0.500000	 2.000000	 flanked_rf_freq_4_amplitude_0.5_rep_8_t_H_2.0.png	 H	 t	 t	 n.a.	 6.902769e-01
7	 2	 195	 flanked	 rf	 4	 0.050000	 2.000000	 flanked_rf_freq_4_amplitude_0.05_rep_7_r_N_2.0.png	 N	 r	 b	 n.a.	 6.013786e-01
7	 2	 196	 flanked	 rf	 4	 0.275000	 2.000000	 flanked_rf_freq_4_amplitude_0.275_rep_4_l_D_2.0.png	 D	 l	 l	 n.a.	 3.482181e-01
7	 2	 197	 flanked	 rf	 4	 0.350000	 2.000000	 flanked_rf_freq_4_amplitude_0.35_rep_7_b_N_2.0.png	 N	 b	 b	 n.a.	 4.458479e-01
7	 2	 198	 flanked	 rf	 4	 0.125000	 2.000000	 flanked_rf_freq_4_amplitude_0.125_rep_9_l_K_2.0.png	 K	 l	 l	 n.a.	 5.720665e-01
7	 2	 199	 flanked	 rf	 4	 0.500000	 2.000000	 flanked_rf_freq_4_amplitude_0.5_rep_6_t_D_2.0.png	 D	 t	 t	 n.a.	 4.129586e-01
7	 2	 200	 flanked	 rf	 4	 0.200000	 2.000000	 flanked_rf_freq_4_amplitude_0.2_rep_2_l_K_2.0.png	 K	 l	 l	 n.a.	 3.450982e-01
7	 2	 201	 flanked	 rf	 4	 0.050000	 2.000000	 flanked_rf_freq_4_amplitude_0.05_rep_9_r_H_2.0.png	 H	 r	 b	 n.a.	 1.005973e+00
7	 2	 202	 flanked	 rf	 4	 0.050000	 2.000000	 flanked_rf_freq_4_amplitude_0.05_rep_6_b_N_2.0.png	 N	 b	 b	 n.a.	 1.105281e+00
7	 2	 203	 flanked	 rf	 4	 0.350000	 2.000000	 flanked_rf_freq_4_amplitude_0.35_rep_6_b_N_2.0.png	 N	 b	 b	 n.a.	 9.258257e-01
7	 2	 204	 flanked	 rf	 4	 0.500000	 2.000000	 flanked_rf_freq_4_amplitude_0.5_rep_1_r_D_2.0.png	 D	 r	 r	 n.a.	 3.183892e-01
7	 2	 205	 flanked	 rf	 4	 0.050000	 2.000000	 flanked_rf_freq_4_amplitude_0.05_rep_8_l_N_2.0.png	 N	 l	 b	 n.a.	 1.169271e+00
7	 2	 206	 flanked	 rf	 4	 0.275000	 2.000000	 flanked_rf_freq_4_amplitude_0.275_rep_0_b_D_2.0.png	 D	 b	 b	 n.a.	 9.216209e-01
7	 2	 207	 flanked	 rf	 4	 0.425000	 2.000000	 flanked_rf_freq_4_amplitude_0.425_rep_5_b_D_2.0.png	 D	 b	 b	 n.a.	 4.923852e-01
7	 2	 208	 flanked	 rf	 4	 0.125000	 2.000000	 flanked_rf_freq_4_amplitude_0.125_rep_5_r_D_2.0.png	 D	 r	 r	 n.a.	 6.327132e-01
7	 2	 209	 flanked	 rf	 4	 0.200000	 2.000000	 flanked_rf_freq_4_amplitude_0.2_rep_7_b_K_2.0.png	 K	 b	 b	 n.a.	 4.391645e-01
7	 2	 210	 flanked	 rf	 4	 0.050000	 2.000000	 flanked_rf_freq_4_amplitude_0.05_rep_8_l_N_2.0.png	 N	 l	 b	 n.a.	 7.153667e-01
