subject	 session	 trial	 flanked	 distortion	 freq	 amplitude	 spacing	 im_name	 targ_letter	 targ_pos	 response	 eyemovement	 RT
2	 2	 1	 flanked	 bex	 4	 4.000000	 2.000000	 flanked_bex_freq_4_amplitude_4_rep_0_t_N_2.0.png	 N	 t	 t	 n.a.	 4.542237e-01
2	 2	 2	 flanked	 bex	 4	 6.000000	 2.000000	 flanked_bex_freq_4_amplitude_6_rep_2_r_N_2.0.png	 N	 r	 r	 n.a.	 2.903852e-01
2	 2	 3	 flanked	 bex	 4	 5.000000	 2.000000	 flanked_bex_freq_4_amplitude_5_rep_0_b_H_2.0.png	 H	 b	 b	 n.a.	 2.799634e-01
2	 2	 4	 flanked	 bex	 4	 6.000000	 2.000000	 flanked_bex_freq_4_amplitude_6_rep_1_t_H_2.0.png	 H	 t	 t	 n.a.	 3.291890e-01
2	 2	 5	 flanked	 bex	 4	 2.000000	 2.000000	 flanked_bex_freq_4_amplitude_2_rep_3_l_D_2.0.png	 D	 l	 b	 n.a.	 3.619853e-01
2	 2	 6	 flanked	 bex	 4	 5.000000	 2.000000	 flanked_bex_freq_4_amplitude_5_rep_0_b_H_2.0.png	 H	 b	 b	 n.a.	 3.186747e-01
2	 2	 7	 flanked	 bex	 4	 5.000000	 2.000000	 flanked_bex_freq_4_amplitude_5_rep_4_t_D_2.0.png	 D	 t	 l	 n.a.	 3.678542e-01
2	 2	 8	 flanked	 bex	 4	 2.000000	 2.000000	 flanked_bex_freq_4_amplitude_2_rep_4_r_D_2.0.png	 D	 r	 r	 n.a.	 4.146600e-01
2	 2	 9	 flanked	 bex	 4	 1.000000	 2.000000	 flanked_bex_freq_4_amplitude_1_rep_2_l_N_2.0.png	 N	 l	 b	 n.a.	 2.956079e-01
2	 2	 10	 flanked	 bex	 4	 4.000000	 2.000000	 flanked_bex_freq_4_amplitude_4_rep_4_b_D_2.0.png	 D	 b	 b	 n.a.	 3.843999e-01
2	 2	 11	 flanked	 bex	 4	 2.000000	 2.000000	 flanked_bex_freq_4_amplitude_2_rep_8_r_K_2.0.png	 K	 r	 b	 n.a.	 3.300240e-01
2	 2	 12	 flanked	 bex	 4	 2.000000	 2.000000	 flanked_bex_freq_4_amplitude_2_rep_6_t_N_2.0.png	 N	 t	 b	 n.a.	 4.359520e-01
2	 2	 13	 flanked	 bex	 4	 7.000000	 2.000000	 flanked_bex_freq_4_amplitude_7_rep_8_b_H_2.0.png	 H	 b	 b	 n.a.	 2.506992e-01
2	 2	 14	 flanked	 bex	 4	 1.000000	 2.000000	 flanked_bex_freq_4_amplitude_1_rep_6_l_D_2.0.png	 D	 l	 b	 n.a.	 4.881857e-01
2	 2	 15	 flanked	 bex	 4	 4.000000	 2.000000	 flanked_bex_freq_4_amplitude_4_rep_6_t_D_2.0.png	 D	 t	 b	 n.a.	 3.565326e-01
2	 2	 16	 flanked	 bex	 4	 1.000000	 2.000000	 flanked_bex_freq_4_amplitude_1_rep_4_l_N_2.0.png	 N	 l	 b	 n.a.	 3.741557e-01
2	 2	 17	 flanked	 bex	 4	 5.000000	 2.000000	 flanked_bex_freq_4_amplitude_5_rep_4_t_D_2.0.png	 D	 t	 t	 n.a.	 4.717301e-01
2	 2	 18	 flanked	 bex	 4	 2.000000	 2.000000	 flanked_bex_freq_4_amplitude_2_rep_5_b_D_2.0.png	 D	 b	 r	 n.a.	 8.800305e-01
2	 2	 19	 flanked	 bex	 4	 4.000000	 2.000000	 flanked_bex_freq_4_amplitude_4_rep_1_b_H_2.0.png	 H	 b	 b	 n.a.	 3.209733e-01
2	 2	 20	 flanked	 bex	 4	 3.000000	 2.000000	 flanked_bex_freq_4_amplitude_3_rep_5_t_N_2.0.png	 N	 t	 t	 n.a.	 3.104116e-01
2	 2	 21	 flanked	 bex	 4	 5.000000	 2.000000	 flanked_bex_freq_4_amplitude_5_rep_1_t_N_2.0.png	 N	 t	 t	 n.a.	 3.380617e-01
2	 2	 22	 flanked	 bex	 4	 7.000000	 2.000000	 flanked_bex_freq_4_amplitude_7_rep_7_r_N_2.0.png	 N	 r	 r	 n.a.	 2.506660e-01
2	 2	 23	 flanked	 bex	 4	 1.000000	 2.000000	 flanked_bex_freq_4_amplitude_1_rep_1_b_D_2.0.png	 D	 b	 t	 n.a.	 5.521091e-01
2	 2	 24	 flanked	 bex	 4	 2.000000	 2.000000	 flanked_bex_freq_4_amplitude_2_rep_3_l_D_2.0.png	 D	 l	 b	 n.a.	 3.669480e-01
2	 2	 25	 flanked	 bex	 4	 4.000000	 2.000000	 flanked_bex_freq_4_amplitude_4_rep_7_b_D_2.0.png	 D	 b	 b	 n.a.	 2.730022e-01
2	 2	 26	 flanked	 bex	 4	 1.000000	 2.000000	 flanked_bex_freq_4_amplitude_1_rep_6_l_D_2.0.png	 D	 l	 l	 n.a.	 4.344553e-01
2	 2	 27	 flanked	 bex	 4	 7.000000	 2.000000	 flanked_bex_freq_4_amplitude_7_rep_2_t_N_2.0.png	 N	 t	 t	 n.a.	 3.000642e-01
2	 2	 28	 flanked	 bex	 4	 5.000000	 2.000000	 flanked_bex_freq_4_amplitude_5_rep_2_l_D_2.0.png	 D	 l	 l	 n.a.	 3.062285e-01
2	 2	 29	 flanked	 bex	 4	 1.000000	 2.000000	 flanked_bex_freq_4_amplitude_1_rep_8_r_N_2.0.png	 N	 r	 l	 n.a.	 7.083931e-01
2	 2	 30	 flanked	 bex	 4	 3.000000	 2.000000	 flanked_bex_freq_4_amplitude_3_rep_0_t_K_2.0.png	 K	 t	 b	 n.a.	 5.085304e-01
2	 2	 31	 flanked	 bex	 4	 2.000000	 2.000000	 flanked_bex_freq_4_amplitude_2_rep_9_t_N_2.0.png	 N	 t	 t	 n.a.	 4.646845e-01
2	 2	 32	 flanked	 bex	 4	 5.000000	 2.000000	 flanked_bex_freq_4_amplitude_5_rep_3_b_K_2.0.png	 K	 b	 b	 n.a.	 2.686741e-01
2	 2	 33	 flanked	 bex	 4	 2.000000	 2.000000	 flanked_bex_freq_4_amplitude_2_rep_7_l_N_2.0.png	 N	 l	 b	 n.a.	 6.745826e-01
2	 2	 34	 flanked	 bex	 4	 4.000000	 2.000000	 flanked_bex_freq_4_amplitude_4_rep_2_r_K_2.0.png	 K	 r	 r	 n.a.	 3.607659e-01
2	 2	 35	 flanked	 bex	 4	 7.000000	 2.000000	 flanked_bex_freq_4_amplitude_7_rep_1_r_D_2.0.png	 D	 r	 r	 n.a.	 2.724800e-01
2	 2	 36	 flanked	 bex	 4	 1.000000	 2.000000	 flanked_bex_freq_4_amplitude_1_rep_5_r_K_2.0.png	 K	 r	 t	 n.a.	 7.226680e-01
2	 2	 37	 flanked	 bex	 4	 6.000000	 2.000000	 flanked_bex_freq_4_amplitude_6_rep_6_r_H_2.0.png	 H	 r	 r	 n.a.	 3.052703e-01
2	 2	 38	 flanked	 bex	 4	 4.000000	 2.000000	 flanked_bex_freq_4_amplitude_4_rep_6_t_D_2.0.png	 D	 t	 b	 n.a.	 4.146736e-01
2	 2	 39	 flanked	 bex	 4	 5.000000	 2.000000	 flanked_bex_freq_4_amplitude_5_rep_5_b_N_2.0.png	 N	 b	 b	 n.a.	 2.691269e-01
2	 2	 40	 flanked	 bex	 4	 2.000000	 2.000000	 flanked_bex_freq_4_amplitude_2_rep_5_b_D_2.0.png	 D	 b	 t	 n.a.	 5.789517e-01
2	 2	 41	 flanked	 bex	 4	 6.000000	 2.000000	 flanked_bex_freq_4_amplitude_6_rep_3_b_N_2.0.png	 N	 b	 b	 n.a.	 2.553658e-01
2	 2	 42	 flanked	 bex	 4	 4.000000	 2.000000	 flanked_bex_freq_4_amplitude_4_rep_7_b_D_2.0.png	 D	 b	 b	 n.a.	 2.775459e-01
2	 2	 43	 flanked	 bex	 4	 1.000000	 2.000000	 flanked_bex_freq_4_amplitude_1_rep_2_l_N_2.0.png	 N	 l	 t	 n.a.	 8.648180e-01
2	 2	 44	 flanked	 bex	 4	 3.000000	 2.000000	 flanked_bex_freq_4_amplitude_3_rep_2_r_K_2.0.png	 K	 r	 l	 n.a.	 5.445104e-01
2	 2	 45	 flanked	 bex	 4	 6.000000	 2.000000	 flanked_bex_freq_4_amplitude_6_rep_9_b_D_2.0.png	 D	 b	 b	 n.a.	 2.617133e-01
2	 2	 46	 flanked	 bex	 4	 5.000000	 2.000000	 flanked_bex_freq_4_amplitude_5_rep_0_b_H_2.0.png	 H	 b	 b	 n.a.	 2.340014e-01
2	 2	 47	 flanked	 bex	 4	 7.000000	 2.000000	 flanked_bex_freq_4_amplitude_7_rep_6_l_D_2.0.png	 D	 l	 l	 n.a.	 3.186452e-01
2	 2	 48	 flanked	 bex	 4	 7.000000	 2.000000	 flanked_bex_freq_4_amplitude_7_rep_0_t_D_2.0.png	 D	 t	 t	 n.a.	 3.588844e-01
2	 2	 49	 flanked	 bex	 4	 2.000000	 2.000000	 flanked_bex_freq_4_amplitude_2_rep_4_r_D_2.0.png	 D	 r	 b	 n.a.	 3.123359e-01
2	 2	 50	 flanked	 bex	 4	 1.000000	 2.000000	 flanked_bex_freq_4_amplitude_1_rep_0_b_D_2.0.png	 D	 b	 t	 n.a.	 3.874829e-01
2	 2	 51	 flanked	 bex	 4	 6.000000	 2.000000	 flanked_bex_freq_4_amplitude_6_rep_7_t_H_2.0.png	 H	 t	 t	 n.a.	 3.024737e-01
2	 2	 52	 flanked	 bex	 4	 3.000000	 2.000000	 flanked_bex_freq_4_amplitude_3_rep_6_t_N_2.0.png	 N	 t	 b	 n.a.	 3.814469e-01
2	 2	 53	 flanked	 bex	 4	 2.000000	 2.000000	 flanked_bex_freq_4_amplitude_2_rep_8_r_K_2.0.png	 K	 r	 l	 n.a.	 4.879304e-01
2	 2	 54	 flanked	 bex	 4	 3.000000	 2.000000	 flanked_bex_freq_4_amplitude_3_rep_4_r_H_2.0.png	 H	 r	 r	 n.a.	 3.589139e-01
2	 2	 55	 flanked	 bex	 4	 7.000000	 2.000000	 flanked_bex_freq_4_amplitude_7_rep_7_r_N_2.0.png	 N	 r	 r	 n.a.	 2.687108e-01
2	 2	 56	 flanked	 bex	 4	 2.000000	 2.000000	 flanked_bex_freq_4_amplitude_2_rep_0_r_K_2.0.png	 K	 r	 b	 n.a.	 3.365012e-01
2	 2	 57	 flanked	 bex	 4	 3.000000	 2.000000	 flanked_bex_freq_4_amplitude_3_rep_9_r_H_2.0.png	 H	 r	 r	 n.a.	 2.671085e-01
2	 2	 58	 flanked	 bex	 4	 2.000000	 2.000000	 flanked_bex_freq_4_amplitude_2_rep_7_l_N_2.0.png	 N	 l	 l	 n.a.	 3.605319e-01
2	 2	 59	 flanked	 bex	 4	 1.000000	 2.000000	 flanked_bex_freq_4_amplitude_1_rep_3_r_N_2.0.png	 N	 r	 t	 n.a.	 8.369532e-01
2	 2	 60	 flanked	 bex	 4	 6.000000	 2.000000	 flanked_bex_freq_4_amplitude_6_rep_7_t_H_2.0.png	 H	 t	 t	 n.a.	 3.573655e-01
2	 2	 61	 flanked	 bex	 4	 7.000000	 2.000000	 flanked_bex_freq_4_amplitude_7_rep_0_t_D_2.0.png	 D	 t	 t	 n.a.	 3.115531e-01
2	 2	 62	 flanked	 bex	 4	 4.000000	 2.000000	 flanked_bex_freq_4_amplitude_4_rep_9_r_H_2.0.png	 H	 r	 r	 n.a.	 3.390612e-01
2	 2	 63	 flanked	 bex	 4	 1.000000	 2.000000	 flanked_bex_freq_4_amplitude_1_rep_5_r_K_2.0.png	 K	 r	 t	 n.a.	 4.956530e-01
2	 2	 64	 flanked	 bex	 4	 7.000000	 2.000000	 flanked_bex_freq_4_amplitude_7_rep_8_b_H_2.0.png	 H	 b	 b	 n.a.	 2.402335e-01
2	 2	 65	 flanked	 bex	 4	 6.000000	 2.000000	 flanked_bex_freq_4_amplitude_6_rep_9_b_D_2.0.png	 D	 b	 b	 n.a.	 2.480019e-01
2	 2	 66	 flanked	 bex	 4	 5.000000	 2.000000	 flanked_bex_freq_4_amplitude_5_rep_1_t_N_2.0.png	 N	 t	 t	 n.a.	 3.463840e-01
2	 2	 67	 flanked	 bex	 4	 7.000000	 2.000000	 flanked_bex_freq_4_amplitude_7_rep_7_r_N_2.0.png	 N	 r	 r	 n.a.	 2.311072e-01
2	 2	 68	 flanked	 bex	 4	 3.000000	 2.000000	 flanked_bex_freq_4_amplitude_3_rep_4_r_H_2.0.png	 H	 r	 r	 n.a.	 2.655673e-01
2	 2	 69	 flanked	 bex	 4	 5.000000	 2.000000	 flanked_bex_freq_4_amplitude_5_rep_3_b_K_2.0.png	 K	 b	 b	 n.a.	 2.511008e-01
2	 2	 70	 flanked	 bex	 4	 7.000000	 2.000000	 flanked_bex_freq_4_amplitude_7_rep_4_b_H_2.0.png	 H	 b	 b	 n.a.	 2.885806e-01
2	 2	 71	 flanked	 bex	 4	 4.000000	 2.000000	 flanked_bex_freq_4_amplitude_4_rep_7_b_D_2.0.png	 D	 b	 b	 n.a.	 2.808443e-01
2	 2	 72	 flanked	 bex	 4	 7.000000	 2.000000	 flanked_bex_freq_4_amplitude_7_rep_0_t_D_2.0.png	 D	 t	 t	 n.a.	 3.433397e-01
2	 2	 73	 flanked	 bex	 4	 3.000000	 2.000000	 flanked_bex_freq_4_amplitude_3_rep_0_t_K_2.0.png	 K	 t	 b	 n.a.	 4.837569e-01
2	 2	 74	 flanked	 bex	 4	 5.000000	 2.000000	 flanked_bex_freq_4_amplitude_5_rep_2_l_D_2.0.png	 D	 l	 l	 n.a.	 3.074410e-01
2	 2	 75	 flanked	 bex	 4	 7.000000	 2.000000	 flanked_bex_freq_4_amplitude_7_rep_5_r_H_2.0.png	 H	 r	 r	 n.a.	 2.471784e-01
2	 2	 76	 flanked	 bex	 4	 4.000000	 2.000000	 flanked_bex_freq_4_amplitude_4_rep_0_t_N_2.0.png	 N	 t	 t	 n.a.	 3.239687e-01
2	 2	 77	 flanked	 bex	 4	 4.000000	 2.000000	 flanked_bex_freq_4_amplitude_4_rep_3_r_K_2.0.png	 K	 r	 r	 n.a.	 4.459326e-01
2	 2	 78	 flanked	 bex	 4	 4.000000	 2.000000	 flanked_bex_freq_4_amplitude_4_rep_0_t_N_2.0.png	 N	 t	 t	 n.a.	 3.257371e-01
2	 2	 79	 flanked	 bex	 4	 3.000000	 2.000000	 flanked_bex_freq_4_amplitude_3_rep_2_r_K_2.0.png	 K	 r	 b	 n.a.	 3.920651e-01
2	 2	 80	 flanked	 bex	 4	 2.000000	 2.000000	 flanked_bex_freq_4_amplitude_2_rep_4_r_D_2.0.png	 D	 r	 b	 n.a.	 4.331759e-01
2	 2	 81	 flanked	 bex	 4	 7.000000	 2.000000	 flanked_bex_freq_4_amplitude_7_rep_9_r_D_2.0.png	 D	 r	 r	 n.a.	 2.440852e-01
2	 2	 82	 flanked	 bex	 4	 2.000000	 2.000000	 flanked_bex_freq_4_amplitude_2_rep_1_l_D_2.0.png	 D	 l	 b	 n.a.	 6.245153e-01
2	 2	 83	 flanked	 bex	 4	 2.000000	 2.000000	 flanked_bex_freq_4_amplitude_2_rep_9_t_N_2.0.png	 N	 t	 t	 n.a.	 4.748054e-01
2	 2	 84	 flanked	 bex	 4	 3.000000	 2.000000	 flanked_bex_freq_4_amplitude_3_rep_7_b_H_2.0.png	 H	 b	 b	 n.a.	 2.980317e-01
2	 2	 85	 flanked	 bex	 4	 3.000000	 2.000000	 flanked_bex_freq_4_amplitude_3_rep_8_t_K_2.0.png	 K	 t	 l	 n.a.	 3.864052e-01
2	 2	 86	 flanked	 bex	 4	 3.000000	 2.000000	 flanked_bex_freq_4_amplitude_3_rep_5_t_N_2.0.png	 N	 t	 t	 n.a.	 3.688059e-01
2	 2	 87	 flanked	 bex	 4	 6.000000	 2.000000	 flanked_bex_freq_4_amplitude_6_rep_4_b_D_2.0.png	 D	 b	 b	 n.a.	 2.773482e-01
2	 2	 88	 flanked	 bex	 4	 5.000000	 2.000000	 flanked_bex_freq_4_amplitude_5_rep_6_r_H_2.0.png	 H	 r	 r	 n.a.	 2.574582e-01
2	 2	 89	 flanked	 bex	 4	 5.000000	 2.000000	 flanked_bex_freq_4_amplitude_5_rep_2_l_D_2.0.png	 D	 l	 l	 n.a.	 2.650449e-01
2	 2	 90	 flanked	 bex	 4	 2.000000	 2.000000	 flanked_bex_freq_4_amplitude_2_rep_6_t_N_2.0.png	 N	 t	 b	 n.a.	 2.683720e-01
2	 2	 91	 flanked	 bex	 4	 6.000000	 2.000000	 flanked_bex_freq_4_amplitude_6_rep_6_r_H_2.0.png	 H	 r	 r	 n.a.	 2.800648e-01
2	 2	 92	 flanked	 bex	 4	 7.000000	 2.000000	 flanked_bex_freq_4_amplitude_7_rep_2_t_N_2.0.png	 N	 t	 t	 n.a.	 3.835082e-01
2	 2	 93	 flanked	 bex	 4	 3.000000	 2.000000	 flanked_bex_freq_4_amplitude_3_rep_3_t_K_2.0.png	 K	 t	 t	 n.a.	 3.663626e-01
2	 2	 94	 flanked	 bex	 4	 5.000000	 2.000000	 flanked_bex_freq_4_amplitude_5_rep_6_r_H_2.0.png	 H	 r	 r	 n.a.	 2.595655e-01
2	 2	 95	 flanked	 bex	 4	 4.000000	 2.000000	 flanked_bex_freq_4_amplitude_4_rep_1_b_H_2.0.png	 H	 b	 b	 n.a.	 2.608228e-01
2	 2	 96	 flanked	 bex	 4	 7.000000	 2.000000	 flanked_bex_freq_4_amplitude_7_rep_5_r_H_2.0.png	 H	 r	 r	 n.a.	 2.309712e-01
2	 2	 97	 flanked	 bex	 4	 4.000000	 2.000000	 flanked_bex_freq_4_amplitude_4_rep_8_l_N_2.0.png	 N	 l	 l	 n.a.	 2.818867e-01
2	 2	 98	 flanked	 bex	 4	 3.000000	 2.000000	 flanked_bex_freq_4_amplitude_3_rep_6_t_N_2.0.png	 N	 t	 b	 n.a.	 3.440101e-01
2	 2	 99	 flanked	 bex	 4	 7.000000	 2.000000	 flanked_bex_freq_4_amplitude_7_rep_4_b_H_2.0.png	 H	 b	 b	 n.a.	 2.620731e-01
2	 2	 100	 flanked	 bex	 4	 1.000000	 2.000000	 flanked_bex_freq_4_amplitude_1_rep_8_r_N_2.0.png	 N	 r	 t	 n.a.	 5.729345e-01
2	 2	 101	 flanked	 bex	 4	 2.000000	 2.000000	 flanked_bex_freq_4_amplitude_2_rep_1_l_D_2.0.png	 D	 l	 l	 n.a.	 4.716812e-01
2	 2	 102	 flanked	 bex	 4	 5.000000	 2.000000	 flanked_bex_freq_4_amplitude_5_rep_6_r_H_2.0.png	 H	 r	 r	 n.a.	 2.301119e-01
2	 2	 103	 flanked	 bex	 4	 2.000000	 2.000000	 flanked_bex_freq_4_amplitude_2_rep_7_l_N_2.0.png	 N	 l	 b	 n.a.	 3.117984e-01
2	 2	 104	 flanked	 bex	 4	 4.000000	 2.000000	 flanked_bex_freq_4_amplitude_4_rep_2_r_K_2.0.png	 K	 r	 r	 n.a.	 3.109536e-01
2	 2	 105	 flanked	 bex	 4	 4.000000	 2.000000	 flanked_bex_freq_4_amplitude_4_rep_3_r_K_2.0.png	 K	 r	 r	 n.a.	 3.486582e-01
2	 2	 106	 flanked	 bex	 4	 6.000000	 2.000000	 flanked_bex_freq_4_amplitude_6_rep_0_l_D_2.0.png	 D	 l	 l	 n.a.	 2.657172e-01
2	 2	 107	 flanked	 bex	 4	 6.000000	 2.000000	 flanked_bex_freq_4_amplitude_6_rep_0_l_D_2.0.png	 D	 l	 l	 n.a.	 2.852943e-01
2	 2	 108	 flanked	 bex	 4	 5.000000	 2.000000	 flanked_bex_freq_4_amplitude_5_rep_5_b_N_2.0.png	 N	 b	 b	 n.a.	 2.610229e-01
2	 2	 109	 flanked	 bex	 4	 6.000000	 2.000000	 flanked_bex_freq_4_amplitude_6_rep_4_b_D_2.0.png	 D	 b	 b	 n.a.	 2.381751e-01
2	 2	 110	 flanked	 bex	 4	 1.000000	 2.000000	 flanked_bex_freq_4_amplitude_1_rep_7_t_D_2.0.png	 D	 t	 l	 n.a.	 7.917738e-01
2	 2	 111	 flanked	 bex	 4	 6.000000	 2.000000	 flanked_bex_freq_4_amplitude_6_rep_6_r_H_2.0.png	 H	 r	 r	 n.a.	 3.416049e-01
2	 2	 112	 flanked	 bex	 4	 5.000000	 2.000000	 flanked_bex_freq_4_amplitude_5_rep_7_t_N_2.0.png	 N	 t	 t	 n.a.	 3.397053e-01
2	 2	 113	 flanked	 bex	 4	 3.000000	 2.000000	 flanked_bex_freq_4_amplitude_3_rep_8_t_K_2.0.png	 K	 t	 t	 n.a.	 8.379793e-01
2	 2	 114	 flanked	 bex	 4	 6.000000	 2.000000	 flanked_bex_freq_4_amplitude_6_rep_0_l_D_2.0.png	 D	 l	 l	 n.a.	 2.922953e-01
2	 2	 115	 flanked	 bex	 4	 5.000000	 2.000000	 flanked_bex_freq_4_amplitude_5_rep_1_t_N_2.0.png	 N	 t	 t	 n.a.	 3.318019e-01
2	 2	 116	 flanked	 bex	 4	 3.000000	 2.000000	 flanked_bex_freq_4_amplitude_3_rep_2_r_K_2.0.png	 K	 r	 t	 n.a.	 8.957651e-01
2	 2	 117	 flanked	 bex	 4	 3.000000	 2.000000	 flanked_bex_freq_4_amplitude_3_rep_6_t_N_2.0.png	 N	 t	 t	 n.a.	 3.934806e-01
2	 2	 118	 flanked	 bex	 4	 4.000000	 2.000000	 flanked_bex_freq_4_amplitude_4_rep_4_b_D_2.0.png	 D	 b	 b	 n.a.	 3.604672e-01
2	 2	 119	 flanked	 bex	 4	 6.000000	 2.000000	 flanked_bex_freq_4_amplitude_6_rep_1_t_H_2.0.png	 H	 t	 t	 n.a.	 3.252171e-01
2	 2	 120	 flanked	 bex	 4	 2.000000	 2.000000	 flanked_bex_freq_4_amplitude_2_rep_5_b_D_2.0.png	 D	 b	 t	 n.a.	 8.642964e-01
2	 2	 121	 flanked	 bex	 4	 1.000000	 2.000000	 flanked_bex_freq_4_amplitude_1_rep_0_b_D_2.0.png	 D	 b	 b	 n.a.	 5.597748e-01
2	 2	 122	 flanked	 bex	 4	 5.000000	 2.000000	 flanked_bex_freq_4_amplitude_5_rep_8_b_N_2.0.png	 N	 b	 b	 n.a.	 2.811503e-01
2	 2	 123	 flanked	 bex	 4	 1.000000	 2.000000	 flanked_bex_freq_4_amplitude_1_rep_9_t_D_2.0.png	 D	 t	 l	 n.a.	 6.352307e-01
2	 2	 124	 flanked	 bex	 4	 4.000000	 2.000000	 flanked_bex_freq_4_amplitude_4_rep_5_l_H_2.0.png	 H	 l	 l	 n.a.	 3.898227e-01
2	 2	 125	 flanked	 bex	 4	 4.000000	 2.000000	 flanked_bex_freq_4_amplitude_4_rep_4_b_D_2.0.png	 D	 b	 b	 n.a.	 3.192312e-01
2	 2	 126	 flanked	 bex	 4	 4.000000	 2.000000	 flanked_bex_freq_4_amplitude_4_rep_9_r_H_2.0.png	 H	 r	 r	 n.a.	 2.761053e-01
2	 2	 127	 flanked	 bex	 4	 6.000000	 2.000000	 flanked_bex_freq_4_amplitude_6_rep_8_l_D_2.0.png	 D	 l	 l	 n.a.	 3.116864e-01
2	 2	 128	 flanked	 bex	 4	 5.000000	 2.000000	 flanked_bex_freq_4_amplitude_5_rep_5_b_N_2.0.png	 N	 b	 b	 n.a.	 3.122663e-01
2	 2	 129	 flanked	 bex	 4	 1.000000	 2.000000	 flanked_bex_freq_4_amplitude_1_rep_2_l_N_2.0.png	 N	 l	 b	 n.a.	 3.357105e-01
2	 2	 130	 flanked	 bex	 4	 1.000000	 2.000000	 flanked_bex_freq_4_amplitude_1_rep_0_b_D_2.0.png	 D	 b	 t	 n.a.	 7.780303e-01
2	 2	 131	 flanked	 bex	 4	 6.000000	 2.000000	 flanked_bex_freq_4_amplitude_6_rep_3_b_N_2.0.png	 N	 b	 b	 n.a.	 3.897697e-01
2	 2	 132	 flanked	 bex	 4	 4.000000	 2.000000	 flanked_bex_freq_4_amplitude_4_rep_1_b_H_2.0.png	 H	 b	 b	 n.a.	 5.659488e-01
2	 2	 133	 flanked	 bex	 4	 2.000000	 2.000000	 flanked_bex_freq_4_amplitude_2_rep_2_t_K_2.0.png	 K	 t	 t	 n.a.	 4.493762e-01
2	 2	 134	 flanked	 bex	 4	 7.000000	 2.000000	 flanked_bex_freq_4_amplitude_7_rep_2_t_N_2.0.png	 N	 t	 t	 n.a.	 4.078710e-01
2	 2	 135	 flanked	 bex	 4	 6.000000	 2.000000	 flanked_bex_freq_4_amplitude_6_rep_8_l_D_2.0.png	 D	 l	 l	 n.a.	 4.264676e-01
2	 2	 136	 flanked	 bex	 4	 6.000000	 2.000000	 flanked_bex_freq_4_amplitude_6_rep_7_t_H_2.0.png	 H	 t	 t	 n.a.	 5.268517e-01
2	 2	 137	 flanked	 bex	 4	 2.000000	 2.000000	 flanked_bex_freq_4_amplitude_2_rep_2_t_K_2.0.png	 K	 t	 t	 n.a.	 5.035960e-01
2	 2	 138	 flanked	 bex	 4	 3.000000	 2.000000	 flanked_bex_freq_4_amplitude_3_rep_9_r_H_2.0.png	 H	 r	 r	 n.a.	 4.064823e-01
2	 2	 139	 flanked	 bex	 4	 7.000000	 2.000000	 flanked_bex_freq_4_amplitude_7_rep_5_r_H_2.0.png	 H	 r	 r	 n.a.	 2.554188e-01
2	 2	 140	 flanked	 bex	 4	 3.000000	 2.000000	 flanked_bex_freq_4_amplitude_3_rep_3_t_K_2.0.png	 K	 t	 t	 n.a.	 5.889342e-01
2	 2	 141	 flanked	 bex	 4	 7.000000	 2.000000	 flanked_bex_freq_4_amplitude_7_rep_9_r_D_2.0.png	 D	 r	 r	 n.a.	 2.996179e-01
2	 2	 142	 flanked	 bex	 4	 1.000000	 2.000000	 flanked_bex_freq_4_amplitude_1_rep_6_l_D_2.0.png	 D	 l	 b	 n.a.	 9.899729e-01
2	 2	 143	 flanked	 bex	 4	 2.000000	 2.000000	 flanked_bex_freq_4_amplitude_2_rep_6_t_N_2.0.png	 N	 t	 b	 n.a.	 4.606923e-01
2	 2	 144	 flanked	 bex	 4	 2.000000	 2.000000	 flanked_bex_freq_4_amplitude_2_rep_2_t_K_2.0.png	 K	 t	 t	 n.a.	 5.072283e-01
2	 2	 145	 flanked	 bex	 4	 4.000000	 2.000000	 flanked_bex_freq_4_amplitude_4_rep_5_l_H_2.0.png	 H	 l	 l	 n.a.	 2.797462e-01
2	 2	 146	 flanked	 bex	 4	 6.000000	 2.000000	 flanked_bex_freq_4_amplitude_6_rep_8_l_D_2.0.png	 D	 l	 l	 n.a.	 2.886671e-01
2	 2	 147	 flanked	 bex	 4	 7.000000	 2.000000	 flanked_bex_freq_4_amplitude_7_rep_3_l_N_2.0.png	 N	 l	 l	 n.a.	 2.914585e-01
2	 2	 148	 flanked	 bex	 4	 7.000000	 2.000000	 flanked_bex_freq_4_amplitude_7_rep_3_l_N_2.0.png	 N	 l	 l	 n.a.	 2.690905e-01
2	 2	 149	 flanked	 bex	 4	 4.000000	 2.000000	 flanked_bex_freq_4_amplitude_4_rep_3_r_K_2.0.png	 K	 r	 r	 n.a.	 3.307410e-01
2	 2	 150	 flanked	 bex	 4	 6.000000	 2.000000	 flanked_bex_freq_4_amplitude_6_rep_5_t_D_2.0.png	 D	 t	 t	 n.a.	 3.238064e-01
2	 2	 151	 flanked	 bex	 4	 7.000000	 2.000000	 flanked_bex_freq_4_amplitude_7_rep_1_r_D_2.0.png	 D	 r	 r	 n.a.	 2.921832e-01
2	 2	 152	 flanked	 bex	 4	 7.000000	 2.000000	 flanked_bex_freq_4_amplitude_7_rep_6_l_D_2.0.png	 D	 l	 l	 n.a.	 3.083085e-01
2	 2	 153	 flanked	 bex	 4	 3.000000	 2.000000	 flanked_bex_freq_4_amplitude_3_rep_3_t_K_2.0.png	 K	 t	 t	 n.a.	 3.145308e-01
2	 2	 154	 flanked	 bex	 4	 1.000000	 2.000000	 flanked_bex_freq_4_amplitude_1_rep_7_t_D_2.0.png	 D	 t	 b	 n.a.	 5.110887e-01
2	 2	 155	 flanked	 bex	 4	 5.000000	 2.000000	 flanked_bex_freq_4_amplitude_5_rep_8_b_N_2.0.png	 N	 b	 b	 n.a.	 2.834346e-01
2	 2	 156	 flanked	 bex	 4	 4.000000	 2.000000	 flanked_bex_freq_4_amplitude_4_rep_8_l_N_2.0.png	 N	 l	 l	 n.a.	 3.856935e-01
2	 2	 157	 flanked	 bex	 4	 1.000000	 2.000000	 flanked_bex_freq_4_amplitude_1_rep_3_r_N_2.0.png	 N	 r	 b	 n.a.	 4.530949e-01
2	 2	 158	 flanked	 bex	 4	 5.000000	 2.000000	 flanked_bex_freq_4_amplitude_5_rep_9_r_D_2.0.png	 D	 r	 r	 n.a.	 3.947708e-01
2	 2	 159	 flanked	 bex	 4	 6.000000	 2.000000	 flanked_bex_freq_4_amplitude_6_rep_5_t_D_2.0.png	 D	 t	 t	 n.a.	 3.415002e-01
2	 2	 160	 flanked	 bex	 4	 7.000000	 2.000000	 flanked_bex_freq_4_amplitude_7_rep_6_l_D_2.0.png	 D	 l	 l	 n.a.	 2.679751e-01
2	 2	 161	 flanked	 bex	 4	 1.000000	 2.000000	 flanked_bex_freq_4_amplitude_1_rep_4_l_N_2.0.png	 N	 l	 b	 n.a.	 4.722374e-01
2	 2	 162	 flanked	 bex	 4	 3.000000	 2.000000	 flanked_bex_freq_4_amplitude_3_rep_5_t_N_2.0.png	 N	 t	 t	 n.a.	 4.738451e-01
2	 2	 163	 flanked	 bex	 4	 3.000000	 2.000000	 flanked_bex_freq_4_amplitude_3_rep_8_t_K_2.0.png	 K	 t	 l	 n.a.	 5.566889e-01
2	 2	 164	 flanked	 bex	 4	 5.000000	 2.000000	 flanked_bex_freq_4_amplitude_5_rep_4_t_D_2.0.png	 D	 t	 t	 n.a.	 3.668590e-01
2	 2	 165	 flanked	 bex	 4	 5.000000	 2.000000	 flanked_bex_freq_4_amplitude_5_rep_7_t_N_2.0.png	 N	 t	 t	 n.a.	 4.637435e-01
2	 2	 166	 flanked	 bex	 4	 6.000000	 2.000000	 flanked_bex_freq_4_amplitude_6_rep_4_b_D_2.0.png	 D	 b	 b	 n.a.	 3.382056e-01
2	 2	 167	 flanked	 bex	 4	 4.000000	 2.000000	 flanked_bex_freq_4_amplitude_4_rep_2_r_K_2.0.png	 K	 r	 r	 n.a.	 2.995275e-01
2	 2	 168	 flanked	 bex	 4	 1.000000	 2.000000	 flanked_bex_freq_4_amplitude_1_rep_8_r_N_2.0.png	 N	 r	 b	 n.a.	 5.987690e-01
2	 2	 169	 flanked	 bex	 4	 2.000000	 2.000000	 flanked_bex_freq_4_amplitude_2_rep_9_t_N_2.0.png	 N	 t	 t	 n.a.	 4.422335e-01
2	 2	 170	 flanked	 bex	 4	 4.000000	 2.000000	 flanked_bex_freq_4_amplitude_4_rep_8_l_N_2.0.png	 N	 l	 l	 n.a.	 3.738391e-01
2	 2	 171	 flanked	 bex	 4	 1.000000	 2.000000	 flanked_bex_freq_4_amplitude_1_rep_9_t_D_2.0.png	 D	 t	 b	 n.a.	 4.652698e-01
2	 2	 172	 flanked	 bex	 4	 2.000000	 2.000000	 flanked_bex_freq_4_amplitude_2_rep_8_r_K_2.0.png	 K	 r	 r	 n.a.	 3.792704e-01
2	 2	 173	 flanked	 bex	 4	 3.000000	 2.000000	 flanked_bex_freq_4_amplitude_3_rep_1_t_N_2.0.png	 N	 t	 b	 n.a.	 6.362889e-01
2	 2	 174	 flanked	 bex	 4	 5.000000	 2.000000	 flanked_bex_freq_4_amplitude_5_rep_9_r_D_2.0.png	 D	 r	 r	 n.a.	 2.621011e-01
2	 2	 175	 flanked	 bex	 4	 5.000000	 2.000000	 flanked_bex_freq_4_amplitude_5_rep_7_t_N_2.0.png	 N	 t	 t	 n.a.	 4.058693e-01
2	 2	 176	 flanked	 bex	 4	 3.000000	 2.000000	 flanked_bex_freq_4_amplitude_3_rep_7_b_H_2.0.png	 H	 b	 b	 n.a.	 7.240331e-01
2	 2	 177	 flanked	 bex	 4	 4.000000	 2.000000	 flanked_bex_freq_4_amplitude_4_rep_5_l_H_2.0.png	 H	 l	 l	 n.a.	 3.554631e-01
2	 2	 178	 flanked	 bex	 4	 4.000000	 2.000000	 flanked_bex_freq_4_amplitude_4_rep_9_r_H_2.0.png	 H	 r	 r	 n.a.	 3.071078e-01
2	 2	 179	 flanked	 bex	 4	 3.000000	 2.000000	 flanked_bex_freq_4_amplitude_3_rep_1_t_N_2.0.png	 N	 t	 b	 n.a.	 5.648654e-01
2	 2	 180	 flanked	 bex	 4	 7.000000	 2.000000	 flanked_bex_freq_4_amplitude_7_rep_9_r_D_2.0.png	 D	 r	 r	 n.a.	 2.377202e-01
2	 2	 181	 flanked	 bex	 4	 6.000000	 2.000000	 flanked_bex_freq_4_amplitude_6_rep_9_b_D_2.0.png	 D	 b	 b	 n.a.	 2.967411e-01
2	 2	 182	 flanked	 bex	 4	 7.000000	 2.000000	 flanked_bex_freq_4_amplitude_7_rep_1_r_D_2.0.png	 D	 r	 r	 n.a.	 2.728139e-01
2	 2	 183	 flanked	 bex	 4	 2.000000	 2.000000	 flanked_bex_freq_4_amplitude_2_rep_3_l_D_2.0.png	 D	 l	 l	 n.a.	 4.382730e-01
2	 2	 184	 flanked	 bex	 4	 5.000000	 2.000000	 flanked_bex_freq_4_amplitude_5_rep_3_b_K_2.0.png	 K	 b	 b	 n.a.	 2.602715e-01
2	 2	 185	 flanked	 bex	 4	 2.000000	 2.000000	 flanked_bex_freq_4_amplitude_2_rep_0_r_K_2.0.png	 K	 r	 l	 n.a.	 5.260671e-01
2	 2	 186	 flanked	 bex	 4	 1.000000	 2.000000	 flanked_bex_freq_4_amplitude_1_rep_5_r_K_2.0.png	 K	 r	 b	 n.a.	 7.159783e-01
2	 2	 187	 flanked	 bex	 4	 3.000000	 2.000000	 flanked_bex_freq_4_amplitude_3_rep_4_r_H_2.0.png	 H	 r	 r	 n.a.	 2.742395e-01
2	 2	 188	 flanked	 bex	 4	 1.000000	 2.000000	 flanked_bex_freq_4_amplitude_1_rep_9_t_D_2.0.png	 D	 t	 b	 n.a.	 4.201059e-01
2	 2	 189	 flanked	 bex	 4	 5.000000	 2.000000	 flanked_bex_freq_4_amplitude_5_rep_8_b_N_2.0.png	 N	 b	 b	 n.a.	 3.655279e-01
2	 2	 190	 flanked	 bex	 4	 7.000000	 2.000000	 flanked_bex_freq_4_amplitude_7_rep_4_b_H_2.0.png	 H	 b	 b	 n.a.	 3.327195e-01
2	 2	 191	 flanked	 bex	 4	 7.000000	 2.000000	 flanked_bex_freq_4_amplitude_7_rep_3_l_N_2.0.png	 N	 l	 l	 n.a.	 2.981239e-01
2	 2	 192	 flanked	 bex	 4	 2.000000	 2.000000	 flanked_bex_freq_4_amplitude_2_rep_1_l_D_2.0.png	 D	 l	 b	 n.a.	 3.250345e-01
2	 2	 193	 flanked	 bex	 4	 6.000000	 2.000000	 flanked_bex_freq_4_amplitude_6_rep_5_t_D_2.0.png	 D	 t	 t	 n.a.	 3.896450e-01
2	 2	 194	 flanked	 bex	 4	 5.000000	 2.000000	 flanked_bex_freq_4_amplitude_5_rep_9_r_D_2.0.png	 D	 r	 r	 n.a.	 2.908839e-01
2	 2	 195	 flanked	 bex	 4	 1.000000	 2.000000	 flanked_bex_freq_4_amplitude_1_rep_4_l_N_2.0.png	 N	 l	 b	 n.a.	 3.208173e-01
2	 2	 196	 flanked	 bex	 4	 1.000000	 2.000000	 flanked_bex_freq_4_amplitude_1_rep_3_r_N_2.0.png	 N	 r	 t	 n.a.	 5.404076e-01
2	 2	 197	 flanked	 bex	 4	 6.000000	 2.000000	 flanked_bex_freq_4_amplitude_6_rep_2_r_N_2.0.png	 N	 r	 r	 n.a.	 2.678137e-01
2	 2	 198	 flanked	 bex	 4	 6.000000	 2.000000	 flanked_bex_freq_4_amplitude_6_rep_1_t_H_2.0.png	 H	 t	 t	 n.a.	 3.824972e-01
2	 2	 199	 flanked	 bex	 4	 3.000000	 2.000000	 flanked_bex_freq_4_amplitude_3_rep_7_b_H_2.0.png	 H	 b	 b	 n.a.	 4.831191e-01
2	 2	 200	 flanked	 bex	 4	 6.000000	 2.000000	 flanked_bex_freq_4_amplitude_6_rep_3_b_N_2.0.png	 N	 b	 b	 n.a.	 2.536938e-01
2	 2	 201	 flanked	 bex	 4	 3.000000	 2.000000	 flanked_bex_freq_4_amplitude_3_rep_9_r_H_2.0.png	 H	 r	 r	 n.a.	 2.684486e-01
2	 2	 202	 flanked	 bex	 4	 7.000000	 2.000000	 flanked_bex_freq_4_amplitude_7_rep_8_b_H_2.0.png	 H	 b	 b	 n.a.	 2.577333e-01
2	 2	 203	 flanked	 bex	 4	 1.000000	 2.000000	 flanked_bex_freq_4_amplitude_1_rep_1_b_D_2.0.png	 D	 b	 l	 n.a.	 5.381558e-01
2	 2	 204	 flanked	 bex	 4	 1.000000	 2.000000	 flanked_bex_freq_4_amplitude_1_rep_7_t_D_2.0.png	 D	 t	 b	 n.a.	 3.735626e-01
2	 2	 205	 flanked	 bex	 4	 4.000000	 2.000000	 flanked_bex_freq_4_amplitude_4_rep_6_t_D_2.0.png	 D	 t	 t	 n.a.	 4.198880e-01
2	 2	 206	 flanked	 bex	 4	 2.000000	 2.000000	 flanked_bex_freq_4_amplitude_2_rep_0_r_K_2.0.png	 K	 r	 b	 n.a.	 6.013339e-01
2	 2	 207	 flanked	 bex	 4	 3.000000	 2.000000	 flanked_bex_freq_4_amplitude_3_rep_0_t_K_2.0.png	 K	 t	 t	 n.a.	 4.708921e-01
2	 2	 208	 flanked	 bex	 4	 6.000000	 2.000000	 flanked_bex_freq_4_amplitude_6_rep_2_r_N_2.0.png	 N	 r	 r	 n.a.	 2.495005e-01
2	 2	 209	 flanked	 bex	 4	 1.000000	 2.000000	 flanked_bex_freq_4_amplitude_1_rep_1_b_D_2.0.png	 D	 b	 b	 n.a.	 2.894526e-01
2	 2	 210	 flanked	 bex	 4	 3.000000	 2.000000	 flanked_bex_freq_4_amplitude_3_rep_1_t_N_2.0.png	 N	 t	 t	 n.a.	 6.219821e-01
