subject	 session	 trial	 flanked	 distortion	 freq	 amplitude	 spacing	 im_name	 targ_letter	 targ_pos	 response	 eyemovement	 RT
5	 2	 1	 flanked	 rf	 4	 0.050000	 2.000000	 flanked_rf_freq_4_amplitude_0.05_rep_7_b_K_2.0.png	 K	 b	 b	 n.a.	 8.578424e-01
5	 2	 2	 flanked	 rf	 4	 0.125000	 2.000000	 flanked_rf_freq_4_amplitude_0.125_rep_9_l_D_2.0.png	 D	 l	 r	 n.a.	 2.419763e-01
5	 2	 3	 flanked	 rf	 4	 0.200000	 2.000000	 flanked_rf_freq_4_amplitude_0.2_rep_9_b_N_2.0.png	 N	 b	 t	 n.a.	 7.314309e-01
5	 2	 4	 flanked	 rf	 4	 0.425000	 2.000000	 flanked_rf_freq_4_amplitude_0.425_rep_6_l_N_2.0.png	 N	 l	 b	 n.a.	 1.219575e+00
5	 2	 5	 flanked	 rf	 4	 0.200000	 2.000000	 flanked_rf_freq_4_amplitude_0.2_rep_3_r_D_2.0.png	 D	 r	 r	 n.a.	 4.756876e-01
5	 2	 6	 flanked	 rf	 4	 0.350000	 2.000000	 flanked_rf_freq_4_amplitude_0.35_rep_1_t_K_2.0.png	 K	 t	 t	 n.a.	 6.583128e-01
5	 2	 7	 flanked	 rf	 4	 0.500000	 2.000000	 flanked_rf_freq_4_amplitude_0.5_rep_8_t_D_2.0.png	 D	 t	 l	 n.a.	 1.135810e+00
5	 2	 8	 flanked	 rf	 4	 0.275000	 2.000000	 flanked_rf_freq_4_amplitude_0.275_rep_8_t_N_2.0.png	 N	 t	 t	 n.a.	 5.974554e-01
5	 2	 9	 flanked	 rf	 4	 0.125000	 2.000000	 flanked_rf_freq_4_amplitude_0.125_rep_9_l_D_2.0.png	 D	 l	 r	 n.a.	 8.557257e-01
5	 2	 10	 flanked	 rf	 4	 0.200000	 2.000000	 flanked_rf_freq_4_amplitude_0.2_rep_9_b_N_2.0.png	 N	 b	 t	 n.a.	 1.097804e+00
5	 2	 11	 flanked	 rf	 4	 0.125000	 2.000000	 flanked_rf_freq_4_amplitude_0.125_rep_8_r_H_2.0.png	 H	 r	 t	 n.a.	 5.937670e-01
5	 2	 12	 flanked	 rf	 4	 0.425000	 2.000000	 flanked_rf_freq_4_amplitude_0.425_rep_8_l_H_2.0.png	 H	 l	 r	 n.a.	 8.786176e-01
5	 2	 13	 flanked	 rf	 4	 0.425000	 2.000000	 flanked_rf_freq_4_amplitude_0.425_rep_6_l_N_2.0.png	 N	 l	 l	 n.a.	 1.047837e+00
5	 2	 14	 flanked	 rf	 4	 0.050000	 2.000000	 flanked_rf_freq_4_amplitude_0.05_rep_0_t_D_2.0.png	 D	 t	 b	 n.a.	 5.999443e-01
5	 2	 15	 flanked	 rf	 4	 0.425000	 2.000000	 flanked_rf_freq_4_amplitude_0.425_rep_1_t_D_2.0.png	 D	 t	 l	 n.a.	 1.000165e+00
5	 2	 16	 flanked	 rf	 4	 0.200000	 2.000000	 flanked_rf_freq_4_amplitude_0.2_rep_8_l_K_2.0.png	 K	 l	 t	 n.a.	 8.298339e-01
5	 2	 17	 flanked	 rf	 4	 0.050000	 2.000000	 flanked_rf_freq_4_amplitude_0.05_rep_3_t_K_2.0.png	 K	 t	 t	 n.a.	 5.935484e-01
5	 2	 18	 flanked	 rf	 4	 0.050000	 2.000000	 flanked_rf_freq_4_amplitude_0.05_rep_1_l_H_2.0.png	 H	 l	 t	 n.a.	 1.066704e+00
5	 2	 19	 flanked	 rf	 4	 0.125000	 2.000000	 flanked_rf_freq_4_amplitude_0.125_rep_3_l_K_2.0.png	 K	 l	 l	 n.a.	 7.105477e-01
5	 2	 20	 flanked	 rf	 4	 0.425000	 2.000000	 flanked_rf_freq_4_amplitude_0.425_rep_0_l_H_2.0.png	 H	 l	 t	 n.a.	 1.086648e+00
5	 2	 21	 flanked	 rf	 4	 0.275000	 2.000000	 flanked_rf_freq_4_amplitude_0.275_rep_2_l_D_2.0.png	 D	 l	 t	 n.a.	 8.436269e-01
5	 2	 22	 flanked	 rf	 4	 0.350000	 2.000000	 flanked_rf_freq_4_amplitude_0.35_rep_3_b_H_2.0.png	 H	 b	 l	 n.a.	 8.951340e-01
5	 2	 23	 flanked	 rf	 4	 0.425000	 2.000000	 flanked_rf_freq_4_amplitude_0.425_rep_4_l_D_2.0.png	 D	 l	 l	 n.a.	 7.831058e-01
5	 2	 24	 flanked	 rf	 4	 0.425000	 2.000000	 flanked_rf_freq_4_amplitude_0.425_rep_3_b_K_2.0.png	 K	 b	 l	 n.a.	 7.652019e-01
5	 2	 25	 flanked	 rf	 4	 0.425000	 2.000000	 flanked_rf_freq_4_amplitude_0.425_rep_5_b_K_2.0.png	 K	 b	 b	 n.a.	 5.553270e-01
5	 2	 26	 flanked	 rf	 4	 0.350000	 2.000000	 flanked_rf_freq_4_amplitude_0.35_rep_0_t_D_2.0.png	 D	 t	 t	 n.a.	 7.308748e-01
5	 2	 27	 flanked	 rf	 4	 0.050000	 2.000000	 flanked_rf_freq_4_amplitude_0.05_rep_2_b_N_2.0.png	 N	 b	 b	 n.a.	 1.225043e+00
5	 2	 28	 flanked	 rf	 4	 0.275000	 2.000000	 flanked_rf_freq_4_amplitude_0.275_rep_2_l_D_2.0.png	 D	 l	 l	 n.a.	 7.784226e-01
5	 2	 29	 flanked	 rf	 4	 0.200000	 2.000000	 flanked_rf_freq_4_amplitude_0.2_rep_6_b_H_2.0.png	 H	 b	 b	 n.a.	 5.595491e-01
5	 2	 30	 flanked	 rf	 4	 0.050000	 2.000000	 flanked_rf_freq_4_amplitude_0.05_rep_7_b_K_2.0.png	 K	 b	 b	 n.a.	 1.009600e+00
5	 2	 31	 flanked	 rf	 4	 0.125000	 2.000000	 flanked_rf_freq_4_amplitude_0.125_rep_0_r_D_2.0.png	 D	 r	 t	 n.a.	 1.365673e+00
5	 2	 32	 flanked	 rf	 4	 0.200000	 2.000000	 flanked_rf_freq_4_amplitude_0.2_rep_6_b_H_2.0.png	 H	 b	 b	 n.a.	 5.864586e-01
5	 2	 33	 flanked	 rf	 4	 0.275000	 2.000000	 flanked_rf_freq_4_amplitude_0.275_rep_6_t_H_2.0.png	 H	 t	 t	 n.a.	 8.550339e-01
5	 2	 34	 flanked	 rf	 4	 0.350000	 2.000000	 flanked_rf_freq_4_amplitude_0.35_rep_9_r_H_2.0.png	 H	 r	 r	 n.a.	 4.978695e-01
5	 2	 35	 flanked	 rf	 4	 0.350000	 2.000000	 flanked_rf_freq_4_amplitude_0.35_rep_6_r_N_2.0.png	 N	 r	 r	 n.a.	 6.583826e-01
5	 2	 36	 flanked	 rf	 4	 0.425000	 2.000000	 flanked_rf_freq_4_amplitude_0.425_rep_2_t_D_2.0.png	 D	 t	 t	 n.a.	 5.827471e-01
5	 2	 37	 flanked	 rf	 4	 0.500000	 2.000000	 flanked_rf_freq_4_amplitude_0.5_rep_2_b_D_2.0.png	 D	 b	 r	 n.a.	 1.180439e+00
5	 2	 38	 flanked	 rf	 4	 0.200000	 2.000000	 flanked_rf_freq_4_amplitude_0.2_rep_5_l_N_2.0.png	 N	 l	 r	 n.a.	 1.383433e+00
5	 2	 39	 flanked	 rf	 4	 0.500000	 2.000000	 flanked_rf_freq_4_amplitude_0.5_rep_9_b_N_2.0.png	 N	 b	 l	 n.a.	 1.355097e+00
5	 2	 40	 flanked	 rf	 4	 0.275000	 2.000000	 flanked_rf_freq_4_amplitude_0.275_rep_1_r_H_2.0.png	 H	 r	 b	 n.a.	 4.120121e-01
5	 2	 41	 flanked	 rf	 4	 0.200000	 2.000000	 flanked_rf_freq_4_amplitude_0.2_rep_0_l_N_2.0.png	 N	 l	 t	 n.a.	 8.988684e-01
5	 2	 42	 flanked	 rf	 4	 0.500000	 2.000000	 flanked_rf_freq_4_amplitude_0.5_rep_8_t_D_2.0.png	 D	 t	 l	 n.a.	 7.333713e-01
5	 2	 43	 flanked	 rf	 4	 0.425000	 2.000000	 flanked_rf_freq_4_amplitude_0.425_rep_0_l_H_2.0.png	 H	 l	 t	 n.a.	 6.186578e-01
5	 2	 44	 flanked	 rf	 4	 0.500000	 2.000000	 flanked_rf_freq_4_amplitude_0.5_rep_9_b_N_2.0.png	 N	 b	 b	 n.a.	 9.536516e-01
5	 2	 45	 flanked	 rf	 4	 0.425000	 2.000000	 flanked_rf_freq_4_amplitude_0.425_rep_3_b_K_2.0.png	 K	 b	 b	 n.a.	 8.541043e-01
5	 2	 46	 flanked	 rf	 4	 0.275000	 2.000000	 flanked_rf_freq_4_amplitude_0.275_rep_3_l_K_2.0.png	 K	 l	 t	 n.a.	 8.146477e-01
5	 2	 47	 flanked	 rf	 4	 0.125000	 2.000000	 flanked_rf_freq_4_amplitude_0.125_rep_5_l_K_2.0.png	 K	 l	 r	 n.a.	 6.459827e-01
5	 2	 48	 flanked	 rf	 4	 0.125000	 2.000000	 flanked_rf_freq_4_amplitude_0.125_rep_8_r_H_2.0.png	 H	 r	 t	 n.a.	 7.971520e-01
5	 2	 49	 flanked	 rf	 4	 0.350000	 2.000000	 flanked_rf_freq_4_amplitude_0.35_rep_3_b_H_2.0.png	 H	 b	 l	 n.a.	 1.044988e+00
5	 2	 50	 flanked	 rf	 4	 0.350000	 2.000000	 flanked_rf_freq_4_amplitude_0.35_rep_1_t_K_2.0.png	 K	 t	 t	 n.a.	 4.788711e-01
5	 2	 51	 flanked	 rf	 4	 0.125000	 2.000000	 flanked_rf_freq_4_amplitude_0.125_rep_2_r_H_2.0.png	 H	 r	 r	 n.a.	 5.191031e-01
5	 2	 52	 flanked	 rf	 4	 0.050000	 2.000000	 flanked_rf_freq_4_amplitude_0.05_rep_1_l_H_2.0.png	 H	 l	 t	 n.a.	 6.049063e-01
5	 2	 53	 flanked	 rf	 4	 0.125000	 2.000000	 flanked_rf_freq_4_amplitude_0.125_rep_1_r_H_2.0.png	 H	 r	 t	 n.a.	 6.006331e-01
5	 2	 54	 flanked	 rf	 4	 0.500000	 2.000000	 flanked_rf_freq_4_amplitude_0.5_rep_6_t_N_2.0.png	 N	 t	 l	 n.a.	 4.365039e-01
5	 2	 55	 flanked	 rf	 4	 0.425000	 2.000000	 flanked_rf_freq_4_amplitude_0.425_rep_8_l_H_2.0.png	 H	 l	 r	 n.a.	 8.331021e-01
5	 2	 56	 flanked	 rf	 4	 0.200000	 2.000000	 flanked_rf_freq_4_amplitude_0.2_rep_1_r_K_2.0.png	 K	 r	 r	 n.a.	 5.024438e-01
5	 2	 57	 flanked	 rf	 4	 0.125000	 2.000000	 flanked_rf_freq_4_amplitude_0.125_rep_0_r_D_2.0.png	 D	 r	 t	 n.a.	 6.206259e-01
5	 2	 58	 flanked	 rf	 4	 0.275000	 2.000000	 flanked_rf_freq_4_amplitude_0.275_rep_4_l_K_2.0.png	 K	 l	 l	 n.a.	 8.131132e-01
5	 2	 59	 flanked	 rf	 4	 0.125000	 2.000000	 flanked_rf_freq_4_amplitude_0.125_rep_6_l_K_2.0.png	 K	 l	 b	 n.a.	 8.427520e-01
5	 2	 60	 flanked	 rf	 4	 0.350000	 2.000000	 flanked_rf_freq_4_amplitude_0.35_rep_8_b_N_2.0.png	 N	 b	 l	 n.a.	 1.137965e+00
5	 2	 61	 flanked	 rf	 4	 0.200000	 2.000000	 flanked_rf_freq_4_amplitude_0.2_rep_3_r_D_2.0.png	 D	 r	 t	 n.a.	 7.200475e-01
5	 2	 62	 flanked	 rf	 4	 0.275000	 2.000000	 flanked_rf_freq_4_amplitude_0.275_rep_5_t_H_2.0.png	 H	 t	 t	 n.a.	 5.158632e-01
5	 2	 63	 flanked	 rf	 4	 0.050000	 2.000000	 flanked_rf_freq_4_amplitude_0.05_rep_4_b_K_2.0.png	 K	 b	 r	 n.a.	 8.850476e-01
5	 2	 64	 flanked	 rf	 4	 0.125000	 2.000000	 flanked_rf_freq_4_amplitude_0.125_rep_9_l_D_2.0.png	 D	 l	 t	 n.a.	 4.350174e-01
5	 2	 65	 flanked	 rf	 4	 0.425000	 2.000000	 flanked_rf_freq_4_amplitude_0.425_rep_0_l_H_2.0.png	 H	 l	 l	 n.a.	 7.704723e-01
5	 2	 66	 flanked	 rf	 4	 0.050000	 2.000000	 flanked_rf_freq_4_amplitude_0.05_rep_3_t_K_2.0.png	 K	 t	 t	 n.a.	 6.279613e-01
5	 2	 67	 flanked	 rf	 4	 0.500000	 2.000000	 flanked_rf_freq_4_amplitude_0.5_rep_8_t_D_2.0.png	 D	 t	 l	 n.a.	 1.289641e+00
5	 2	 68	 flanked	 rf	 4	 0.500000	 2.000000	 flanked_rf_freq_4_amplitude_0.5_rep_7_r_H_2.0.png	 H	 r	 r	 n.a.	 4.077686e-01
5	 2	 69	 flanked	 rf	 4	 0.200000	 2.000000	 flanked_rf_freq_4_amplitude_0.2_rep_4_l_H_2.0.png	 H	 l	 l	 n.a.	 1.162344e+00
5	 2	 70	 flanked	 rf	 4	 0.050000	 2.000000	 flanked_rf_freq_4_amplitude_0.05_rep_3_t_K_2.0.png	 K	 t	 t	 n.a.	 8.572362e-01
5	 2	 71	 flanked	 rf	 4	 0.350000	 2.000000	 flanked_rf_freq_4_amplitude_0.35_rep_3_b_H_2.0.png	 H	 b	 r	 n.a.	 6.411793e-01
5	 2	 72	 flanked	 rf	 4	 0.350000	 2.000000	 flanked_rf_freq_4_amplitude_0.35_rep_5_b_N_2.0.png	 N	 b	 r	 n.a.	 8.114676e-01
5	 2	 73	 flanked	 rf	 4	 0.050000	 2.000000	 flanked_rf_freq_4_amplitude_0.05_rep_8_l_D_2.0.png	 D	 l	 t	 n.a.	 6.069662e-01
5	 2	 74	 flanked	 rf	 4	 0.275000	 2.000000	 flanked_rf_freq_4_amplitude_0.275_rep_0_r_N_2.0.png	 N	 r	 r	 n.a.	 5.682455e-01
5	 2	 75	 flanked	 rf	 4	 0.350000	 2.000000	 flanked_rf_freq_4_amplitude_0.35_rep_1_t_K_2.0.png	 K	 t	 t	 n.a.	 5.398442e-01
5	 2	 76	 flanked	 rf	 4	 0.200000	 2.000000	 flanked_rf_freq_4_amplitude_0.2_rep_2_t_H_2.0.png	 H	 t	 t	 n.a.	 5.116125e-01
5	 2	 77	 flanked	 rf	 4	 0.125000	 2.000000	 flanked_rf_freq_4_amplitude_0.125_rep_4_l_K_2.0.png	 K	 l	 l	 n.a.	 6.476036e-01
5	 2	 78	 flanked	 rf	 4	 0.200000	 2.000000	 flanked_rf_freq_4_amplitude_0.2_rep_8_l_K_2.0.png	 K	 l	 l	 n.a.	 9.703328e-01
5	 2	 79	 flanked	 rf	 4	 0.275000	 2.000000	 flanked_rf_freq_4_amplitude_0.275_rep_2_l_D_2.0.png	 D	 l	 l	 n.a.	 9.278279e-01
5	 2	 80	 flanked	 rf	 4	 0.050000	 2.000000	 flanked_rf_freq_4_amplitude_0.05_rep_2_b_N_2.0.png	 N	 b	 r	 n.a.	 1.150121e+00
5	 2	 81	 flanked	 rf	 4	 0.350000	 2.000000	 flanked_rf_freq_4_amplitude_0.35_rep_9_r_H_2.0.png	 H	 r	 r	 n.a.	 5.086680e-01
5	 2	 82	 flanked	 rf	 4	 0.350000	 2.000000	 flanked_rf_freq_4_amplitude_0.35_rep_4_l_K_2.0.png	 K	 l	 t	 n.a.	 7.112455e-01
5	 2	 83	 flanked	 rf	 4	 0.125000	 2.000000	 flanked_rf_freq_4_amplitude_0.125_rep_8_r_H_2.0.png	 H	 r	 r	 n.a.	 6.891929e-01
5	 2	 84	 flanked	 rf	 4	 0.425000	 2.000000	 flanked_rf_freq_4_amplitude_0.425_rep_7_l_D_2.0.png	 D	 l	 l	 n.a.	 6.645103e-01
5	 2	 85	 flanked	 rf	 4	 0.275000	 2.000000	 flanked_rf_freq_4_amplitude_0.275_rep_3_l_K_2.0.png	 K	 l	 r	 n.a.	 6.355353e-01
5	 2	 86	 flanked	 rf	 4	 0.425000	 2.000000	 flanked_rf_freq_4_amplitude_0.425_rep_7_l_D_2.0.png	 D	 l	 l	 n.a.	 4.929495e-01
5	 2	 87	 flanked	 rf	 4	 0.500000	 2.000000	 flanked_rf_freq_4_amplitude_0.5_rep_4_l_H_2.0.png	 H	 l	 l	 n.a.	 7.170479e-01
5	 2	 88	 flanked	 rf	 4	 0.200000	 2.000000	 flanked_rf_freq_4_amplitude_0.2_rep_6_b_H_2.0.png	 H	 b	 b	 n.a.	 7.435555e-01
5	 2	 89	 flanked	 rf	 4	 0.350000	 2.000000	 flanked_rf_freq_4_amplitude_0.35_rep_6_r_N_2.0.png	 N	 r	 r	 n.a.	 5.920262e-01
5	 2	 90	 flanked	 rf	 4	 0.425000	 2.000000	 flanked_rf_freq_4_amplitude_0.425_rep_7_l_D_2.0.png	 D	 l	 l	 n.a.	 6.155812e-01
5	 2	 91	 flanked	 rf	 4	 0.500000	 2.000000	 flanked_rf_freq_4_amplitude_0.5_rep_2_b_D_2.0.png	 D	 b	 t	 n.a.	 1.047350e+00
5	 2	 92	 flanked	 rf	 4	 0.125000	 2.000000	 flanked_rf_freq_4_amplitude_0.125_rep_4_l_K_2.0.png	 K	 l	 r	 n.a.	 7.339917e-01
5	 2	 93	 flanked	 rf	 4	 0.350000	 2.000000	 flanked_rf_freq_4_amplitude_0.35_rep_4_l_K_2.0.png	 K	 l	 l	 n.a.	 6.376607e-01
5	 2	 94	 flanked	 rf	 4	 0.425000	 2.000000	 flanked_rf_freq_4_amplitude_0.425_rep_2_t_D_2.0.png	 D	 t	 l	 n.a.	 1.254153e+00
5	 2	 95	 flanked	 rf	 4	 0.125000	 2.000000	 flanked_rf_freq_4_amplitude_0.125_rep_2_r_H_2.0.png	 H	 r	 t	 n.a.	 5.023870e-01
5	 2	 96	 flanked	 rf	 4	 0.500000	 2.000000	 flanked_rf_freq_4_amplitude_0.5_rep_6_t_N_2.0.png	 N	 t	 t	 n.a.	 9.039882e-01
5	 2	 97	 flanked	 rf	 4	 0.125000	 2.000000	 flanked_rf_freq_4_amplitude_0.125_rep_4_l_K_2.0.png	 K	 l	 r	 n.a.	 8.281745e-01
5	 2	 98	 flanked	 rf	 4	 0.350000	 2.000000	 flanked_rf_freq_4_amplitude_0.35_rep_7_r_H_2.0.png	 H	 r	 b	 n.a.	 9.614980e-01
5	 2	 99	 flanked	 rf	 4	 0.500000	 2.000000	 flanked_rf_freq_4_amplitude_0.5_rep_5_t_H_2.0.png	 H	 t	 t	 n.a.	 1.131773e+00
5	 2	 100	 flanked	 rf	 4	 0.200000	 2.000000	 flanked_rf_freq_4_amplitude_0.2_rep_1_r_K_2.0.png	 K	 r	 r	 n.a.	 5.551216e-01
5	 2	 101	 flanked	 rf	 4	 0.125000	 2.000000	 flanked_rf_freq_4_amplitude_0.125_rep_2_r_H_2.0.png	 H	 r	 r	 n.a.	 6.530271e-01
5	 2	 102	 flanked	 rf	 4	 0.275000	 2.000000	 flanked_rf_freq_4_amplitude_0.275_rep_4_l_K_2.0.png	 K	 l	 r	 n.a.	 7.525349e-01
5	 2	 103	 flanked	 rf	 4	 0.350000	 2.000000	 flanked_rf_freq_4_amplitude_0.35_rep_4_l_K_2.0.png	 K	 l	 t	 n.a.	 6.834943e-01
5	 2	 104	 flanked	 rf	 4	 0.425000	 2.000000	 flanked_rf_freq_4_amplitude_0.425_rep_1_t_D_2.0.png	 D	 t	 l	 n.a.	 5.137593e-01
5	 2	 105	 flanked	 rf	 4	 0.275000	 2.000000	 flanked_rf_freq_4_amplitude_0.275_rep_5_t_H_2.0.png	 H	 t	 t	 n.a.	 4.171400e-01
5	 2	 106	 flanked	 rf	 4	 0.275000	 2.000000	 flanked_rf_freq_4_amplitude_0.275_rep_9_l_D_2.0.png	 D	 l	 l	 n.a.	 9.570449e-01
5	 2	 107	 flanked	 rf	 4	 0.125000	 2.000000	 flanked_rf_freq_4_amplitude_0.125_rep_6_l_K_2.0.png	 K	 l	 r	 n.a.	 8.508514e-01
5	 2	 108	 flanked	 rf	 4	 0.200000	 2.000000	 flanked_rf_freq_4_amplitude_0.2_rep_5_l_N_2.0.png	 N	 l	 l	 n.a.	 4.009683e-01
5	 2	 109	 flanked	 rf	 4	 0.500000	 2.000000	 flanked_rf_freq_4_amplitude_0.5_rep_0_b_D_2.0.png	 D	 b	 t	 n.a.	 5.567611e-01
5	 2	 110	 flanked	 rf	 4	 0.350000	 2.000000	 flanked_rf_freq_4_amplitude_0.35_rep_2_t_D_2.0.png	 D	 t	 t	 n.a.	 6.036149e-01
5	 2	 111	 flanked	 rf	 4	 0.050000	 2.000000	 flanked_rf_freq_4_amplitude_0.05_rep_1_l_H_2.0.png	 H	 l	 t	 n.a.	 6.259505e-01
5	 2	 112	 flanked	 rf	 4	 0.200000	 2.000000	 flanked_rf_freq_4_amplitude_0.2_rep_3_r_D_2.0.png	 D	 r	 r	 n.a.	 8.257320e-01
5	 2	 113	 flanked	 rf	 4	 0.425000	 2.000000	 flanked_rf_freq_4_amplitude_0.425_rep_9_l_K_2.0.png	 K	 l	 l	 n.a.	 3.855358e-01
5	 2	 114	 flanked	 rf	 4	 0.050000	 2.000000	 flanked_rf_freq_4_amplitude_0.05_rep_7_b_K_2.0.png	 K	 b	 b	 n.a.	 6.774447e-01
5	 2	 115	 flanked	 rf	 4	 0.350000	 2.000000	 flanked_rf_freq_4_amplitude_0.35_rep_0_t_D_2.0.png	 D	 t	 t	 n.a.	 5.047521e-01
5	 2	 116	 flanked	 rf	 4	 0.425000	 2.000000	 flanked_rf_freq_4_amplitude_0.425_rep_1_t_D_2.0.png	 D	 t	 l	 n.a.	 8.118311e-01
5	 2	 117	 flanked	 rf	 4	 0.125000	 2.000000	 flanked_rf_freq_4_amplitude_0.125_rep_7_t_D_2.0.png	 D	 t	 b	 n.a.	 5.244266e-01
5	 2	 118	 flanked	 rf	 4	 0.050000	 2.000000	 flanked_rf_freq_4_amplitude_0.05_rep_5_l_K_2.0.png	 K	 l	 t	 n.a.	 8.194926e-01
5	 2	 119	 flanked	 rf	 4	 0.050000	 2.000000	 flanked_rf_freq_4_amplitude_0.05_rep_9_l_D_2.0.png	 D	 l	 r	 n.a.	 7.410525e-01
5	 2	 120	 flanked	 rf	 4	 0.425000	 2.000000	 flanked_rf_freq_4_amplitude_0.425_rep_4_l_D_2.0.png	 D	 l	 l	 n.a.	 4.454582e-01
5	 2	 121	 flanked	 rf	 4	 0.500000	 2.000000	 flanked_rf_freq_4_amplitude_0.5_rep_3_l_H_2.0.png	 H	 l	 l	 n.a.	 6.249188e-01
5	 2	 122	 flanked	 rf	 4	 0.500000	 2.000000	 flanked_rf_freq_4_amplitude_0.5_rep_4_l_H_2.0.png	 H	 l	 l	 n.a.	 5.281142e-01
5	 2	 123	 flanked	 rf	 4	 0.125000	 2.000000	 flanked_rf_freq_4_amplitude_0.125_rep_1_r_H_2.0.png	 H	 r	 b	 n.a.	 6.778739e-01
5	 2	 124	 flanked	 rf	 4	 0.350000	 2.000000	 flanked_rf_freq_4_amplitude_0.35_rep_7_r_H_2.0.png	 H	 r	 b	 n.a.	 1.139636e+00
5	 2	 125	 flanked	 rf	 4	 0.050000	 2.000000	 flanked_rf_freq_4_amplitude_0.05_rep_5_l_K_2.0.png	 K	 l	 t	 n.a.	 7.330497e-01
5	 2	 126	 flanked	 rf	 4	 0.050000	 2.000000	 flanked_rf_freq_4_amplitude_0.05_rep_2_b_N_2.0.png	 N	 b	 r	 n.a.	 6.553584e-01
5	 2	 127	 flanked	 rf	 4	 0.350000	 2.000000	 flanked_rf_freq_4_amplitude_0.35_rep_2_t_D_2.0.png	 D	 t	 t	 n.a.	 7.555925e-01
5	 2	 128	 flanked	 rf	 4	 0.275000	 2.000000	 flanked_rf_freq_4_amplitude_0.275_rep_6_t_H_2.0.png	 H	 t	 r	 n.a.	 7.739877e-01
5	 2	 129	 flanked	 rf	 4	 0.500000	 2.000000	 flanked_rf_freq_4_amplitude_0.5_rep_6_t_N_2.0.png	 N	 t	 t	 n.a.	 1.088249e+00
5	 2	 130	 flanked	 rf	 4	 0.425000	 2.000000	 flanked_rf_freq_4_amplitude_0.425_rep_4_l_D_2.0.png	 D	 l	 l	 n.a.	 7.543187e-01
5	 2	 131	 flanked	 rf	 4	 0.425000	 2.000000	 flanked_rf_freq_4_amplitude_0.425_rep_8_l_H_2.0.png	 H	 l	 l	 n.a.	 5.643813e-01
5	 2	 132	 flanked	 rf	 4	 0.050000	 2.000000	 flanked_rf_freq_4_amplitude_0.05_rep_8_l_D_2.0.png	 D	 l	 t	 n.a.	 7.561385e-01
5	 2	 133	 flanked	 rf	 4	 0.275000	 2.000000	 flanked_rf_freq_4_amplitude_0.275_rep_7_b_K_2.0.png	 K	 b	 l	 n.a.	 1.218707e+00
5	 2	 134	 flanked	 rf	 4	 0.350000	 2.000000	 flanked_rf_freq_4_amplitude_0.35_rep_5_b_N_2.0.png	 N	 b	 b	 n.a.	 8.811680e-01
5	 2	 135	 flanked	 rf	 4	 0.350000	 2.000000	 flanked_rf_freq_4_amplitude_0.35_rep_2_t_D_2.0.png	 D	 t	 t	 n.a.	 4.600941e-01
5	 2	 136	 flanked	 rf	 4	 0.425000	 2.000000	 flanked_rf_freq_4_amplitude_0.425_rep_9_l_K_2.0.png	 K	 l	 b	 n.a.	 6.972862e-01
5	 2	 137	 flanked	 rf	 4	 0.275000	 2.000000	 flanked_rf_freq_4_amplitude_0.275_rep_9_l_D_2.0.png	 D	 l	 l	 n.a.	 4.901575e-01
5	 2	 138	 flanked	 rf	 4	 0.050000	 2.000000	 flanked_rf_freq_4_amplitude_0.05_rep_6_r_N_2.0.png	 N	 r	 t	 n.a.	 5.928379e-01
5	 2	 139	 flanked	 rf	 4	 0.200000	 2.000000	 flanked_rf_freq_4_amplitude_0.2_rep_0_l_N_2.0.png	 N	 l	 t	 n.a.	 8.828504e-01
5	 2	 140	 flanked	 rf	 4	 0.275000	 2.000000	 flanked_rf_freq_4_amplitude_0.275_rep_7_b_K_2.0.png	 K	 b	 r	 n.a.	 5.865602e-01
5	 2	 141	 flanked	 rf	 4	 0.050000	 2.000000	 flanked_rf_freq_4_amplitude_0.05_rep_5_l_K_2.0.png	 K	 l	 t	 n.a.	 3.979510e-01
5	 2	 142	 flanked	 rf	 4	 0.500000	 2.000000	 flanked_rf_freq_4_amplitude_0.5_rep_3_l_H_2.0.png	 H	 l	 b	 n.a.	 7.606009e-01
5	 2	 143	 flanked	 rf	 4	 0.500000	 2.000000	 flanked_rf_freq_4_amplitude_0.5_rep_3_l_H_2.0.png	 H	 l	 t	 n.a.	 4.973290e-01
5	 2	 144	 flanked	 rf	 4	 0.275000	 2.000000	 flanked_rf_freq_4_amplitude_0.275_rep_0_r_N_2.0.png	 N	 r	 r	 n.a.	 6.596144e-01
5	 2	 145	 flanked	 rf	 4	 0.500000	 2.000000	 flanked_rf_freq_4_amplitude_0.5_rep_1_l_N_2.0.png	 N	 l	 l	 n.a.	 4.537221e-01
5	 2	 146	 flanked	 rf	 4	 0.275000	 2.000000	 flanked_rf_freq_4_amplitude_0.275_rep_1_r_H_2.0.png	 H	 r	 b	 n.a.	 1.086153e+00
5	 2	 147	 flanked	 rf	 4	 0.350000	 2.000000	 flanked_rf_freq_4_amplitude_0.35_rep_5_b_N_2.0.png	 N	 b	 r	 n.a.	 8.061437e-01
5	 2	 148	 flanked	 rf	 4	 0.050000	 2.000000	 flanked_rf_freq_4_amplitude_0.05_rep_4_b_K_2.0.png	 K	 b	 b	 n.a.	 4.690262e-01
5	 2	 149	 flanked	 rf	 4	 0.275000	 2.000000	 flanked_rf_freq_4_amplitude_0.275_rep_0_r_N_2.0.png	 N	 r	 t	 n.a.	 6.570078e-01
5	 2	 150	 flanked	 rf	 4	 0.350000	 2.000000	 flanked_rf_freq_4_amplitude_0.35_rep_7_r_H_2.0.png	 H	 r	 r	 n.a.	 5.471630e-01
5	 2	 151	 flanked	 rf	 4	 0.050000	 2.000000	 flanked_rf_freq_4_amplitude_0.05_rep_4_b_K_2.0.png	 K	 b	 b	 n.a.	 5.854965e-01
5	 2	 152	 flanked	 rf	 4	 0.200000	 2.000000	 flanked_rf_freq_4_amplitude_0.2_rep_9_b_N_2.0.png	 N	 b	 b	 n.a.	 7.363859e-01
5	 2	 153	 flanked	 rf	 4	 0.200000	 2.000000	 flanked_rf_freq_4_amplitude_0.2_rep_4_l_H_2.0.png	 H	 l	 l	 n.a.	 1.151047e+00
5	 2	 154	 flanked	 rf	 4	 0.350000	 2.000000	 flanked_rf_freq_4_amplitude_0.35_rep_8_b_N_2.0.png	 N	 b	 r	 n.a.	 8.451398e-01
5	 2	 155	 flanked	 rf	 4	 0.200000	 2.000000	 flanked_rf_freq_4_amplitude_0.2_rep_0_l_N_2.0.png	 N	 l	 t	 n.a.	 6.776063e-01
5	 2	 156	 flanked	 rf	 4	 0.500000	 2.000000	 flanked_rf_freq_4_amplitude_0.5_rep_5_t_H_2.0.png	 H	 t	 t	 n.a.	 5.698266e-01
5	 2	 157	 flanked	 rf	 4	 0.275000	 2.000000	 flanked_rf_freq_4_amplitude_0.275_rep_7_b_K_2.0.png	 K	 b	 t	 n.a.	 1.172835e+00
5	 2	 158	 flanked	 rf	 4	 0.500000	 2.000000	 flanked_rf_freq_4_amplitude_0.5_rep_1_l_N_2.0.png	 N	 l	 l	 n.a.	 8.789323e-01
5	 2	 159	 flanked	 rf	 4	 0.500000	 2.000000	 flanked_rf_freq_4_amplitude_0.5_rep_1_l_N_2.0.png	 N	 l	 l	 n.a.	 8.200957e-01
5	 2	 160	 flanked	 rf	 4	 0.050000	 2.000000	 flanked_rf_freq_4_amplitude_0.05_rep_0_t_D_2.0.png	 D	 t	 r	 n.a.	 8.849628e-01
5	 2	 161	 flanked	 rf	 4	 0.275000	 2.000000	 flanked_rf_freq_4_amplitude_0.275_rep_1_r_H_2.0.png	 H	 r	 b	 n.a.	 1.094393e+00
5	 2	 162	 flanked	 rf	 4	 0.050000	 2.000000	 flanked_rf_freq_4_amplitude_0.05_rep_6_r_N_2.0.png	 N	 r	 r	 n.a.	 7.030938e-01
5	 2	 163	 flanked	 rf	 4	 0.125000	 2.000000	 flanked_rf_freq_4_amplitude_0.125_rep_3_l_K_2.0.png	 K	 l	 r	 n.a.	 1.104566e+00
5	 2	 164	 flanked	 rf	 4	 0.500000	 2.000000	 flanked_rf_freq_4_amplitude_0.5_rep_7_r_H_2.0.png	 H	 r	 r	 n.a.	 4.300171e-01
5	 2	 165	 flanked	 rf	 4	 0.500000	 2.000000	 flanked_rf_freq_4_amplitude_0.5_rep_0_b_D_2.0.png	 D	 b	 t	 n.a.	 4.930061e-01
5	 2	 166	 flanked	 rf	 4	 0.425000	 2.000000	 flanked_rf_freq_4_amplitude_0.425_rep_6_l_N_2.0.png	 N	 l	 l	 n.a.	 6.536957e-01
5	 2	 167	 flanked	 rf	 4	 0.200000	 2.000000	 flanked_rf_freq_4_amplitude_0.2_rep_4_l_H_2.0.png	 H	 l	 r	 n.a.	 1.101253e+00
5	 2	 168	 flanked	 rf	 4	 0.275000	 2.000000	 flanked_rf_freq_4_amplitude_0.275_rep_8_t_N_2.0.png	 N	 t	 t	 n.a.	 6.388849e-01
5	 2	 169	 flanked	 rf	 4	 0.050000	 2.000000	 flanked_rf_freq_4_amplitude_0.05_rep_8_l_D_2.0.png	 D	 l	 b	 n.a.	 1.215847e+00
5	 2	 170	 flanked	 rf	 4	 0.200000	 2.000000	 flanked_rf_freq_4_amplitude_0.2_rep_7_b_N_2.0.png	 N	 b	 r	 n.a.	 4.075148e-01
5	 2	 171	 flanked	 rf	 4	 0.425000	 2.000000	 flanked_rf_freq_4_amplitude_0.425_rep_5_b_K_2.0.png	 K	 b	 b	 n.a.	 7.783703e-01
5	 2	 172	 flanked	 rf	 4	 0.125000	 2.000000	 flanked_rf_freq_4_amplitude_0.125_rep_5_l_K_2.0.png	 K	 l	 r	 n.a.	 7.056850e-01
5	 2	 173	 flanked	 rf	 4	 0.200000	 2.000000	 flanked_rf_freq_4_amplitude_0.2_rep_7_b_N_2.0.png	 N	 b	 t	 n.a.	 6.656344e-01
5	 2	 174	 flanked	 rf	 4	 0.125000	 2.000000	 flanked_rf_freq_4_amplitude_0.125_rep_5_l_K_2.0.png	 K	 l	 r	 n.a.	 8.315860e-01
5	 2	 175	 flanked	 rf	 4	 0.500000	 2.000000	 flanked_rf_freq_4_amplitude_0.5_rep_2_b_D_2.0.png	 D	 b	 b	 n.a.	 1.134295e+00
5	 2	 176	 flanked	 rf	 4	 0.200000	 2.000000	 flanked_rf_freq_4_amplitude_0.2_rep_1_r_K_2.0.png	 K	 r	 r	 n.a.	 4.974427e-01
5	 2	 177	 flanked	 rf	 4	 0.425000	 2.000000	 flanked_rf_freq_4_amplitude_0.425_rep_9_l_K_2.0.png	 K	 l	 l	 n.a.	 6.985078e-01
5	 2	 178	 flanked	 rf	 4	 0.275000	 2.000000	 flanked_rf_freq_4_amplitude_0.275_rep_4_l_K_2.0.png	 K	 l	 l	 n.a.	 8.668871e-01
5	 2	 179	 flanked	 rf	 4	 0.200000	 2.000000	 flanked_rf_freq_4_amplitude_0.2_rep_5_l_N_2.0.png	 N	 l	 l	 n.a.	 1.393566e+00
5	 2	 180	 flanked	 rf	 4	 0.425000	 2.000000	 flanked_rf_freq_4_amplitude_0.425_rep_3_b_K_2.0.png	 K	 b	 l	 n.a.	 6.615998e-01
5	 2	 181	 flanked	 rf	 4	 0.275000	 2.000000	 flanked_rf_freq_4_amplitude_0.275_rep_6_t_H_2.0.png	 H	 t	 r	 n.a.	 6.255807e-01
5	 2	 182	 flanked	 rf	 4	 0.500000	 2.000000	 flanked_rf_freq_4_amplitude_0.5_rep_5_t_H_2.0.png	 H	 t	 t	 n.a.	 4.925502e-01
5	 2	 183	 flanked	 rf	 4	 0.125000	 2.000000	 flanked_rf_freq_4_amplitude_0.125_rep_7_t_D_2.0.png	 D	 t	 b	 n.a.	 6.396213e-01
5	 2	 184	 flanked	 rf	 4	 0.050000	 2.000000	 flanked_rf_freq_4_amplitude_0.05_rep_6_r_N_2.0.png	 N	 r	 r	 n.a.	 6.854708e-01
5	 2	 185	 flanked	 rf	 4	 0.500000	 2.000000	 flanked_rf_freq_4_amplitude_0.5_rep_7_r_H_2.0.png	 H	 r	 r	 n.a.	 4.680454e-01
5	 2	 186	 flanked	 rf	 4	 0.125000	 2.000000	 flanked_rf_freq_4_amplitude_0.125_rep_1_r_H_2.0.png	 H	 r	 r	 n.a.	 4.652982e-01
5	 2	 187	 flanked	 rf	 4	 0.425000	 2.000000	 flanked_rf_freq_4_amplitude_0.425_rep_5_b_K_2.0.png	 K	 b	 t	 n.a.	 6.710594e-01
5	 2	 188	 flanked	 rf	 4	 0.350000	 2.000000	 flanked_rf_freq_4_amplitude_0.35_rep_9_r_H_2.0.png	 H	 r	 b	 n.a.	 6.091648e-01
5	 2	 189	 flanked	 rf	 4	 0.125000	 2.000000	 flanked_rf_freq_4_amplitude_0.125_rep_3_l_K_2.0.png	 K	 l	 r	 n.a.	 5.315641e-01
5	 2	 190	 flanked	 rf	 4	 0.050000	 2.000000	 flanked_rf_freq_4_amplitude_0.05_rep_9_l_D_2.0.png	 D	 l	 r	 n.a.	 3.786269e-01
5	 2	 191	 flanked	 rf	 4	 0.050000	 2.000000	 flanked_rf_freq_4_amplitude_0.05_rep_9_l_D_2.0.png	 D	 l	 r	 n.a.	 6.901078e-01
5	 2	 192	 flanked	 rf	 4	 0.200000	 2.000000	 flanked_rf_freq_4_amplitude_0.2_rep_7_b_N_2.0.png	 N	 b	 t	 n.a.	 4.311764e-01
5	 2	 193	 flanked	 rf	 4	 0.350000	 2.000000	 flanked_rf_freq_4_amplitude_0.35_rep_8_b_N_2.0.png	 N	 b	 b	 n.a.	 7.984976e-01
5	 2	 194	 flanked	 rf	 4	 0.275000	 2.000000	 flanked_rf_freq_4_amplitude_0.275_rep_3_l_K_2.0.png	 K	 l	 l	 n.a.	 6.213894e-01
5	 2	 195	 flanked	 rf	 4	 0.200000	 2.000000	 flanked_rf_freq_4_amplitude_0.2_rep_2_t_H_2.0.png	 H	 t	 t	 n.a.	 4.710460e-01
5	 2	 196	 flanked	 rf	 4	 0.350000	 2.000000	 flanked_rf_freq_4_amplitude_0.35_rep_6_r_N_2.0.png	 N	 r	 r	 n.a.	 5.633047e-01
5	 2	 197	 flanked	 rf	 4	 0.275000	 2.000000	 flanked_rf_freq_4_amplitude_0.275_rep_8_t_N_2.0.png	 N	 t	 t	 n.a.	 5.670401e-01
5	 2	 198	 flanked	 rf	 4	 0.125000	 2.000000	 flanked_rf_freq_4_amplitude_0.125_rep_0_r_D_2.0.png	 D	 r	 r	 n.a.	 9.388552e-01
5	 2	 199	 flanked	 rf	 4	 0.275000	 2.000000	 flanked_rf_freq_4_amplitude_0.275_rep_9_l_D_2.0.png	 D	 l	 t	 n.a.	 1.071708e+00
5	 2	 200	 flanked	 rf	 4	 0.200000	 2.000000	 flanked_rf_freq_4_amplitude_0.2_rep_8_l_K_2.0.png	 K	 l	 b	 n.a.	 1.182026e+00
5	 2	 201	 flanked	 rf	 4	 0.050000	 2.000000	 flanked_rf_freq_4_amplitude_0.05_rep_0_t_D_2.0.png	 D	 t	 b	 n.a.	 5.610178e-01
5	 2	 202	 flanked	 rf	 4	 0.350000	 2.000000	 flanked_rf_freq_4_amplitude_0.35_rep_0_t_D_2.0.png	 D	 t	 t	 n.a.	 9.273272e-01
5	 2	 203	 flanked	 rf	 4	 0.500000	 2.000000	 flanked_rf_freq_4_amplitude_0.5_rep_4_l_H_2.0.png	 H	 l	 l	 n.a.	 6.636205e-01
5	 2	 204	 flanked	 rf	 4	 0.425000	 2.000000	 flanked_rf_freq_4_amplitude_0.425_rep_2_t_D_2.0.png	 D	 t	 t	 n.a.	 5.328159e-01
5	 2	 205	 flanked	 rf	 4	 0.500000	 2.000000	 flanked_rf_freq_4_amplitude_0.5_rep_9_b_N_2.0.png	 N	 b	 r	 n.a.	 1.325439e+00
5	 2	 206	 flanked	 rf	 4	 0.125000	 2.000000	 flanked_rf_freq_4_amplitude_0.125_rep_7_t_D_2.0.png	 D	 t	 l	 n.a.	 8.620011e-01
5	 2	 207	 flanked	 rf	 4	 0.125000	 2.000000	 flanked_rf_freq_4_amplitude_0.125_rep_6_l_K_2.0.png	 K	 l	 b	 n.a.	 6.908602e-01
5	 2	 208	 flanked	 rf	 4	 0.200000	 2.000000	 flanked_rf_freq_4_amplitude_0.2_rep_2_t_H_2.0.png	 H	 t	 t	 n.a.	 4.713936e-01
5	 2	 209	 flanked	 rf	 4	 0.500000	 2.000000	 flanked_rf_freq_4_amplitude_0.5_rep_0_b_D_2.0.png	 D	 b	 t	 n.a.	 8.904158e-01
5	 2	 210	 flanked	 rf	 4	 0.275000	 2.000000	 flanked_rf_freq_4_amplitude_0.275_rep_5_t_H_2.0.png	 H	 t	 t	 n.a.	 5.936889e-01
