subject	 session	 trial	 flanked	 distortion	 freq	 amplitude	 spacing	 im_name	 targ_letter	 targ_pos	 response	 eyemovement	 RT
7	 2	 1	 flanked	 bex	 4	 4.000000	 2.000000	 flanked_bex_freq_4_amplitude_4_rep_1_t_K_2.0.png	 K	 t	 l	 n.a.	 9.393973e-01
7	 2	 2	 flanked	 bex	 4	 4.000000	 2.000000	 flanked_bex_freq_4_amplitude_4_rep_2_t_K_2.0.png	 K	 t	 b	 n.a.	 6.460102e-01
7	 2	 3	 flanked	 bex	 4	 4.000000	 2.000000	 flanked_bex_freq_4_amplitude_4_rep_3_t_H_2.0.png	 H	 t	 t	 n.a.	 5.363426e-01
7	 2	 4	 flanked	 bex	 4	 5.000000	 2.000000	 flanked_bex_freq_4_amplitude_5_rep_2_t_N_2.0.png	 N	 t	 t	 n.a.	 5.993980e-01
7	 2	 5	 flanked	 bex	 4	 7.000000	 2.000000	 flanked_bex_freq_4_amplitude_7_rep_9_t_K_2.0.png	 K	 t	 t	 n.a.	 7.803779e-01
7	 2	 6	 flanked	 bex	 4	 5.000000	 2.000000	 flanked_bex_freq_4_amplitude_5_rep_9_t_K_2.0.png	 K	 t	 b	 n.a.	 1.022095e+00
7	 2	 7	 flanked	 bex	 4	 2.000000	 2.000000	 flanked_bex_freq_4_amplitude_2_rep_0_t_D_2.0.png	 D	 t	 t	 n.a.	 7.880704e-01
7	 2	 8	 flanked	 bex	 4	 3.000000	 2.000000	 flanked_bex_freq_4_amplitude_3_rep_9_b_K_2.0.png	 K	 b	 b	 n.a.	 7.907023e-01
7	 2	 9	 flanked	 bex	 4	 7.000000	 2.000000	 flanked_bex_freq_4_amplitude_7_rep_8_r_D_2.0.png	 D	 r	 r	 n.a.	 6.595157e-01
7	 2	 10	 flanked	 bex	 4	 7.000000	 2.000000	 flanked_bex_freq_4_amplitude_7_rep_4_l_H_2.0.png	 H	 l	 t	 n.a.	 6.737299e-01
7	 2	 11	 flanked	 bex	 4	 5.000000	 2.000000	 flanked_bex_freq_4_amplitude_5_rep_6_l_N_2.0.png	 N	 l	 l	 n.a.	 6.005932e-01
7	 2	 12	 flanked	 bex	 4	 5.000000	 2.000000	 flanked_bex_freq_4_amplitude_5_rep_8_l_D_2.0.png	 D	 l	 l	 n.a.	 6.106025e-01
7	 2	 13	 flanked	 bex	 4	 3.000000	 2.000000	 flanked_bex_freq_4_amplitude_3_rep_2_t_H_2.0.png	 H	 t	 t	 n.a.	 9.859217e-01
7	 2	 14	 flanked	 bex	 4	 3.000000	 2.000000	 flanked_bex_freq_4_amplitude_3_rep_0_b_N_2.0.png	 N	 b	 b	 n.a.	 7.402254e-01
7	 2	 15	 flanked	 bex	 4	 5.000000	 2.000000	 flanked_bex_freq_4_amplitude_5_rep_9_t_K_2.0.png	 K	 t	 t	 n.a.	 7.455969e-01
7	 2	 16	 flanked	 bex	 4	 2.000000	 2.000000	 flanked_bex_freq_4_amplitude_2_rep_3_l_K_2.0.png	 K	 l	 l	 n.a.	 4.995826e-01
7	 2	 17	 flanked	 bex	 4	 7.000000	 2.000000	 flanked_bex_freq_4_amplitude_7_rep_1_l_K_2.0.png	 K	 l	 l	 n.a.	 4.260209e-01
7	 2	 18	 flanked	 bex	 4	 5.000000	 2.000000	 flanked_bex_freq_4_amplitude_5_rep_0_b_K_2.0.png	 K	 b	 b	 n.a.	 6.896424e-01
7	 2	 19	 flanked	 bex	 4	 2.000000	 2.000000	 flanked_bex_freq_4_amplitude_2_rep_6_l_D_2.0.png	 D	 l	 r	 n.a.	 1.271647e+00
7	 2	 20	 flanked	 bex	 4	 5.000000	 2.000000	 flanked_bex_freq_4_amplitude_5_rep_2_t_N_2.0.png	 N	 t	 t	 n.a.	 4.441275e-01
7	 2	 21	 flanked	 bex	 4	 3.000000	 2.000000	 flanked_bex_freq_4_amplitude_3_rep_2_t_H_2.0.png	 H	 t	 l	 n.a.	 6.523103e-01
7	 2	 22	 flanked	 bex	 4	 2.000000	 2.000000	 flanked_bex_freq_4_amplitude_2_rep_5_t_N_2.0.png	 N	 t	 b	 n.a.	 4.676391e-01
7	 2	 23	 flanked	 bex	 4	 1.000000	 2.000000	 flanked_bex_freq_4_amplitude_1_rep_0_r_D_2.0.png	 D	 r	 l	 n.a.	 8.837398e-01
7	 2	 24	 flanked	 bex	 4	 6.000000	 2.000000	 flanked_bex_freq_4_amplitude_6_rep_7_r_D_2.0.png	 D	 r	 r	 n.a.	 3.538954e-01
7	 2	 25	 flanked	 bex	 4	 1.000000	 2.000000	 flanked_bex_freq_4_amplitude_1_rep_7_r_D_2.0.png	 D	 r	 l	 n.a.	 7.947736e-01
7	 2	 26	 flanked	 bex	 4	 6.000000	 2.000000	 flanked_bex_freq_4_amplitude_6_rep_3_b_K_2.0.png	 K	 b	 l	 n.a.	 6.476620e-01
7	 2	 27	 flanked	 bex	 4	 4.000000	 2.000000	 flanked_bex_freq_4_amplitude_4_rep_7_r_K_2.0.png	 K	 r	 b	 n.a.	 6.009751e-01
7	 2	 28	 flanked	 bex	 4	 4.000000	 2.000000	 flanked_bex_freq_4_amplitude_4_rep_4_l_K_2.0.png	 K	 l	 b	 n.a.	 8.116588e-01
7	 2	 29	 flanked	 bex	 4	 4.000000	 2.000000	 flanked_bex_freq_4_amplitude_4_rep_5_t_N_2.0.png	 N	 t	 l	 n.a.	 3.944849e-01
7	 2	 30	 flanked	 bex	 4	 6.000000	 2.000000	 flanked_bex_freq_4_amplitude_6_rep_2_r_H_2.0.png	 H	 r	 r	 n.a.	 4.892007e-01
7	 2	 31	 flanked	 bex	 4	 6.000000	 2.000000	 flanked_bex_freq_4_amplitude_6_rep_2_r_H_2.0.png	 H	 r	 r	 n.a.	 6.823889e-01
7	 2	 32	 flanked	 bex	 4	 7.000000	 2.000000	 flanked_bex_freq_4_amplitude_7_rep_9_t_K_2.0.png	 K	 t	 l	 n.a.	 7.726290e-01
7	 2	 33	 flanked	 bex	 4	 1.000000	 2.000000	 flanked_bex_freq_4_amplitude_1_rep_8_r_N_2.0.png	 N	 r	 b	 n.a.	 8.277027e-01
7	 2	 34	 flanked	 bex	 4	 1.000000	 2.000000	 flanked_bex_freq_4_amplitude_1_rep_4_l_N_2.0.png	 N	 l	 t	 n.a.	 7.633267e-01
7	 2	 35	 flanked	 bex	 4	 7.000000	 2.000000	 flanked_bex_freq_4_amplitude_7_rep_5_r_D_2.0.png	 D	 r	 r	 n.a.	 3.954896e-01
7	 2	 36	 flanked	 bex	 4	 2.000000	 2.000000	 flanked_bex_freq_4_amplitude_2_rep_8_r_D_2.0.png	 D	 r	 r	 n.a.	 4.773912e-01
7	 2	 37	 flanked	 bex	 4	 7.000000	 2.000000	 flanked_bex_freq_4_amplitude_7_rep_2_r_D_2.0.png	 D	 r	 r	 n.a.	 8.662507e-01
7	 2	 38	 flanked	 bex	 4	 2.000000	 2.000000	 flanked_bex_freq_4_amplitude_2_rep_2_l_H_2.0.png	 H	 l	 l	 n.a.	 5.314608e-01
7	 2	 39	 flanked	 bex	 4	 7.000000	 2.000000	 flanked_bex_freq_4_amplitude_7_rep_7_t_K_2.0.png	 K	 t	 t	 n.a.	 1.462000e+00
7	 2	 40	 flanked	 bex	 4	 2.000000	 2.000000	 flanked_bex_freq_4_amplitude_2_rep_9_l_D_2.0.png	 D	 l	 r	 n.a.	 9.534419e-01
7	 2	 41	 flanked	 bex	 4	 1.000000	 2.000000	 flanked_bex_freq_4_amplitude_1_rep_9_b_N_2.0.png	 N	 b	 b	 n.a.	 6.220123e-01
7	 2	 42	 flanked	 bex	 4	 3.000000	 2.000000	 flanked_bex_freq_4_amplitude_3_rep_8_r_H_2.0.png	 H	 r	 r	 n.a.	 6.808378e-01
7	 2	 43	 flanked	 bex	 4	 5.000000	 2.000000	 flanked_bex_freq_4_amplitude_5_rep_6_l_N_2.0.png	 N	 l	 r	 n.a.	 6.033938e-01
7	 2	 44	 flanked	 bex	 4	 3.000000	 2.000000	 flanked_bex_freq_4_amplitude_3_rep_4_l_D_2.0.png	 D	 l	 l	 n.a.	 4.946349e-01
7	 2	 45	 flanked	 bex	 4	 3.000000	 2.000000	 flanked_bex_freq_4_amplitude_3_rep_6_r_K_2.0.png	 K	 r	 t	 n.a.	 7.276115e-01
7	 2	 46	 flanked	 bex	 4	 5.000000	 2.000000	 flanked_bex_freq_4_amplitude_5_rep_8_l_D_2.0.png	 D	 l	 l	 n.a.	 3.897421e-01
7	 2	 47	 flanked	 bex	 4	 3.000000	 2.000000	 flanked_bex_freq_4_amplitude_3_rep_0_b_N_2.0.png	 N	 b	 b	 n.a.	 6.577498e-01
7	 2	 48	 flanked	 bex	 4	 7.000000	 2.000000	 flanked_bex_freq_4_amplitude_7_rep_6_l_K_2.0.png	 K	 l	 l	 n.a.	 5.172308e-01
7	 2	 49	 flanked	 bex	 4	 1.000000	 2.000000	 flanked_bex_freq_4_amplitude_1_rep_8_r_N_2.0.png	 N	 r	 t	 n.a.	 5.764266e-01
7	 2	 50	 flanked	 bex	 4	 3.000000	 2.000000	 flanked_bex_freq_4_amplitude_3_rep_4_l_D_2.0.png	 D	 l	 r	 n.a.	 6.912095e-01
7	 2	 51	 flanked	 bex	 4	 6.000000	 2.000000	 flanked_bex_freq_4_amplitude_6_rep_8_b_N_2.0.png	 N	 b	 b	 n.a.	 3.332932e-01
7	 2	 52	 flanked	 bex	 4	 7.000000	 2.000000	 flanked_bex_freq_4_amplitude_7_rep_8_r_D_2.0.png	 D	 r	 r	 n.a.	 3.187056e-01
7	 2	 53	 flanked	 bex	 4	 4.000000	 2.000000	 flanked_bex_freq_4_amplitude_4_rep_1_t_K_2.0.png	 K	 t	 b	 n.a.	 6.417882e-01
7	 2	 54	 flanked	 bex	 4	 3.000000	 2.000000	 flanked_bex_freq_4_amplitude_3_rep_5_b_K_2.0.png	 K	 b	 r	 n.a.	 1.017241e+00
7	 2	 55	 flanked	 bex	 4	 3.000000	 2.000000	 flanked_bex_freq_4_amplitude_3_rep_3_r_K_2.0.png	 K	 r	 r	 n.a.	 3.724301e-01
7	 2	 56	 flanked	 bex	 4	 4.000000	 2.000000	 flanked_bex_freq_4_amplitude_4_rep_7_r_K_2.0.png	 K	 r	 r	 n.a.	 4.476221e-01
7	 2	 57	 flanked	 bex	 4	 2.000000	 2.000000	 flanked_bex_freq_4_amplitude_2_rep_2_l_H_2.0.png	 H	 l	 l	 n.a.	 3.375716e-01
7	 2	 58	 flanked	 bex	 4	 7.000000	 2.000000	 flanked_bex_freq_4_amplitude_7_rep_2_r_D_2.0.png	 D	 r	 r	 n.a.	 2.960960e-01
7	 2	 59	 flanked	 bex	 4	 5.000000	 2.000000	 flanked_bex_freq_4_amplitude_5_rep_5_l_H_2.0.png	 H	 l	 r	 n.a.	 4.279158e-01
7	 2	 60	 flanked	 bex	 4	 4.000000	 2.000000	 flanked_bex_freq_4_amplitude_4_rep_9_t_N_2.0.png	 N	 t	 l	 n.a.	 5.997078e-01
7	 2	 61	 flanked	 bex	 4	 1.000000	 2.000000	 flanked_bex_freq_4_amplitude_1_rep_1_t_D_2.0.png	 D	 t	 b	 n.a.	 6.844094e-01
7	 2	 62	 flanked	 bex	 4	 4.000000	 2.000000	 flanked_bex_freq_4_amplitude_4_rep_6_t_H_2.0.png	 H	 t	 r	 n.a.	 8.076847e-01
7	 2	 63	 flanked	 bex	 4	 1.000000	 2.000000	 flanked_bex_freq_4_amplitude_1_rep_6_r_N_2.0.png	 N	 r	 b	 n.a.	 6.589391e-01
7	 2	 64	 flanked	 bex	 4	 2.000000	 2.000000	 flanked_bex_freq_4_amplitude_2_rep_8_r_D_2.0.png	 D	 r	 r	 n.a.	 3.102161e-01
7	 2	 65	 flanked	 bex	 4	 5.000000	 2.000000	 flanked_bex_freq_4_amplitude_5_rep_4_t_D_2.0.png	 D	 t	 l	 n.a.	 5.889453e-01
7	 2	 66	 flanked	 bex	 4	 3.000000	 2.000000	 flanked_bex_freq_4_amplitude_3_rep_7_r_D_2.0.png	 D	 r	 r	 n.a.	 2.972367e-01
7	 2	 67	 flanked	 bex	 4	 6.000000	 2.000000	 flanked_bex_freq_4_amplitude_6_rep_5_r_H_2.0.png	 H	 r	 r	 n.a.	 4.233493e-01
7	 2	 68	 flanked	 bex	 4	 3.000000	 2.000000	 flanked_bex_freq_4_amplitude_3_rep_8_r_H_2.0.png	 H	 r	 r	 n.a.	 3.042045e-01
7	 2	 69	 flanked	 bex	 4	 3.000000	 2.000000	 flanked_bex_freq_4_amplitude_3_rep_1_l_N_2.0.png	 N	 l	 l	 n.a.	 6.610453e-01
7	 2	 70	 flanked	 bex	 4	 2.000000	 2.000000	 flanked_bex_freq_4_amplitude_2_rep_4_l_D_2.0.png	 D	 l	 r	 n.a.	 7.383756e-01
7	 2	 71	 flanked	 bex	 4	 4.000000	 2.000000	 flanked_bex_freq_4_amplitude_4_rep_9_t_N_2.0.png	 N	 t	 l	 n.a.	 6.245692e-01
7	 2	 72	 flanked	 bex	 4	 1.000000	 2.000000	 flanked_bex_freq_4_amplitude_1_rep_4_l_N_2.0.png	 N	 l	 t	 n.a.	 5.479083e-01
7	 2	 73	 flanked	 bex	 4	 5.000000	 2.000000	 flanked_bex_freq_4_amplitude_5_rep_9_t_K_2.0.png	 K	 t	 b	 n.a.	 6.305363e-01
7	 2	 74	 flanked	 bex	 4	 2.000000	 2.000000	 flanked_bex_freq_4_amplitude_2_rep_1_b_N_2.0.png	 N	 b	 r	 n.a.	 5.278876e-01
7	 2	 75	 flanked	 bex	 4	 3.000000	 2.000000	 flanked_bex_freq_4_amplitude_3_rep_4_l_D_2.0.png	 D	 l	 b	 n.a.	 6.789235e-01
7	 2	 76	 flanked	 bex	 4	 2.000000	 2.000000	 flanked_bex_freq_4_amplitude_2_rep_2_l_H_2.0.png	 H	 l	 l	 n.a.	 3.885659e-01
7	 2	 77	 flanked	 bex	 4	 4.000000	 2.000000	 flanked_bex_freq_4_amplitude_4_rep_8_r_D_2.0.png	 D	 r	 r	 n.a.	 3.569047e-01
7	 2	 78	 flanked	 bex	 4	 3.000000	 2.000000	 flanked_bex_freq_4_amplitude_3_rep_7_r_D_2.0.png	 D	 r	 r	 n.a.	 5.019241e-01
7	 2	 79	 flanked	 bex	 4	 2.000000	 2.000000	 flanked_bex_freq_4_amplitude_2_rep_7_t_N_2.0.png	 N	 t	 b	 n.a.	 6.206768e-01
7	 2	 80	 flanked	 bex	 4	 4.000000	 2.000000	 flanked_bex_freq_4_amplitude_4_rep_9_t_N_2.0.png	 N	 t	 t	 n.a.	 4.398429e-01
7	 2	 81	 flanked	 bex	 4	 4.000000	 2.000000	 flanked_bex_freq_4_amplitude_4_rep_6_t_H_2.0.png	 H	 t	 t	 n.a.	 5.179572e-01
7	 2	 82	 flanked	 bex	 4	 5.000000	 2.000000	 flanked_bex_freq_4_amplitude_5_rep_0_b_K_2.0.png	 K	 b	 b	 n.a.	 6.207537e-01
7	 2	 83	 flanked	 bex	 4	 5.000000	 2.000000	 flanked_bex_freq_4_amplitude_5_rep_1_r_D_2.0.png	 D	 r	 r	 n.a.	 5.160899e-01
7	 2	 84	 flanked	 bex	 4	 7.000000	 2.000000	 flanked_bex_freq_4_amplitude_7_rep_5_r_D_2.0.png	 D	 r	 r	 n.a.	 4.477037e-01
7	 2	 85	 flanked	 bex	 4	 7.000000	 2.000000	 flanked_bex_freq_4_amplitude_7_rep_6_l_K_2.0.png	 K	 l	 l	 n.a.	 8.058260e-01
7	 2	 86	 flanked	 bex	 4	 6.000000	 2.000000	 flanked_bex_freq_4_amplitude_6_rep_9_b_D_2.0.png	 D	 b	 b	 n.a.	 5.298780e-01
7	 2	 87	 flanked	 bex	 4	 3.000000	 2.000000	 flanked_bex_freq_4_amplitude_3_rep_2_t_H_2.0.png	 H	 t	 t	 n.a.	 5.980251e-01
7	 2	 88	 flanked	 bex	 4	 2.000000	 2.000000	 flanked_bex_freq_4_amplitude_2_rep_6_l_D_2.0.png	 D	 l	 l	 n.a.	 5.186930e-01
7	 2	 89	 flanked	 bex	 4	 5.000000	 2.000000	 flanked_bex_freq_4_amplitude_5_rep_1_r_D_2.0.png	 D	 r	 r	 n.a.	 3.911407e-01
7	 2	 90	 flanked	 bex	 4	 7.000000	 2.000000	 flanked_bex_freq_4_amplitude_7_rep_5_r_D_2.0.png	 D	 r	 r	 n.a.	 4.887453e-01
7	 2	 91	 flanked	 bex	 4	 1.000000	 2.000000	 flanked_bex_freq_4_amplitude_1_rep_9_b_N_2.0.png	 N	 b	 b	 n.a.	 5.121599e-01
7	 2	 92	 flanked	 bex	 4	 7.000000	 2.000000	 flanked_bex_freq_4_amplitude_7_rep_3_t_N_2.0.png	 N	 t	 t	 n.a.	 6.800845e-01
7	 2	 93	 flanked	 bex	 4	 7.000000	 2.000000	 flanked_bex_freq_4_amplitude_7_rep_1_l_K_2.0.png	 K	 l	 l	 n.a.	 3.914978e-01
7	 2	 94	 flanked	 bex	 4	 6.000000	 2.000000	 flanked_bex_freq_4_amplitude_6_rep_3_b_K_2.0.png	 K	 b	 b	 n.a.	 5.762163e-01
7	 2	 95	 flanked	 bex	 4	 1.000000	 2.000000	 flanked_bex_freq_4_amplitude_1_rep_2_r_H_2.0.png	 H	 r	 r	 n.a.	 5.761575e-01
7	 2	 96	 flanked	 bex	 4	 5.000000	 2.000000	 flanked_bex_freq_4_amplitude_5_rep_4_t_D_2.0.png	 D	 t	 l	 n.a.	 4.724258e-01
7	 2	 97	 flanked	 bex	 4	 2.000000	 2.000000	 flanked_bex_freq_4_amplitude_2_rep_3_l_K_2.0.png	 K	 l	 l	 n.a.	 7.858567e-01
7	 2	 98	 flanked	 bex	 4	 7.000000	 2.000000	 flanked_bex_freq_4_amplitude_7_rep_0_b_N_2.0.png	 N	 b	 b	 n.a.	 6.147624e-01
7	 2	 99	 flanked	 bex	 4	 3.000000	 2.000000	 flanked_bex_freq_4_amplitude_3_rep_9_b_K_2.0.png	 K	 b	 b	 n.a.	 5.033290e-01
7	 2	 100	 flanked	 bex	 4	 2.000000	 2.000000	 flanked_bex_freq_4_amplitude_2_rep_4_l_D_2.0.png	 D	 l	 b	 n.a.	 4.290562e-01
7	 2	 101	 flanked	 bex	 4	 6.000000	 2.000000	 flanked_bex_freq_4_amplitude_6_rep_0_r_N_2.0.png	 N	 r	 r	 n.a.	 2.846477e-01
7	 2	 102	 flanked	 bex	 4	 7.000000	 2.000000	 flanked_bex_freq_4_amplitude_7_rep_9_t_K_2.0.png	 K	 t	 r	 n.a.	 6.880168e-01
7	 2	 103	 flanked	 bex	 4	 1.000000	 2.000000	 flanked_bex_freq_4_amplitude_1_rep_5_t_K_2.0.png	 K	 t	 l	 n.a.	 8.754884e-01
7	 2	 104	 flanked	 bex	 4	 3.000000	 2.000000	 flanked_bex_freq_4_amplitude_3_rep_6_r_K_2.0.png	 K	 r	 r	 n.a.	 3.687301e-01
7	 2	 105	 flanked	 bex	 4	 5.000000	 2.000000	 flanked_bex_freq_4_amplitude_5_rep_4_t_D_2.0.png	 D	 t	 t	 n.a.	 7.018346e-01
7	 2	 106	 flanked	 bex	 4	 4.000000	 2.000000	 flanked_bex_freq_4_amplitude_4_rep_5_t_N_2.0.png	 N	 t	 b	 n.a.	 5.821314e-01
7	 2	 107	 flanked	 bex	 4	 1.000000	 2.000000	 flanked_bex_freq_4_amplitude_1_rep_1_t_D_2.0.png	 D	 t	 r	 n.a.	 6.903350e-01
7	 2	 108	 flanked	 bex	 4	 4.000000	 2.000000	 flanked_bex_freq_4_amplitude_4_rep_6_t_H_2.0.png	 H	 t	 b	 n.a.	 1.039615e+00
7	 2	 109	 flanked	 bex	 4	 3.000000	 2.000000	 flanked_bex_freq_4_amplitude_3_rep_7_r_D_2.0.png	 D	 r	 r	 n.a.	 4.957376e-01
7	 2	 110	 flanked	 bex	 4	 7.000000	 2.000000	 flanked_bex_freq_4_amplitude_7_rep_8_r_D_2.0.png	 D	 r	 r	 n.a.	 4.080344e-01
7	 2	 111	 flanked	 bex	 4	 5.000000	 2.000000	 flanked_bex_freq_4_amplitude_5_rep_7_t_N_2.0.png	 N	 t	 t	 n.a.	 5.570081e-01
7	 2	 112	 flanked	 bex	 4	 2.000000	 2.000000	 flanked_bex_freq_4_amplitude_2_rep_7_t_N_2.0.png	 N	 t	 l	 n.a.	 9.793872e-01
7	 2	 113	 flanked	 bex	 4	 6.000000	 2.000000	 flanked_bex_freq_4_amplitude_6_rep_8_b_N_2.0.png	 N	 b	 b	 n.a.	 4.857036e-01
7	 2	 114	 flanked	 bex	 4	 7.000000	 2.000000	 flanked_bex_freq_4_amplitude_7_rep_6_l_K_2.0.png	 K	 l	 l	 n.a.	 1.058961e+00
7	 2	 115	 flanked	 bex	 4	 3.000000	 2.000000	 flanked_bex_freq_4_amplitude_3_rep_0_b_N_2.0.png	 N	 b	 b	 n.a.	 5.276864e-01
7	 2	 116	 flanked	 bex	 4	 5.000000	 2.000000	 flanked_bex_freq_4_amplitude_5_rep_3_r_D_2.0.png	 D	 r	 r	 n.a.	 4.619546e-01
7	 2	 117	 flanked	 bex	 4	 7.000000	 2.000000	 flanked_bex_freq_4_amplitude_7_rep_4_l_H_2.0.png	 H	 l	 l	 n.a.	 4.792316e-01
7	 2	 118	 flanked	 bex	 4	 6.000000	 2.000000	 flanked_bex_freq_4_amplitude_6_rep_9_b_D_2.0.png	 D	 b	 b	 n.a.	 4.912035e-01
7	 2	 119	 flanked	 bex	 4	 7.000000	 2.000000	 flanked_bex_freq_4_amplitude_7_rep_1_l_K_2.0.png	 K	 l	 l	 n.a.	 5.337559e-01
7	 2	 120	 flanked	 bex	 4	 2.000000	 2.000000	 flanked_bex_freq_4_amplitude_2_rep_4_l_D_2.0.png	 D	 l	 b	 n.a.	 7.136085e-01
7	 2	 121	 flanked	 bex	 4	 2.000000	 2.000000	 flanked_bex_freq_4_amplitude_2_rep_3_l_K_2.0.png	 K	 l	 b	 n.a.	 5.826635e-01
7	 2	 122	 flanked	 bex	 4	 6.000000	 2.000000	 flanked_bex_freq_4_amplitude_6_rep_2_r_H_2.0.png	 H	 r	 r	 n.a.	 3.902181e-01
7	 2	 123	 flanked	 bex	 4	 1.000000	 2.000000	 flanked_bex_freq_4_amplitude_1_rep_0_r_D_2.0.png	 D	 r	 b	 n.a.	 7.801981e-01
7	 2	 124	 flanked	 bex	 4	 2.000000	 2.000000	 flanked_bex_freq_4_amplitude_2_rep_1_b_N_2.0.png	 N	 b	 b	 n.a.	 3.746641e-01
7	 2	 125	 flanked	 bex	 4	 6.000000	 2.000000	 flanked_bex_freq_4_amplitude_6_rep_4_l_H_2.0.png	 H	 l	 l	 n.a.	 4.782094e-01
7	 2	 126	 flanked	 bex	 4	 1.000000	 2.000000	 flanked_bex_freq_4_amplitude_1_rep_1_t_D_2.0.png	 D	 t	 b	 n.a.	 4.761284e-01
7	 2	 127	 flanked	 bex	 4	 6.000000	 2.000000	 flanked_bex_freq_4_amplitude_6_rep_0_r_N_2.0.png	 N	 r	 r	 n.a.	 2.597591e-01
7	 2	 128	 flanked	 bex	 4	 3.000000	 2.000000	 flanked_bex_freq_4_amplitude_3_rep_3_r_K_2.0.png	 K	 r	 r	 n.a.	 5.734502e-01
7	 2	 129	 flanked	 bex	 4	 5.000000	 2.000000	 flanked_bex_freq_4_amplitude_5_rep_0_b_K_2.0.png	 K	 b	 b	 n.a.	 6.062921e-01
7	 2	 130	 flanked	 bex	 4	 5.000000	 2.000000	 flanked_bex_freq_4_amplitude_5_rep_8_l_D_2.0.png	 D	 l	 r	 n.a.	 7.212348e-01
7	 2	 131	 flanked	 bex	 4	 1.000000	 2.000000	 flanked_bex_freq_4_amplitude_1_rep_3_t_K_2.0.png	 K	 t	 b	 n.a.	 5.159362e-01
7	 2	 132	 flanked	 bex	 4	 5.000000	 2.000000	 flanked_bex_freq_4_amplitude_5_rep_2_t_N_2.0.png	 N	 t	 t	 n.a.	 3.766971e-01
7	 2	 133	 flanked	 bex	 4	 4.000000	 2.000000	 flanked_bex_freq_4_amplitude_4_rep_2_t_K_2.0.png	 K	 t	 r	 n.a.	 6.414941e-01
7	 2	 134	 flanked	 bex	 4	 6.000000	 2.000000	 flanked_bex_freq_4_amplitude_6_rep_5_r_H_2.0.png	 H	 r	 r	 n.a.	 6.881527e-01
7	 2	 135	 flanked	 bex	 4	 5.000000	 2.000000	 flanked_bex_freq_4_amplitude_5_rep_5_l_H_2.0.png	 H	 l	 l	 n.a.	 4.722577e-01
7	 2	 136	 flanked	 bex	 4	 3.000000	 2.000000	 flanked_bex_freq_4_amplitude_3_rep_5_b_K_2.0.png	 K	 b	 b	 n.a.	 8.375898e-01
7	 2	 137	 flanked	 bex	 4	 6.000000	 2.000000	 flanked_bex_freq_4_amplitude_6_rep_4_l_H_2.0.png	 H	 l	 l	 n.a.	 5.309520e-01
7	 2	 138	 flanked	 bex	 4	 6.000000	 2.000000	 flanked_bex_freq_4_amplitude_6_rep_6_b_K_2.0.png	 K	 b	 b	 n.a.	 4.749005e-01
7	 2	 139	 flanked	 bex	 4	 7.000000	 2.000000	 flanked_bex_freq_4_amplitude_7_rep_0_b_N_2.0.png	 N	 b	 b	 n.a.	 5.860641e-01
7	 2	 140	 flanked	 bex	 4	 1.000000	 2.000000	 flanked_bex_freq_4_amplitude_1_rep_2_r_H_2.0.png	 H	 r	 r	 n.a.	 9.220820e-01
7	 2	 141	 flanked	 bex	 4	 4.000000	 2.000000	 flanked_bex_freq_4_amplitude_4_rep_4_l_K_2.0.png	 K	 l	 l	 n.a.	 3.520925e-01
7	 2	 142	 flanked	 bex	 4	 4.000000	 2.000000	 flanked_bex_freq_4_amplitude_4_rep_4_l_K_2.0.png	 K	 l	 l	 n.a.	 3.670793e-01
7	 2	 143	 flanked	 bex	 4	 4.000000	 2.000000	 flanked_bex_freq_4_amplitude_4_rep_1_t_K_2.0.png	 K	 t	 b	 n.a.	 6.134421e-01
7	 2	 144	 flanked	 bex	 4	 2.000000	 2.000000	 flanked_bex_freq_4_amplitude_2_rep_7_t_N_2.0.png	 N	 t	 r	 n.a.	 7.981644e-01
7	 2	 145	 flanked	 bex	 4	 6.000000	 2.000000	 flanked_bex_freq_4_amplitude_6_rep_7_r_D_2.0.png	 D	 r	 r	 n.a.	 2.672954e-01
7	 2	 146	 flanked	 bex	 4	 6.000000	 2.000000	 flanked_bex_freq_4_amplitude_6_rep_1_b_H_2.0.png	 H	 b	 b	 n.a.	 7.213755e-01
7	 2	 147	 flanked	 bex	 4	 3.000000	 2.000000	 flanked_bex_freq_4_amplitude_3_rep_1_l_N_2.0.png	 N	 l	 l	 n.a.	 3.355058e-01
7	 2	 148	 flanked	 bex	 4	 3.000000	 2.000000	 flanked_bex_freq_4_amplitude_3_rep_5_b_K_2.0.png	 K	 b	 t	 n.a.	 8.507715e-01
7	 2	 149	 flanked	 bex	 4	 1.000000	 2.000000	 flanked_bex_freq_4_amplitude_1_rep_4_l_N_2.0.png	 N	 l	 b	 n.a.	 5.868222e-01
7	 2	 150	 flanked	 bex	 4	 6.000000	 2.000000	 flanked_bex_freq_4_amplitude_6_rep_4_l_H_2.0.png	 H	 l	 l	 n.a.	 3.993443e-01
7	 2	 151	 flanked	 bex	 4	 5.000000	 2.000000	 flanked_bex_freq_4_amplitude_5_rep_3_r_D_2.0.png	 D	 r	 r	 n.a.	 4.411593e-01
7	 2	 152	 flanked	 bex	 4	 6.000000	 2.000000	 flanked_bex_freq_4_amplitude_6_rep_8_b_N_2.0.png	 N	 b	 b	 n.a.	 4.617860e-01
7	 2	 153	 flanked	 bex	 4	 7.000000	 2.000000	 flanked_bex_freq_4_amplitude_7_rep_3_t_N_2.0.png	 N	 t	 r	 n.a.	 4.370247e-01
7	 2	 154	 flanked	 bex	 4	 1.000000	 2.000000	 flanked_bex_freq_4_amplitude_1_rep_7_r_D_2.0.png	 D	 r	 b	 n.a.	 4.482987e-01
7	 2	 155	 flanked	 bex	 4	 1.000000	 2.000000	 flanked_bex_freq_4_amplitude_1_rep_3_t_K_2.0.png	 K	 t	 b	 n.a.	 5.688292e-01
7	 2	 156	 flanked	 bex	 4	 5.000000	 2.000000	 flanked_bex_freq_4_amplitude_5_rep_6_l_N_2.0.png	 N	 l	 l	 n.a.	 2.862563e-01
7	 2	 157	 flanked	 bex	 4	 2.000000	 2.000000	 flanked_bex_freq_4_amplitude_2_rep_1_b_N_2.0.png	 N	 b	 r	 n.a.	 4.137826e-01
7	 2	 158	 flanked	 bex	 4	 1.000000	 2.000000	 flanked_bex_freq_4_amplitude_1_rep_9_b_N_2.0.png	 N	 b	 b	 n.a.	 5.712955e-01
7	 2	 159	 flanked	 bex	 4	 7.000000	 2.000000	 flanked_bex_freq_4_amplitude_7_rep_7_t_K_2.0.png	 K	 t	 t	 n.a.	 8.435334e-01
7	 2	 160	 flanked	 bex	 4	 1.000000	 2.000000	 flanked_bex_freq_4_amplitude_1_rep_5_t_K_2.0.png	 K	 t	 l	 n.a.	 7.588673e-01
7	 2	 161	 flanked	 bex	 4	 7.000000	 2.000000	 flanked_bex_freq_4_amplitude_7_rep_2_r_D_2.0.png	 D	 r	 r	 n.a.	 3.898097e-01
7	 2	 162	 flanked	 bex	 4	 5.000000	 2.000000	 flanked_bex_freq_4_amplitude_5_rep_1_r_D_2.0.png	 D	 r	 r	 n.a.	 5.088385e-01
7	 2	 163	 flanked	 bex	 4	 6.000000	 2.000000	 flanked_bex_freq_4_amplitude_6_rep_3_b_K_2.0.png	 K	 b	 r	 n.a.	 9.432815e-01
7	 2	 164	 flanked	 bex	 4	 1.000000	 2.000000	 flanked_bex_freq_4_amplitude_1_rep_7_r_D_2.0.png	 D	 r	 b	 n.a.	 4.917448e-01
7	 2	 165	 flanked	 bex	 4	 6.000000	 2.000000	 flanked_bex_freq_4_amplitude_6_rep_0_r_N_2.0.png	 N	 r	 r	 n.a.	 3.009497e-01
7	 2	 166	 flanked	 bex	 4	 5.000000	 2.000000	 flanked_bex_freq_4_amplitude_5_rep_3_r_D_2.0.png	 D	 r	 r	 n.a.	 4.053010e-01
7	 2	 167	 flanked	 bex	 4	 2.000000	 2.000000	 flanked_bex_freq_4_amplitude_2_rep_5_t_N_2.0.png	 N	 t	 b	 n.a.	 6.787460e-01
7	 2	 168	 flanked	 bex	 4	 3.000000	 2.000000	 flanked_bex_freq_4_amplitude_3_rep_3_r_K_2.0.png	 K	 r	 r	 n.a.	 4.034045e-01
7	 2	 169	 flanked	 bex	 4	 2.000000	 2.000000	 flanked_bex_freq_4_amplitude_2_rep_0_t_D_2.0.png	 D	 t	 l	 n.a.	 4.638013e-01
7	 2	 170	 flanked	 bex	 4	 6.000000	 2.000000	 flanked_bex_freq_4_amplitude_6_rep_5_r_H_2.0.png	 H	 r	 r	 n.a.	 3.184381e-01
7	 2	 171	 flanked	 bex	 4	 2.000000	 2.000000	 flanked_bex_freq_4_amplitude_2_rep_5_t_N_2.0.png	 N	 t	 t	 n.a.	 5.057263e-01
7	 2	 172	 flanked	 bex	 4	 6.000000	 2.000000	 flanked_bex_freq_4_amplitude_6_rep_6_b_K_2.0.png	 K	 b	 b	 n.a.	 8.175304e-01
7	 2	 173	 flanked	 bex	 4	 3.000000	 2.000000	 flanked_bex_freq_4_amplitude_3_rep_9_b_K_2.0.png	 K	 b	 b	 n.a.	 8.294485e-01
7	 2	 174	 flanked	 bex	 4	 3.000000	 2.000000	 flanked_bex_freq_4_amplitude_3_rep_6_r_K_2.0.png	 K	 r	 r	 n.a.	 4.805007e-01
7	 2	 175	 flanked	 bex	 4	 5.000000	 2.000000	 flanked_bex_freq_4_amplitude_5_rep_7_t_N_2.0.png	 N	 t	 t	 n.a.	 5.900322e-01
7	 2	 176	 flanked	 bex	 4	 1.000000	 2.000000	 flanked_bex_freq_4_amplitude_1_rep_6_r_N_2.0.png	 N	 r	 t	 n.a.	 5.845884e-01
7	 2	 177	 flanked	 bex	 4	 2.000000	 2.000000	 flanked_bex_freq_4_amplitude_2_rep_6_l_D_2.0.png	 D	 l	 l	 n.a.	 5.410722e-01
7	 2	 178	 flanked	 bex	 4	 3.000000	 2.000000	 flanked_bex_freq_4_amplitude_3_rep_8_r_H_2.0.png	 H	 r	 r	 n.a.	 3.556559e-01
7	 2	 179	 flanked	 bex	 4	 5.000000	 2.000000	 flanked_bex_freq_4_amplitude_5_rep_7_t_N_2.0.png	 N	 t	 t	 n.a.	 4.822648e-01
7	 2	 180	 flanked	 bex	 4	 7.000000	 2.000000	 flanked_bex_freq_4_amplitude_7_rep_4_l_H_2.0.png	 H	 l	 l	 n.a.	 3.882158e-01
7	 2	 181	 flanked	 bex	 4	 5.000000	 2.000000	 flanked_bex_freq_4_amplitude_5_rep_5_l_H_2.0.png	 H	 l	 l	 n.a.	 5.983232e-01
7	 2	 182	 flanked	 bex	 4	 4.000000	 2.000000	 flanked_bex_freq_4_amplitude_4_rep_2_t_K_2.0.png	 K	 t	 t	 n.a.	 5.304494e-01
7	 2	 183	 flanked	 bex	 4	 7.000000	 2.000000	 flanked_bex_freq_4_amplitude_7_rep_0_b_N_2.0.png	 N	 b	 b	 n.a.	 5.182755e-01
7	 2	 184	 flanked	 bex	 4	 4.000000	 2.000000	 flanked_bex_freq_4_amplitude_4_rep_7_r_K_2.0.png	 K	 r	 r	 n.a.	 4.852999e-01
7	 2	 185	 flanked	 bex	 4	 6.000000	 2.000000	 flanked_bex_freq_4_amplitude_6_rep_1_b_H_2.0.png	 H	 b	 t	 n.a.	 6.123528e-01
7	 2	 186	 flanked	 bex	 4	 1.000000	 2.000000	 flanked_bex_freq_4_amplitude_1_rep_0_r_D_2.0.png	 D	 r	 r	 n.a.	 5.309390e-01
7	 2	 187	 flanked	 bex	 4	 7.000000	 2.000000	 flanked_bex_freq_4_amplitude_7_rep_3_t_N_2.0.png	 N	 t	 r	 n.a.	 4.408488e-01
7	 2	 188	 flanked	 bex	 4	 2.000000	 2.000000	 flanked_bex_freq_4_amplitude_2_rep_9_l_D_2.0.png	 D	 l	 l	 n.a.	 3.403226e-01
7	 2	 189	 flanked	 bex	 4	 3.000000	 2.000000	 flanked_bex_freq_4_amplitude_3_rep_1_l_N_2.0.png	 N	 l	 l	 n.a.	 4.953249e-01
7	 2	 190	 flanked	 bex	 4	 6.000000	 2.000000	 flanked_bex_freq_4_amplitude_6_rep_9_b_D_2.0.png	 D	 b	 b	 n.a.	 4.162349e-01
7	 2	 191	 flanked	 bex	 4	 4.000000	 2.000000	 flanked_bex_freq_4_amplitude_4_rep_3_t_H_2.0.png	 H	 t	 r	 n.a.	 7.144449e-01
7	 2	 192	 flanked	 bex	 4	 4.000000	 2.000000	 flanked_bex_freq_4_amplitude_4_rep_5_t_N_2.0.png	 N	 t	 t	 n.a.	 4.129685e-01
7	 2	 193	 flanked	 bex	 4	 1.000000	 2.000000	 flanked_bex_freq_4_amplitude_1_rep_2_r_H_2.0.png	 H	 r	 r	 n.a.	 5.193403e-01
7	 2	 194	 flanked	 bex	 4	 4.000000	 2.000000	 flanked_bex_freq_4_amplitude_4_rep_8_r_D_2.0.png	 D	 r	 r	 n.a.	 4.098414e-01
7	 2	 195	 flanked	 bex	 4	 4.000000	 2.000000	 flanked_bex_freq_4_amplitude_4_rep_0_t_H_2.0.png	 H	 t	 l	 n.a.	 5.096335e-01
7	 2	 196	 flanked	 bex	 4	 2.000000	 2.000000	 flanked_bex_freq_4_amplitude_2_rep_8_r_D_2.0.png	 D	 r	 r	 n.a.	 3.138002e-01
7	 2	 197	 flanked	 bex	 4	 1.000000	 2.000000	 flanked_bex_freq_4_amplitude_1_rep_6_r_N_2.0.png	 N	 r	 b	 n.a.	 4.644750e-01
7	 2	 198	 flanked	 bex	 4	 4.000000	 2.000000	 flanked_bex_freq_4_amplitude_4_rep_0_t_H_2.0.png	 H	 t	 l	 n.a.	 3.861000e-01
7	 2	 199	 flanked	 bex	 4	 6.000000	 2.000000	 flanked_bex_freq_4_amplitude_6_rep_7_r_D_2.0.png	 D	 r	 r	 n.a.	 3.476478e-01
7	 2	 200	 flanked	 bex	 4	 4.000000	 2.000000	 flanked_bex_freq_4_amplitude_4_rep_3_t_H_2.0.png	 H	 t	 t	 n.a.	 6.055112e-01
7	 2	 201	 flanked	 bex	 4	 6.000000	 2.000000	 flanked_bex_freq_4_amplitude_6_rep_6_b_K_2.0.png	 K	 b	 b	 n.a.	 3.488785e-01
7	 2	 202	 flanked	 bex	 4	 1.000000	 2.000000	 flanked_bex_freq_4_amplitude_1_rep_8_r_N_2.0.png	 N	 r	 r	 n.a.	 5.471080e-01
7	 2	 203	 flanked	 bex	 4	 7.000000	 2.000000	 flanked_bex_freq_4_amplitude_7_rep_7_t_K_2.0.png	 K	 t	 l	 n.a.	 4.280769e-01
7	 2	 204	 flanked	 bex	 4	 4.000000	 2.000000	 flanked_bex_freq_4_amplitude_4_rep_0_t_H_2.0.png	 H	 t	 b	 n.a.	 9.477958e-01
7	 2	 205	 flanked	 bex	 4	 2.000000	 2.000000	 flanked_bex_freq_4_amplitude_2_rep_9_l_D_2.0.png	 D	 l	 l	 n.a.	 5.697369e-01
7	 2	 206	 flanked	 bex	 4	 2.000000	 2.000000	 flanked_bex_freq_4_amplitude_2_rep_0_t_D_2.0.png	 D	 t	 l	 n.a.	 4.067103e-01
7	 2	 207	 flanked	 bex	 4	 6.000000	 2.000000	 flanked_bex_freq_4_amplitude_6_rep_1_b_H_2.0.png	 H	 b	 r	 n.a.	 3.146327e-01
7	 2	 208	 flanked	 bex	 4	 1.000000	 2.000000	 flanked_bex_freq_4_amplitude_1_rep_3_t_K_2.0.png	 K	 t	 r	 n.a.	 6.645437e-01
7	 2	 209	 flanked	 bex	 4	 1.000000	 2.000000	 flanked_bex_freq_4_amplitude_1_rep_5_t_K_2.0.png	 K	 t	 b	 n.a.	 4.364389e-01
7	 2	 210	 flanked	 bex	 4	 4.000000	 2.000000	 flanked_bex_freq_4_amplitude_4_rep_8_r_D_2.0.png	 D	 r	 r	 n.a.	 3.688105e-01
