subject	 session	 trial	 flanked	 distortion	 freq	 amplitude	 spacing	 im_name	 targ_letter	 targ_pos	 response	 eyemovement	 RT
5	 1	 1	 flanked	 bex	 4	 2.000000	 2.000000	 flanked_bex_freq_4_amplitude_2_rep_4_l_D_2.0.png	 D	 l	 t	 n.a.	 4.370841e-01
5	 1	 2	 flanked	 bex	 4	 1.000000	 2.000000	 flanked_bex_freq_4_amplitude_1_rep_2_r_H_2.0.png	 H	 r	 r	 n.a.	 6.396766e-01
5	 1	 3	 flanked	 bex	 4	 2.000000	 2.000000	 flanked_bex_freq_4_amplitude_2_rep_3_l_K_2.0.png	 K	 l	 t	 n.a.	 7.803196e-01
5	 1	 4	 flanked	 bex	 4	 5.000000	 2.000000	 flanked_bex_freq_4_amplitude_5_rep_5_l_H_2.0.png	 H	 l	 l	 n.a.	 5.270931e-01
5	 1	 5	 flanked	 bex	 4	 1.000000	 2.000000	 flanked_bex_freq_4_amplitude_1_rep_2_r_H_2.0.png	 H	 r	 t	 n.a.	 7.361371e-01
5	 1	 6	 flanked	 bex	 4	 1.000000	 2.000000	 flanked_bex_freq_4_amplitude_1_rep_6_r_N_2.0.png	 N	 r	 t	 n.a.	 8.541968e-01
5	 1	 7	 flanked	 bex	 4	 5.000000	 2.000000	 flanked_bex_freq_4_amplitude_5_rep_6_l_N_2.0.png	 N	 l	 l	 n.a.	 6.003372e-01
5	 1	 8	 flanked	 bex	 4	 4.000000	 2.000000	 flanked_bex_freq_4_amplitude_4_rep_4_l_K_2.0.png	 K	 l	 l	 n.a.	 1.355558e+00
5	 1	 9	 flanked	 bex	 4	 7.000000	 2.000000	 flanked_bex_freq_4_amplitude_7_rep_6_l_K_2.0.png	 K	 l	 l	 n.a.	 5.886839e-01
5	 1	 10	 flanked	 bex	 4	 6.000000	 2.000000	 flanked_bex_freq_4_amplitude_6_rep_3_b_K_2.0.png	 K	 b	 t	 n.a.	 7.635069e-01
5	 1	 11	 flanked	 bex	 4	 6.000000	 2.000000	 flanked_bex_freq_4_amplitude_6_rep_0_r_N_2.0.png	 N	 r	 r	 n.a.	 4.136365e-01
5	 1	 12	 flanked	 bex	 4	 4.000000	 2.000000	 flanked_bex_freq_4_amplitude_4_rep_0_t_H_2.0.png	 H	 t	 b	 n.a.	 1.236855e+00
5	 1	 13	 flanked	 bex	 4	 4.000000	 2.000000	 flanked_bex_freq_4_amplitude_4_rep_8_r_D_2.0.png	 D	 r	 r	 n.a.	 7.633927e-01
5	 1	 14	 flanked	 bex	 4	 7.000000	 2.000000	 flanked_bex_freq_4_amplitude_7_rep_8_r_D_2.0.png	 D	 r	 r	 n.a.	 3.542253e-01
5	 1	 15	 flanked	 bex	 4	 4.000000	 2.000000	 flanked_bex_freq_4_amplitude_4_rep_6_t_H_2.0.png	 H	 t	 t	 n.a.	 5.221715e-01
5	 1	 16	 flanked	 bex	 4	 1.000000	 2.000000	 flanked_bex_freq_4_amplitude_1_rep_6_r_N_2.0.png	 N	 r	 r	 n.a.	 1.280100e+00
5	 1	 17	 flanked	 bex	 4	 5.000000	 2.000000	 flanked_bex_freq_4_amplitude_5_rep_7_t_N_2.0.png	 N	 t	 t	 n.a.	 1.167594e+00
5	 1	 18	 flanked	 bex	 4	 7.000000	 2.000000	 flanked_bex_freq_4_amplitude_7_rep_3_t_N_2.0.png	 N	 t	 t	 n.a.	 1.619792e+00
5	 1	 19	 flanked	 bex	 4	 6.000000	 2.000000	 flanked_bex_freq_4_amplitude_6_rep_7_r_D_2.0.png	 D	 r	 r	 n.a.	 5.401549e-01
5	 1	 20	 flanked	 bex	 4	 1.000000	 2.000000	 flanked_bex_freq_4_amplitude_1_rep_3_t_K_2.0.png	 K	 t	 r	 n.a.	 1.188544e+00
5	 1	 21	 flanked	 bex	 4	 3.000000	 2.000000	 flanked_bex_freq_4_amplitude_3_rep_9_b_K_2.0.png	 K	 b	 b	 n.a.	 1.334772e+00
5	 1	 22	 flanked	 bex	 4	 4.000000	 2.000000	 flanked_bex_freq_4_amplitude_4_rep_3_t_H_2.0.png	 H	 t	 t	 n.a.	 5.569426e-01
5	 1	 23	 flanked	 bex	 4	 7.000000	 2.000000	 flanked_bex_freq_4_amplitude_7_rep_9_t_K_2.0.png	 K	 t	 t	 n.a.	 7.389273e-01
5	 1	 24	 flanked	 bex	 4	 4.000000	 2.000000	 flanked_bex_freq_4_amplitude_4_rep_8_r_D_2.0.png	 D	 r	 l	 n.a.	 5.367796e-01
5	 1	 25	 flanked	 bex	 4	 3.000000	 2.000000	 flanked_bex_freq_4_amplitude_3_rep_4_l_D_2.0.png	 D	 l	 l	 n.a.	 6.785846e-01
5	 1	 26	 flanked	 bex	 4	 1.000000	 2.000000	 flanked_bex_freq_4_amplitude_1_rep_4_l_N_2.0.png	 N	 l	 t	 n.a.	 5.740598e-01
5	 1	 27	 flanked	 bex	 4	 6.000000	 2.000000	 flanked_bex_freq_4_amplitude_6_rep_1_b_H_2.0.png	 H	 b	 r	 n.a.	 7.650152e-01
5	 1	 28	 flanked	 bex	 4	 1.000000	 2.000000	 flanked_bex_freq_4_amplitude_1_rep_5_t_K_2.0.png	 K	 t	 t	 n.a.	 7.323012e-01
5	 1	 29	 flanked	 bex	 4	 5.000000	 2.000000	 flanked_bex_freq_4_amplitude_5_rep_9_t_K_2.0.png	 K	 t	 t	 n.a.	 4.771930e-01
5	 1	 30	 flanked	 bex	 4	 7.000000	 2.000000	 flanked_bex_freq_4_amplitude_7_rep_4_l_H_2.0.png	 H	 l	 l	 n.a.	 4.532060e-01
5	 1	 31	 flanked	 bex	 4	 3.000000	 2.000000	 flanked_bex_freq_4_amplitude_3_rep_3_r_K_2.0.png	 K	 r	 r	 n.a.	 6.574901e-01
5	 1	 32	 flanked	 bex	 4	 4.000000	 2.000000	 flanked_bex_freq_4_amplitude_4_rep_7_r_K_2.0.png	 K	 r	 t	 n.a.	 7.724313e-01
5	 1	 33	 flanked	 bex	 4	 2.000000	 2.000000	 flanked_bex_freq_4_amplitude_2_rep_8_r_D_2.0.png	 D	 r	 r	 n.a.	 5.788413e-01
5	 1	 34	 flanked	 bex	 4	 7.000000	 2.000000	 flanked_bex_freq_4_amplitude_7_rep_8_r_D_2.0.png	 D	 r	 r	 n.a.	 7.548115e-01
5	 1	 35	 flanked	 bex	 4	 1.000000	 2.000000	 flanked_bex_freq_4_amplitude_1_rep_7_r_D_2.0.png	 D	 r	 r	 n.a.	 1.042418e+00
5	 1	 36	 flanked	 bex	 4	 2.000000	 2.000000	 flanked_bex_freq_4_amplitude_2_rep_5_t_N_2.0.png	 N	 t	 t	 n.a.	 9.210638e-01
5	 1	 37	 flanked	 bex	 4	 7.000000	 2.000000	 flanked_bex_freq_4_amplitude_7_rep_9_t_K_2.0.png	 K	 t	 b	 n.a.	 1.105173e+00
5	 1	 38	 flanked	 bex	 4	 6.000000	 2.000000	 flanked_bex_freq_4_amplitude_6_rep_4_l_H_2.0.png	 H	 l	 t	 n.a.	 5.235112e-01
5	 1	 39	 flanked	 bex	 4	 7.000000	 2.000000	 flanked_bex_freq_4_amplitude_7_rep_9_t_K_2.0.png	 K	 t	 t	 n.a.	 1.179893e+00
5	 1	 40	 flanked	 bex	 4	 3.000000	 2.000000	 flanked_bex_freq_4_amplitude_3_rep_1_l_N_2.0.png	 N	 l	 b	 n.a.	 7.254906e-01
5	 1	 41	 flanked	 bex	 4	 1.000000	 2.000000	 flanked_bex_freq_4_amplitude_1_rep_2_r_H_2.0.png	 H	 r	 r	 n.a.	 6.307936e-01
5	 1	 42	 flanked	 bex	 4	 3.000000	 2.000000	 flanked_bex_freq_4_amplitude_3_rep_8_r_H_2.0.png	 H	 r	 l	 n.a.	 9.190853e-01
5	 1	 43	 flanked	 bex	 4	 3.000000	 2.000000	 flanked_bex_freq_4_amplitude_3_rep_2_t_H_2.0.png	 H	 t	 t	 n.a.	 9.700155e-01
5	 1	 44	 flanked	 bex	 4	 6.000000	 2.000000	 flanked_bex_freq_4_amplitude_6_rep_1_b_H_2.0.png	 H	 b	 b	 n.a.	 8.506684e-01
5	 1	 45	 flanked	 bex	 4	 4.000000	 2.000000	 flanked_bex_freq_4_amplitude_4_rep_2_t_K_2.0.png	 K	 t	 t	 n.a.	 9.520190e-01
5	 1	 46	 flanked	 bex	 4	 7.000000	 2.000000	 flanked_bex_freq_4_amplitude_7_rep_4_l_H_2.0.png	 H	 l	 l	 n.a.	 8.415261e-01
5	 1	 47	 flanked	 bex	 4	 2.000000	 2.000000	 flanked_bex_freq_4_amplitude_2_rep_9_l_D_2.0.png	 D	 l	 r	 n.a.	 7.432306e-01
5	 1	 48	 flanked	 bex	 4	 6.000000	 2.000000	 flanked_bex_freq_4_amplitude_6_rep_8_b_N_2.0.png	 N	 b	 b	 n.a.	 7.190347e-01
5	 1	 49	 flanked	 bex	 4	 7.000000	 2.000000	 flanked_bex_freq_4_amplitude_7_rep_0_b_N_2.0.png	 N	 b	 b	 n.a.	 7.762788e-01
5	 1	 50	 flanked	 bex	 4	 7.000000	 2.000000	 flanked_bex_freq_4_amplitude_7_rep_3_t_N_2.0.png	 N	 t	 t	 n.a.	 9.591567e-01
5	 1	 51	 flanked	 bex	 4	 3.000000	 2.000000	 flanked_bex_freq_4_amplitude_3_rep_9_b_K_2.0.png	 K	 b	 r	 n.a.	 7.003062e-01
5	 1	 52	 flanked	 bex	 4	 6.000000	 2.000000	 flanked_bex_freq_4_amplitude_6_rep_5_r_H_2.0.png	 H	 r	 r	 n.a.	 5.472139e-01
5	 1	 53	 flanked	 bex	 4	 5.000000	 2.000000	 flanked_bex_freq_4_amplitude_5_rep_2_t_N_2.0.png	 N	 t	 t	 n.a.	 4.724844e-01
5	 1	 54	 flanked	 bex	 4	 7.000000	 2.000000	 flanked_bex_freq_4_amplitude_7_rep_1_l_K_2.0.png	 K	 l	 l	 n.a.	 5.200640e-01
5	 1	 55	 flanked	 bex	 4	 7.000000	 2.000000	 flanked_bex_freq_4_amplitude_7_rep_5_r_D_2.0.png	 D	 r	 r	 n.a.	 7.172904e-01
5	 1	 56	 flanked	 bex	 4	 4.000000	 2.000000	 flanked_bex_freq_4_amplitude_4_rep_5_t_N_2.0.png	 N	 t	 t	 n.a.	 4.777348e-01
5	 1	 57	 flanked	 bex	 4	 4.000000	 2.000000	 flanked_bex_freq_4_amplitude_4_rep_5_t_N_2.0.png	 N	 t	 t	 n.a.	 4.854738e-01
5	 1	 58	 flanked	 bex	 4	 2.000000	 2.000000	 flanked_bex_freq_4_amplitude_2_rep_9_l_D_2.0.png	 D	 l	 t	 n.a.	 4.837072e-01
5	 1	 59	 flanked	 bex	 4	 3.000000	 2.000000	 flanked_bex_freq_4_amplitude_3_rep_2_t_H_2.0.png	 H	 t	 t	 n.a.	 5.564862e-01
5	 1	 60	 flanked	 bex	 4	 1.000000	 2.000000	 flanked_bex_freq_4_amplitude_1_rep_1_t_D_2.0.png	 D	 t	 r	 n.a.	 5.659125e-01
5	 1	 61	 flanked	 bex	 4	 4.000000	 2.000000	 flanked_bex_freq_4_amplitude_4_rep_0_t_H_2.0.png	 H	 t	 t	 n.a.	 5.601024e-01
5	 1	 62	 flanked	 bex	 4	 3.000000	 2.000000	 flanked_bex_freq_4_amplitude_3_rep_1_l_N_2.0.png	 N	 l	 b	 n.a.	 1.004079e+00
5	 1	 63	 flanked	 bex	 4	 1.000000	 2.000000	 flanked_bex_freq_4_amplitude_1_rep_3_t_K_2.0.png	 K	 t	 t	 n.a.	 5.828257e-01
5	 1	 64	 flanked	 bex	 4	 3.000000	 2.000000	 flanked_bex_freq_4_amplitude_3_rep_9_b_K_2.0.png	 K	 b	 r	 n.a.	 9.448233e-01
5	 1	 65	 flanked	 bex	 4	 6.000000	 2.000000	 flanked_bex_freq_4_amplitude_6_rep_6_b_K_2.0.png	 K	 b	 t	 n.a.	 1.102118e+00
5	 1	 66	 flanked	 bex	 4	 1.000000	 2.000000	 flanked_bex_freq_4_amplitude_1_rep_5_t_K_2.0.png	 K	 t	 t	 n.a.	 5.712976e-01
5	 1	 67	 flanked	 bex	 4	 3.000000	 2.000000	 flanked_bex_freq_4_amplitude_3_rep_6_r_K_2.0.png	 K	 r	 r	 n.a.	 5.068820e-01
5	 1	 68	 flanked	 bex	 4	 3.000000	 2.000000	 flanked_bex_freq_4_amplitude_3_rep_2_t_H_2.0.png	 H	 t	 b	 n.a.	 9.178717e-01
5	 1	 69	 flanked	 bex	 4	 6.000000	 2.000000	 flanked_bex_freq_4_amplitude_6_rep_2_r_H_2.0.png	 H	 r	 r	 n.a.	 4.763782e-01
5	 1	 70	 flanked	 bex	 4	 1.000000	 2.000000	 flanked_bex_freq_4_amplitude_1_rep_4_l_N_2.0.png	 N	 l	 t	 n.a.	 6.233962e-01
5	 1	 71	 flanked	 bex	 4	 7.000000	 2.000000	 flanked_bex_freq_4_amplitude_7_rep_7_t_K_2.0.png	 K	 t	 r	 n.a.	 8.892937e-01
5	 1	 72	 flanked	 bex	 4	 3.000000	 2.000000	 flanked_bex_freq_4_amplitude_3_rep_7_r_D_2.0.png	 D	 r	 r	 n.a.	 5.210514e-01
5	 1	 73	 flanked	 bex	 4	 7.000000	 2.000000	 flanked_bex_freq_4_amplitude_7_rep_2_r_D_2.0.png	 D	 r	 t	 n.a.	 5.342220e-01
5	 1	 74	 flanked	 bex	 4	 7.000000	 2.000000	 flanked_bex_freq_4_amplitude_7_rep_5_r_D_2.0.png	 D	 r	 r	 n.a.	 4.135091e-01
5	 1	 75	 flanked	 bex	 4	 6.000000	 2.000000	 flanked_bex_freq_4_amplitude_6_rep_0_r_N_2.0.png	 N	 r	 r	 n.a.	 6.946949e-01
5	 1	 76	 flanked	 bex	 4	 7.000000	 2.000000	 flanked_bex_freq_4_amplitude_7_rep_2_r_D_2.0.png	 D	 r	 t	 n.a.	 6.992686e-01
5	 1	 77	 flanked	 bex	 4	 6.000000	 2.000000	 flanked_bex_freq_4_amplitude_6_rep_4_l_H_2.0.png	 H	 l	 t	 n.a.	 1.114782e+00
5	 1	 78	 flanked	 bex	 4	 5.000000	 2.000000	 flanked_bex_freq_4_amplitude_5_rep_6_l_N_2.0.png	 N	 l	 l	 n.a.	 3.363341e-01
5	 1	 79	 flanked	 bex	 4	 4.000000	 2.000000	 flanked_bex_freq_4_amplitude_4_rep_1_t_K_2.0.png	 K	 t	 t	 n.a.	 5.157139e-01
5	 1	 80	 flanked	 bex	 4	 5.000000	 2.000000	 flanked_bex_freq_4_amplitude_5_rep_3_r_D_2.0.png	 D	 r	 t	 n.a.	 6.208149e-01
5	 1	 81	 flanked	 bex	 4	 6.000000	 2.000000	 flanked_bex_freq_4_amplitude_6_rep_9_b_D_2.0.png	 D	 b	 b	 n.a.	 5.023024e-01
5	 1	 82	 flanked	 bex	 4	 7.000000	 2.000000	 flanked_bex_freq_4_amplitude_7_rep_0_b_N_2.0.png	 N	 b	 b	 n.a.	 4.113804e-01
5	 1	 83	 flanked	 bex	 4	 2.000000	 2.000000	 flanked_bex_freq_4_amplitude_2_rep_6_l_D_2.0.png	 D	 l	 r	 n.a.	 5.891819e-01
5	 1	 84	 flanked	 bex	 4	 4.000000	 2.000000	 flanked_bex_freq_4_amplitude_4_rep_2_t_K_2.0.png	 K	 t	 t	 n.a.	 5.005964e-01
5	 1	 85	 flanked	 bex	 4	 1.000000	 2.000000	 flanked_bex_freq_4_amplitude_1_rep_8_r_N_2.0.png	 N	 r	 r	 n.a.	 6.520178e-01
5	 1	 86	 flanked	 bex	 4	 1.000000	 2.000000	 flanked_bex_freq_4_amplitude_1_rep_4_l_N_2.0.png	 N	 l	 b	 n.a.	 6.501852e-01
5	 1	 87	 flanked	 bex	 4	 5.000000	 2.000000	 flanked_bex_freq_4_amplitude_5_rep_8_l_D_2.0.png	 D	 l	 l	 n.a.	 3.057830e-01
5	 1	 88	 flanked	 bex	 4	 2.000000	 2.000000	 flanked_bex_freq_4_amplitude_2_rep_8_r_D_2.0.png	 D	 r	 t	 n.a.	 6.773001e-01
5	 1	 89	 flanked	 bex	 4	 5.000000	 2.000000	 flanked_bex_freq_4_amplitude_5_rep_1_r_D_2.0.png	 D	 r	 t	 n.a.	 6.500648e-01
5	 1	 90	 flanked	 bex	 4	 3.000000	 2.000000	 flanked_bex_freq_4_amplitude_3_rep_4_l_D_2.0.png	 D	 l	 t	 n.a.	 6.506351e-01
5	 1	 91	 flanked	 bex	 4	 1.000000	 2.000000	 flanked_bex_freq_4_amplitude_1_rep_8_r_N_2.0.png	 N	 r	 r	 n.a.	 7.763448e-01
5	 1	 92	 flanked	 bex	 4	 7.000000	 2.000000	 flanked_bex_freq_4_amplitude_7_rep_3_t_N_2.0.png	 N	 t	 t	 n.a.	 8.147859e-01
5	 1	 93	 flanked	 bex	 4	 3.000000	 2.000000	 flanked_bex_freq_4_amplitude_3_rep_7_r_D_2.0.png	 D	 r	 r	 n.a.	 1.043291e+00
5	 1	 94	 flanked	 bex	 4	 1.000000	 2.000000	 flanked_bex_freq_4_amplitude_1_rep_0_r_D_2.0.png	 D	 r	 r	 n.a.	 6.024294e-01
5	 1	 95	 flanked	 bex	 4	 3.000000	 2.000000	 flanked_bex_freq_4_amplitude_3_rep_6_r_K_2.0.png	 K	 r	 r	 n.a.	 6.027590e-01
5	 1	 96	 flanked	 bex	 4	 5.000000	 2.000000	 flanked_bex_freq_4_amplitude_5_rep_0_b_K_2.0.png	 K	 b	 b	 n.a.	 1.391627e+00
5	 1	 97	 flanked	 bex	 4	 1.000000	 2.000000	 flanked_bex_freq_4_amplitude_1_rep_8_r_N_2.0.png	 N	 r	 r	 n.a.	 7.707935e-01
5	 1	 98	 flanked	 bex	 4	 5.000000	 2.000000	 flanked_bex_freq_4_amplitude_5_rep_9_t_K_2.0.png	 K	 t	 t	 n.a.	 4.511189e-01
5	 1	 99	 flanked	 bex	 4	 7.000000	 2.000000	 flanked_bex_freq_4_amplitude_7_rep_4_l_H_2.0.png	 H	 l	 l	 n.a.	 4.237772e-01
5	 1	 100	 flanked	 bex	 4	 7.000000	 2.000000	 flanked_bex_freq_4_amplitude_7_rep_5_r_D_2.0.png	 D	 r	 t	 n.a.	 5.164853e-01
5	 1	 101	 flanked	 bex	 4	 2.000000	 2.000000	 flanked_bex_freq_4_amplitude_2_rep_2_l_H_2.0.png	 H	 l	 r	 n.a.	 6.633943e-01
5	 1	 102	 flanked	 bex	 4	 2.000000	 2.000000	 flanked_bex_freq_4_amplitude_2_rep_2_l_H_2.0.png	 H	 l	 l	 n.a.	 4.832769e-01
5	 1	 103	 flanked	 bex	 4	 1.000000	 2.000000	 flanked_bex_freq_4_amplitude_1_rep_7_r_D_2.0.png	 D	 r	 t	 n.a.	 6.660283e-01
5	 1	 104	 flanked	 bex	 4	 2.000000	 2.000000	 flanked_bex_freq_4_amplitude_2_rep_6_l_D_2.0.png	 D	 l	 r	 n.a.	 3.822905e-01
5	 1	 105	 flanked	 bex	 4	 2.000000	 2.000000	 flanked_bex_freq_4_amplitude_2_rep_8_r_D_2.0.png	 D	 r	 r	 n.a.	 6.725824e-01
5	 1	 106	 flanked	 bex	 4	 7.000000	 2.000000	 flanked_bex_freq_4_amplitude_7_rep_1_l_K_2.0.png	 K	 l	 l	 n.a.	 3.722770e-01
5	 1	 107	 flanked	 bex	 4	 5.000000	 2.000000	 flanked_bex_freq_4_amplitude_5_rep_8_l_D_2.0.png	 D	 l	 l	 n.a.	 3.514933e-01
5	 1	 108	 flanked	 bex	 4	 1.000000	 2.000000	 flanked_bex_freq_4_amplitude_1_rep_9_b_N_2.0.png	 N	 b	 t	 n.a.	 3.916670e-01
5	 1	 109	 flanked	 bex	 4	 6.000000	 2.000000	 flanked_bex_freq_4_amplitude_6_rep_2_r_H_2.0.png	 H	 r	 r	 n.a.	 6.684933e-01
5	 1	 110	 flanked	 bex	 4	 2.000000	 2.000000	 flanked_bex_freq_4_amplitude_2_rep_2_l_H_2.0.png	 H	 l	 l	 n.a.	 7.519558e-01
5	 1	 111	 flanked	 bex	 4	 1.000000	 2.000000	 flanked_bex_freq_4_amplitude_1_rep_3_t_K_2.0.png	 K	 t	 r	 n.a.	 5.663341e-01
5	 1	 112	 flanked	 bex	 4	 6.000000	 2.000000	 flanked_bex_freq_4_amplitude_6_rep_8_b_N_2.0.png	 N	 b	 r	 n.a.	 5.291717e-01
5	 1	 113	 flanked	 bex	 4	 2.000000	 2.000000	 flanked_bex_freq_4_amplitude_2_rep_3_l_K_2.0.png	 K	 l	 t	 n.a.	 3.846702e-01
5	 1	 114	 flanked	 bex	 4	 5.000000	 2.000000	 flanked_bex_freq_4_amplitude_5_rep_7_t_N_2.0.png	 N	 t	 t	 n.a.	 4.202051e-01
5	 1	 115	 flanked	 bex	 4	 4.000000	 2.000000	 flanked_bex_freq_4_amplitude_4_rep_2_t_K_2.0.png	 K	 t	 t	 n.a.	 8.831270e-01
5	 1	 116	 flanked	 bex	 4	 2.000000	 2.000000	 flanked_bex_freq_4_amplitude_2_rep_0_t_D_2.0.png	 D	 t	 l	 n.a.	 1.207195e+00
5	 1	 117	 flanked	 bex	 4	 5.000000	 2.000000	 flanked_bex_freq_4_amplitude_5_rep_0_b_K_2.0.png	 K	 b	 b	 n.a.	 4.827421e-01
5	 1	 118	 flanked	 bex	 4	 7.000000	 2.000000	 flanked_bex_freq_4_amplitude_7_rep_7_t_K_2.0.png	 K	 t	 t	 n.a.	 7.272610e-01
5	 1	 119	 flanked	 bex	 4	 7.000000	 2.000000	 flanked_bex_freq_4_amplitude_7_rep_6_l_K_2.0.png	 K	 l	 l	 n.a.	 4.703019e-01
5	 1	 120	 flanked	 bex	 4	 1.000000	 2.000000	 flanked_bex_freq_4_amplitude_1_rep_1_t_D_2.0.png	 D	 t	 r	 n.a.	 5.075067e-01
5	 1	 121	 flanked	 bex	 4	 3.000000	 2.000000	 flanked_bex_freq_4_amplitude_3_rep_0_b_N_2.0.png	 N	 b	 b	 n.a.	 3.922135e-01
5	 1	 122	 flanked	 bex	 4	 1.000000	 2.000000	 flanked_bex_freq_4_amplitude_1_rep_7_r_D_2.0.png	 D	 r	 r	 n.a.	 6.870271e-01
5	 1	 123	 flanked	 bex	 4	 4.000000	 2.000000	 flanked_bex_freq_4_amplitude_4_rep_4_l_K_2.0.png	 K	 l	 l	 n.a.	 3.708321e-01
5	 1	 124	 flanked	 bex	 4	 2.000000	 2.000000	 flanked_bex_freq_4_amplitude_2_rep_5_t_N_2.0.png	 N	 t	 b	 n.a.	 6.170715e-01
5	 1	 125	 flanked	 bex	 4	 5.000000	 2.000000	 flanked_bex_freq_4_amplitude_5_rep_3_r_D_2.0.png	 D	 r	 t	 n.a.	 5.817412e-01
5	 1	 126	 flanked	 bex	 4	 3.000000	 2.000000	 flanked_bex_freq_4_amplitude_3_rep_4_l_D_2.0.png	 D	 l	 l	 n.a.	 4.872026e-01
5	 1	 127	 flanked	 bex	 4	 3.000000	 2.000000	 flanked_bex_freq_4_amplitude_3_rep_0_b_N_2.0.png	 N	 b	 b	 n.a.	 7.248415e-01
5	 1	 128	 flanked	 bex	 4	 2.000000	 2.000000	 flanked_bex_freq_4_amplitude_2_rep_9_l_D_2.0.png	 D	 l	 r	 n.a.	 5.500772e-01
5	 1	 129	 flanked	 bex	 4	 7.000000	 2.000000	 flanked_bex_freq_4_amplitude_7_rep_8_r_D_2.0.png	 D	 r	 r	 n.a.	 7.825847e-01
5	 1	 130	 flanked	 bex	 4	 5.000000	 2.000000	 flanked_bex_freq_4_amplitude_5_rep_4_t_D_2.0.png	 D	 t	 t	 n.a.	 5.488508e-01
5	 1	 131	 flanked	 bex	 4	 3.000000	 2.000000	 flanked_bex_freq_4_amplitude_3_rep_7_r_D_2.0.png	 D	 r	 r	 n.a.	 1.104551e+00
5	 1	 132	 flanked	 bex	 4	 6.000000	 2.000000	 flanked_bex_freq_4_amplitude_6_rep_5_r_H_2.0.png	 H	 r	 t	 n.a.	 4.606674e-01
5	 1	 133	 flanked	 bex	 4	 4.000000	 2.000000	 flanked_bex_freq_4_amplitude_4_rep_1_t_K_2.0.png	 K	 t	 t	 n.a.	 1.252725e+00
5	 1	 134	 flanked	 bex	 4	 5.000000	 2.000000	 flanked_bex_freq_4_amplitude_5_rep_8_l_D_2.0.png	 D	 l	 l	 n.a.	 6.509296e-01
5	 1	 135	 flanked	 bex	 4	 5.000000	 2.000000	 flanked_bex_freq_4_amplitude_5_rep_4_t_D_2.0.png	 D	 t	 t	 n.a.	 6.013726e-01
5	 1	 136	 flanked	 bex	 4	 7.000000	 2.000000	 flanked_bex_freq_4_amplitude_7_rep_7_t_K_2.0.png	 K	 t	 t	 n.a.	 4.287232e-01
5	 1	 137	 flanked	 bex	 4	 3.000000	 2.000000	 flanked_bex_freq_4_amplitude_3_rep_0_b_N_2.0.png	 N	 b	 r	 n.a.	 5.217029e-01
5	 1	 138	 flanked	 bex	 4	 3.000000	 2.000000	 flanked_bex_freq_4_amplitude_3_rep_5_b_K_2.0.png	 K	 b	 t	 n.a.	 3.237585e-01
5	 1	 139	 flanked	 bex	 4	 6.000000	 2.000000	 flanked_bex_freq_4_amplitude_6_rep_9_b_D_2.0.png	 D	 b	 b	 n.a.	 5.189970e-01
5	 1	 140	 flanked	 bex	 4	 3.000000	 2.000000	 flanked_bex_freq_4_amplitude_3_rep_5_b_K_2.0.png	 K	 b	 b	 n.a.	 6.305713e-01
5	 1	 141	 flanked	 bex	 4	 4.000000	 2.000000	 flanked_bex_freq_4_amplitude_4_rep_9_t_N_2.0.png	 N	 t	 t	 n.a.	 5.614183e-01
5	 1	 142	 flanked	 bex	 4	 4.000000	 2.000000	 flanked_bex_freq_4_amplitude_4_rep_3_t_H_2.0.png	 H	 t	 t	 n.a.	 8.737889e-01
5	 1	 143	 flanked	 bex	 4	 2.000000	 2.000000	 flanked_bex_freq_4_amplitude_2_rep_7_t_N_2.0.png	 N	 t	 r	 n.a.	 4.080899e-01
5	 1	 144	 flanked	 bex	 4	 3.000000	 2.000000	 flanked_bex_freq_4_amplitude_3_rep_3_r_K_2.0.png	 K	 r	 r	 n.a.	 4.973973e-01
5	 1	 145	 flanked	 bex	 4	 3.000000	 2.000000	 flanked_bex_freq_4_amplitude_3_rep_8_r_H_2.0.png	 H	 r	 r	 n.a.	 3.123329e-01
5	 1	 146	 flanked	 bex	 4	 6.000000	 2.000000	 flanked_bex_freq_4_amplitude_6_rep_5_r_H_2.0.png	 H	 r	 r	 n.a.	 3.449779e-01
5	 1	 147	 flanked	 bex	 4	 6.000000	 2.000000	 flanked_bex_freq_4_amplitude_6_rep_6_b_K_2.0.png	 K	 b	 b	 n.a.	 4.161032e-01
5	 1	 148	 flanked	 bex	 4	 4.000000	 2.000000	 flanked_bex_freq_4_amplitude_4_rep_9_t_N_2.0.png	 N	 t	 t	 n.a.	 5.917301e-01
5	 1	 149	 flanked	 bex	 4	 2.000000	 2.000000	 flanked_bex_freq_4_amplitude_2_rep_0_t_D_2.0.png	 D	 t	 r	 n.a.	 4.918069e-01
5	 1	 150	 flanked	 bex	 4	 6.000000	 2.000000	 flanked_bex_freq_4_amplitude_6_rep_8_b_N_2.0.png	 N	 b	 b	 n.a.	 3.918082e-01
5	 1	 151	 flanked	 bex	 4	 1.000000	 2.000000	 flanked_bex_freq_4_amplitude_1_rep_0_r_D_2.0.png	 D	 r	 b	 n.a.	 4.084431e-01
5	 1	 152	 flanked	 bex	 4	 4.000000	 2.000000	 flanked_bex_freq_4_amplitude_4_rep_5_t_N_2.0.png	 N	 t	 t	 n.a.	 5.408208e-01
5	 1	 153	 flanked	 bex	 4	 2.000000	 2.000000	 flanked_bex_freq_4_amplitude_2_rep_1_b_N_2.0.png	 N	 b	 r	 n.a.	 7.636164e-01
5	 1	 154	 flanked	 bex	 4	 2.000000	 2.000000	 flanked_bex_freq_4_amplitude_2_rep_7_t_N_2.0.png	 N	 t	 b	 n.a.	 4.869890e-01
5	 1	 155	 flanked	 bex	 4	 3.000000	 2.000000	 flanked_bex_freq_4_amplitude_3_rep_8_r_H_2.0.png	 H	 r	 r	 n.a.	 3.281964e-01
5	 1	 156	 flanked	 bex	 4	 6.000000	 2.000000	 flanked_bex_freq_4_amplitude_6_rep_7_r_D_2.0.png	 D	 r	 b	 n.a.	 7.578467e-01
5	 1	 157	 flanked	 bex	 4	 7.000000	 2.000000	 flanked_bex_freq_4_amplitude_7_rep_0_b_N_2.0.png	 N	 b	 b	 n.a.	 5.418806e-01
5	 1	 158	 flanked	 bex	 4	 1.000000	 2.000000	 flanked_bex_freq_4_amplitude_1_rep_6_r_N_2.0.png	 N	 r	 r	 n.a.	 5.719975e-01
5	 1	 159	 flanked	 bex	 4	 1.000000	 2.000000	 flanked_bex_freq_4_amplitude_1_rep_9_b_N_2.0.png	 N	 b	 r	 n.a.	 4.413908e-01
5	 1	 160	 flanked	 bex	 4	 2.000000	 2.000000	 flanked_bex_freq_4_amplitude_2_rep_6_l_D_2.0.png	 D	 l	 r	 n.a.	 1.005188e+00
5	 1	 161	 flanked	 bex	 4	 7.000000	 2.000000	 flanked_bex_freq_4_amplitude_7_rep_6_l_K_2.0.png	 K	 l	 l	 n.a.	 4.087706e-01
5	 1	 162	 flanked	 bex	 4	 5.000000	 2.000000	 flanked_bex_freq_4_amplitude_5_rep_4_t_D_2.0.png	 D	 t	 l	 n.a.	 8.586459e-01
5	 1	 163	 flanked	 bex	 4	 5.000000	 2.000000	 flanked_bex_freq_4_amplitude_5_rep_0_b_K_2.0.png	 K	 b	 b	 n.a.	 4.161977e-01
5	 1	 164	 flanked	 bex	 4	 6.000000	 2.000000	 flanked_bex_freq_4_amplitude_6_rep_1_b_H_2.0.png	 H	 b	 b	 n.a.	 5.478462e-01
5	 1	 165	 flanked	 bex	 4	 5.000000	 2.000000	 flanked_bex_freq_4_amplitude_5_rep_6_l_N_2.0.png	 N	 l	 t	 n.a.	 1.038794e+00
5	 1	 166	 flanked	 bex	 4	 4.000000	 2.000000	 flanked_bex_freq_4_amplitude_4_rep_8_r_D_2.0.png	 D	 r	 b	 n.a.	 9.323537e-01
5	 1	 167	 flanked	 bex	 4	 6.000000	 2.000000	 flanked_bex_freq_4_amplitude_6_rep_7_r_D_2.0.png	 D	 r	 r	 n.a.	 4.027530e-01
5	 1	 168	 flanked	 bex	 4	 1.000000	 2.000000	 flanked_bex_freq_4_amplitude_1_rep_0_r_D_2.0.png	 D	 r	 r	 n.a.	 4.547847e-01
5	 1	 169	 flanked	 bex	 4	 5.000000	 2.000000	 flanked_bex_freq_4_amplitude_5_rep_1_r_D_2.0.png	 D	 r	 r	 n.a.	 4.459765e-01
5	 1	 170	 flanked	 bex	 4	 6.000000	 2.000000	 flanked_bex_freq_4_amplitude_6_rep_0_r_N_2.0.png	 N	 r	 t	 n.a.	 8.920864e-01
5	 1	 171	 flanked	 bex	 4	 6.000000	 2.000000	 flanked_bex_freq_4_amplitude_6_rep_3_b_K_2.0.png	 K	 b	 b	 n.a.	 5.358173e-01
5	 1	 172	 flanked	 bex	 4	 2.000000	 2.000000	 flanked_bex_freq_4_amplitude_2_rep_1_b_N_2.0.png	 N	 b	 r	 n.a.	 6.251335e-01
5	 1	 173	 flanked	 bex	 4	 5.000000	 2.000000	 flanked_bex_freq_4_amplitude_5_rep_2_t_N_2.0.png	 N	 t	 t	 n.a.	 4.894565e-01
5	 1	 174	 flanked	 bex	 4	 1.000000	 2.000000	 flanked_bex_freq_4_amplitude_1_rep_9_b_N_2.0.png	 N	 b	 b	 n.a.	 4.571678e-01
5	 1	 175	 flanked	 bex	 4	 6.000000	 2.000000	 flanked_bex_freq_4_amplitude_6_rep_9_b_D_2.0.png	 D	 b	 b	 n.a.	 4.203464e-01
5	 1	 176	 flanked	 bex	 4	 6.000000	 2.000000	 flanked_bex_freq_4_amplitude_6_rep_4_l_H_2.0.png	 H	 l	 t	 n.a.	 5.033524e-01
5	 1	 177	 flanked	 bex	 4	 1.000000	 2.000000	 flanked_bex_freq_4_amplitude_1_rep_1_t_D_2.0.png	 D	 t	 b	 n.a.	 9.755276e-01
5	 1	 178	 flanked	 bex	 4	 6.000000	 2.000000	 flanked_bex_freq_4_amplitude_6_rep_3_b_K_2.0.png	 K	 b	 b	 n.a.	 9.701099e-01
5	 1	 179	 flanked	 bex	 4	 4.000000	 2.000000	 flanked_bex_freq_4_amplitude_4_rep_7_r_K_2.0.png	 K	 r	 r	 n.a.	 1.038367e+00
5	 1	 180	 flanked	 bex	 4	 4.000000	 2.000000	 flanked_bex_freq_4_amplitude_4_rep_1_t_K_2.0.png	 K	 t	 t	 n.a.	 4.873168e-01
5	 1	 181	 flanked	 bex	 4	 3.000000	 2.000000	 flanked_bex_freq_4_amplitude_3_rep_1_l_N_2.0.png	 N	 l	 l	 n.a.	 6.095578e-01
5	 1	 182	 flanked	 bex	 4	 5.000000	 2.000000	 flanked_bex_freq_4_amplitude_5_rep_7_t_N_2.0.png	 N	 t	 t	 n.a.	 4.964634e-01
5	 1	 183	 flanked	 bex	 4	 3.000000	 2.000000	 flanked_bex_freq_4_amplitude_3_rep_3_r_K_2.0.png	 K	 r	 t	 n.a.	 7.241142e-01
5	 1	 184	 flanked	 bex	 4	 5.000000	 2.000000	 flanked_bex_freq_4_amplitude_5_rep_5_l_H_2.0.png	 H	 l	 l	 n.a.	 8.653087e-01
5	 1	 185	 flanked	 bex	 4	 1.000000	 2.000000	 flanked_bex_freq_4_amplitude_1_rep_5_t_K_2.0.png	 K	 t	 t	 n.a.	 5.742509e-01
5	 1	 186	 flanked	 bex	 4	 5.000000	 2.000000	 flanked_bex_freq_4_amplitude_5_rep_2_t_N_2.0.png	 N	 t	 t	 n.a.	 3.265649e-01
5	 1	 187	 flanked	 bex	 4	 4.000000	 2.000000	 flanked_bex_freq_4_amplitude_4_rep_7_r_K_2.0.png	 K	 r	 r	 n.a.	 7.896498e-01
5	 1	 188	 flanked	 bex	 4	 5.000000	 2.000000	 flanked_bex_freq_4_amplitude_5_rep_9_t_K_2.0.png	 K	 t	 t	 n.a.	 3.643937e-01
5	 1	 189	 flanked	 bex	 4	 6.000000	 2.000000	 flanked_bex_freq_4_amplitude_6_rep_6_b_K_2.0.png	 K	 b	 t	 n.a.	 4.977602e-01
5	 1	 190	 flanked	 bex	 4	 5.000000	 2.000000	 flanked_bex_freq_4_amplitude_5_rep_1_r_D_2.0.png	 D	 r	 t	 n.a.	 3.849490e-01
5	 1	 191	 flanked	 bex	 4	 2.000000	 2.000000	 flanked_bex_freq_4_amplitude_2_rep_0_t_D_2.0.png	 D	 t	 b	 n.a.	 4.853823e-01
5	 1	 192	 flanked	 bex	 4	 3.000000	 2.000000	 flanked_bex_freq_4_amplitude_3_rep_6_r_K_2.0.png	 K	 r	 r	 n.a.	 4.369426e-01
5	 1	 193	 flanked	 bex	 4	 4.000000	 2.000000	 flanked_bex_freq_4_amplitude_4_rep_4_l_K_2.0.png	 K	 l	 t	 n.a.	 7.114062e-01
5	 1	 194	 flanked	 bex	 4	 3.000000	 2.000000	 flanked_bex_freq_4_amplitude_3_rep_5_b_K_2.0.png	 K	 b	 t	 n.a.	 8.056314e-01
5	 1	 195	 flanked	 bex	 4	 5.000000	 2.000000	 flanked_bex_freq_4_amplitude_5_rep_3_r_D_2.0.png	 D	 r	 r	 n.a.	 4.373224e-01
5	 1	 196	 flanked	 bex	 4	 2.000000	 2.000000	 flanked_bex_freq_4_amplitude_2_rep_7_t_N_2.0.png	 N	 t	 t	 n.a.	 5.877042e-01
5	 1	 197	 flanked	 bex	 4	 2.000000	 2.000000	 flanked_bex_freq_4_amplitude_2_rep_1_b_N_2.0.png	 N	 b	 r	 n.a.	 5.727543e-01
5	 1	 198	 flanked	 bex	 4	 4.000000	 2.000000	 flanked_bex_freq_4_amplitude_4_rep_6_t_H_2.0.png	 H	 t	 t	 n.a.	 8.267293e-01
5	 1	 199	 flanked	 bex	 4	 2.000000	 2.000000	 flanked_bex_freq_4_amplitude_2_rep_4_l_D_2.0.png	 D	 l	 r	 n.a.	 1.228279e+00
5	 1	 200	 flanked	 bex	 4	 2.000000	 2.000000	 flanked_bex_freq_4_amplitude_2_rep_3_l_K_2.0.png	 K	 l	 t	 n.a.	 6.526487e-01
5	 1	 201	 flanked	 bex	 4	 2.000000	 2.000000	 flanked_bex_freq_4_amplitude_2_rep_5_t_N_2.0.png	 N	 t	 l	 n.a.	 4.558069e-01
5	 1	 202	 flanked	 bex	 4	 7.000000	 2.000000	 flanked_bex_freq_4_amplitude_7_rep_2_r_D_2.0.png	 D	 r	 t	 n.a.	 6.320793e-01
5	 1	 203	 flanked	 bex	 4	 7.000000	 2.000000	 flanked_bex_freq_4_amplitude_7_rep_1_l_K_2.0.png	 K	 l	 l	 n.a.	 3.557836e-01
5	 1	 204	 flanked	 bex	 4	 4.000000	 2.000000	 flanked_bex_freq_4_amplitude_4_rep_0_t_H_2.0.png	 H	 t	 t	 n.a.	 7.442668e-01
5	 1	 205	 flanked	 bex	 4	 4.000000	 2.000000	 flanked_bex_freq_4_amplitude_4_rep_9_t_N_2.0.png	 N	 t	 l	 n.a.	 5.083720e-01
5	 1	 206	 flanked	 bex	 4	 6.000000	 2.000000	 flanked_bex_freq_4_amplitude_6_rep_2_r_H_2.0.png	 H	 r	 r	 n.a.	 7.376676e-01
5	 1	 207	 flanked	 bex	 4	 5.000000	 2.000000	 flanked_bex_freq_4_amplitude_5_rep_5_l_H_2.0.png	 H	 l	 r	 n.a.	 1.066127e+00
5	 1	 208	 flanked	 bex	 4	 2.000000	 2.000000	 flanked_bex_freq_4_amplitude_2_rep_4_l_D_2.0.png	 D	 l	 t	 n.a.	 6.060288e-01
5	 1	 209	 flanked	 bex	 4	 4.000000	 2.000000	 flanked_bex_freq_4_amplitude_4_rep_3_t_H_2.0.png	 H	 t	 t	 n.a.	 5.270006e-01
5	 1	 210	 flanked	 bex	 4	 4.000000	 2.000000	 flanked_bex_freq_4_amplitude_4_rep_6_t_H_2.0.png	 H	 t	 t	 n.a.	 5.956521e-01
