subject	 session	 trial	 flanked	 distortion	 freq	 amplitude	 spacing	 im_name	 targ_letter	 targ_pos	 response	 eyemovement	 RT
2	 2	 1	 flanked	 rf	 4	 0.425000	 2.000000	 flanked_rf_freq_4_amplitude_0.425_rep_7_l_D_2.0.png	 D	 l	 t	 n.a.	 5.584454e-01
2	 2	 2	 flanked	 rf	 4	 0.500000	 2.000000	 flanked_rf_freq_4_amplitude_0.5_rep_2_b_D_2.0.png	 D	 b	 b	 n.a.	 6.307530e-01
2	 2	 3	 flanked	 rf	 4	 0.500000	 2.000000	 flanked_rf_freq_4_amplitude_0.5_rep_0_b_D_2.0.png	 D	 b	 t	 n.a.	 5.508010e-01
2	 2	 4	 flanked	 rf	 4	 0.050000	 2.000000	 flanked_rf_freq_4_amplitude_0.05_rep_8_l_D_2.0.png	 D	 l	 b	 n.a.	 5.882173e-01
2	 2	 5	 flanked	 rf	 4	 0.125000	 2.000000	 flanked_rf_freq_4_amplitude_0.125_rep_4_l_K_2.0.png	 K	 l	 l	 n.a.	 3.086656e-01
2	 2	 6	 flanked	 rf	 4	 0.125000	 2.000000	 flanked_rf_freq_4_amplitude_0.125_rep_0_r_D_2.0.png	 D	 r	 b	 n.a.	 4.851481e-01
2	 2	 7	 flanked	 rf	 4	 0.350000	 2.000000	 flanked_rf_freq_4_amplitude_0.35_rep_8_b_N_2.0.png	 N	 b	 r	 n.a.	 3.592437e-01
2	 2	 8	 flanked	 rf	 4	 0.125000	 2.000000	 flanked_rf_freq_4_amplitude_0.125_rep_6_l_K_2.0.png	 K	 l	 l	 n.a.	 5.475687e-01
2	 2	 9	 flanked	 rf	 4	 0.050000	 2.000000	 flanked_rf_freq_4_amplitude_0.05_rep_9_l_D_2.0.png	 D	 l	 b	 n.a.	 7.065013e-01
2	 2	 10	 flanked	 rf	 4	 0.275000	 2.000000	 flanked_rf_freq_4_amplitude_0.275_rep_5_t_H_2.0.png	 H	 t	 t	 n.a.	 3.071809e-01
2	 2	 11	 flanked	 rf	 4	 0.350000	 2.000000	 flanked_rf_freq_4_amplitude_0.35_rep_4_l_K_2.0.png	 K	 l	 l	 n.a.	 5.695996e-01
2	 2	 12	 flanked	 rf	 4	 0.200000	 2.000000	 flanked_rf_freq_4_amplitude_0.2_rep_0_l_N_2.0.png	 N	 l	 l	 n.a.	 3.857602e-01
2	 2	 13	 flanked	 rf	 4	 0.275000	 2.000000	 flanked_rf_freq_4_amplitude_0.275_rep_0_r_N_2.0.png	 N	 r	 t	 n.a.	 5.016128e-01
2	 2	 14	 flanked	 rf	 4	 0.425000	 2.000000	 flanked_rf_freq_4_amplitude_0.425_rep_4_l_D_2.0.png	 D	 l	 t	 n.a.	 4.599361e-01
2	 2	 15	 flanked	 rf	 4	 0.050000	 2.000000	 flanked_rf_freq_4_amplitude_0.05_rep_6_r_N_2.0.png	 N	 r	 b	 n.a.	 4.465732e-01
2	 2	 16	 flanked	 rf	 4	 0.425000	 2.000000	 flanked_rf_freq_4_amplitude_0.425_rep_8_l_H_2.0.png	 H	 l	 l	 n.a.	 5.817443e-01
2	 2	 17	 flanked	 rf	 4	 0.125000	 2.000000	 flanked_rf_freq_4_amplitude_0.125_rep_9_l_D_2.0.png	 D	 l	 t	 n.a.	 4.194764e-01
2	 2	 18	 flanked	 rf	 4	 0.350000	 2.000000	 flanked_rf_freq_4_amplitude_0.35_rep_8_b_N_2.0.png	 N	 b	 b	 n.a.	 4.847248e-01
2	 2	 19	 flanked	 rf	 4	 0.500000	 2.000000	 flanked_rf_freq_4_amplitude_0.5_rep_9_b_N_2.0.png	 N	 b	 r	 n.a.	 4.537366e-01
2	 2	 20	 flanked	 rf	 4	 0.350000	 2.000000	 flanked_rf_freq_4_amplitude_0.35_rep_6_r_N_2.0.png	 N	 r	 t	 n.a.	 3.600742e-01
2	 2	 21	 flanked	 rf	 4	 0.050000	 2.000000	 flanked_rf_freq_4_amplitude_0.05_rep_3_t_K_2.0.png	 K	 t	 b	 n.a.	 5.628653e-01
2	 2	 22	 flanked	 rf	 4	 0.050000	 2.000000	 flanked_rf_freq_4_amplitude_0.05_rep_2_b_N_2.0.png	 N	 b	 l	 n.a.	 4.248523e-01
2	 2	 23	 flanked	 rf	 4	 0.125000	 2.000000	 flanked_rf_freq_4_amplitude_0.125_rep_5_l_K_2.0.png	 K	 l	 t	 n.a.	 6.493546e-01
2	 2	 24	 flanked	 rf	 4	 0.050000	 2.000000	 flanked_rf_freq_4_amplitude_0.05_rep_4_b_K_2.0.png	 K	 b	 b	 n.a.	 2.843343e-01
2	 2	 25	 flanked	 rf	 4	 0.275000	 2.000000	 flanked_rf_freq_4_amplitude_0.275_rep_8_t_N_2.0.png	 N	 t	 l	 n.a.	 4.386972e-01
2	 2	 26	 flanked	 rf	 4	 0.200000	 2.000000	 flanked_rf_freq_4_amplitude_0.2_rep_9_b_N_2.0.png	 N	 b	 t	 n.a.	 4.557382e-01
2	 2	 27	 flanked	 rf	 4	 0.425000	 2.000000	 flanked_rf_freq_4_amplitude_0.425_rep_3_b_K_2.0.png	 K	 b	 b	 n.a.	 4.787470e-01
2	 2	 28	 flanked	 rf	 4	 0.050000	 2.000000	 flanked_rf_freq_4_amplitude_0.05_rep_0_t_D_2.0.png	 D	 t	 b	 n.a.	 7.245551e-01
2	 2	 29	 flanked	 rf	 4	 0.350000	 2.000000	 flanked_rf_freq_4_amplitude_0.35_rep_4_l_K_2.0.png	 K	 l	 l	 n.a.	 3.796412e-01
2	 2	 30	 flanked	 rf	 4	 0.500000	 2.000000	 flanked_rf_freq_4_amplitude_0.5_rep_7_r_H_2.0.png	 H	 r	 r	 n.a.	 2.552248e-01
2	 2	 31	 flanked	 rf	 4	 0.350000	 2.000000	 flanked_rf_freq_4_amplitude_0.35_rep_6_r_N_2.0.png	 N	 r	 t	 n.a.	 4.764191e-01
2	 2	 32	 flanked	 rf	 4	 0.500000	 2.000000	 flanked_rf_freq_4_amplitude_0.5_rep_4_l_H_2.0.png	 H	 l	 l	 n.a.	 3.697235e-01
2	 2	 33	 flanked	 rf	 4	 0.050000	 2.000000	 flanked_rf_freq_4_amplitude_0.05_rep_6_r_N_2.0.png	 N	 r	 t	 n.a.	 5.951810e-01
2	 2	 34	 flanked	 rf	 4	 0.050000	 2.000000	 flanked_rf_freq_4_amplitude_0.05_rep_4_b_K_2.0.png	 K	 b	 b	 n.a.	 3.400877e-01
2	 2	 35	 flanked	 rf	 4	 0.350000	 2.000000	 flanked_rf_freq_4_amplitude_0.35_rep_1_t_K_2.0.png	 K	 t	 t	 n.a.	 5.344169e-01
2	 2	 36	 flanked	 rf	 4	 0.350000	 2.000000	 flanked_rf_freq_4_amplitude_0.35_rep_9_r_H_2.0.png	 H	 r	 r	 n.a.	 2.229830e-01
2	 2	 37	 flanked	 rf	 4	 0.200000	 2.000000	 flanked_rf_freq_4_amplitude_0.2_rep_2_t_H_2.0.png	 H	 t	 t	 n.a.	 5.674691e-01
2	 2	 38	 flanked	 rf	 4	 0.500000	 2.000000	 flanked_rf_freq_4_amplitude_0.5_rep_8_t_D_2.0.png	 D	 t	 l	 n.a.	 5.165374e-01
2	 2	 39	 flanked	 rf	 4	 0.050000	 2.000000	 flanked_rf_freq_4_amplitude_0.05_rep_8_l_D_2.0.png	 D	 l	 b	 n.a.	 3.303118e-01
2	 2	 40	 flanked	 rf	 4	 0.500000	 2.000000	 flanked_rf_freq_4_amplitude_0.5_rep_6_t_N_2.0.png	 N	 t	 t	 n.a.	 3.463654e-01
2	 2	 41	 flanked	 rf	 4	 0.425000	 2.000000	 flanked_rf_freq_4_amplitude_0.425_rep_4_l_D_2.0.png	 D	 l	 r	 n.a.	 2.887167e-01
2	 2	 42	 flanked	 rf	 4	 0.275000	 2.000000	 flanked_rf_freq_4_amplitude_0.275_rep_8_t_N_2.0.png	 N	 t	 t	 n.a.	 4.166397e-01
2	 2	 43	 flanked	 rf	 4	 0.275000	 2.000000	 flanked_rf_freq_4_amplitude_0.275_rep_5_t_H_2.0.png	 H	 t	 t	 n.a.	 4.815809e-01
2	 2	 44	 flanked	 rf	 4	 0.350000	 2.000000	 flanked_rf_freq_4_amplitude_0.35_rep_0_t_D_2.0.png	 D	 t	 t	 n.a.	 3.666127e-01
2	 2	 45	 flanked	 rf	 4	 0.425000	 2.000000	 flanked_rf_freq_4_amplitude_0.425_rep_6_l_N_2.0.png	 N	 l	 l	 n.a.	 4.230828e-01
2	 2	 46	 flanked	 rf	 4	 0.500000	 2.000000	 flanked_rf_freq_4_amplitude_0.5_rep_3_l_H_2.0.png	 H	 l	 l	 n.a.	 3.608797e-01
2	 2	 47	 flanked	 rf	 4	 0.275000	 2.000000	 flanked_rf_freq_4_amplitude_0.275_rep_6_t_H_2.0.png	 H	 t	 t	 n.a.	 3.732633e-01
2	 2	 48	 flanked	 rf	 4	 0.050000	 2.000000	 flanked_rf_freq_4_amplitude_0.05_rep_5_l_K_2.0.png	 K	 l	 b	 n.a.	 4.421509e-01
2	 2	 49	 flanked	 rf	 4	 0.125000	 2.000000	 flanked_rf_freq_4_amplitude_0.125_rep_9_l_D_2.0.png	 D	 l	 t	 n.a.	 3.973609e-01
2	 2	 50	 flanked	 rf	 4	 0.500000	 2.000000	 flanked_rf_freq_4_amplitude_0.5_rep_1_l_N_2.0.png	 N	 l	 l	 n.a.	 3.400676e-01
2	 2	 51	 flanked	 rf	 4	 0.050000	 2.000000	 flanked_rf_freq_4_amplitude_0.05_rep_1_l_H_2.0.png	 H	 l	 b	 n.a.	 5.625359e-01
2	 2	 52	 flanked	 rf	 4	 0.425000	 2.000000	 flanked_rf_freq_4_amplitude_0.425_rep_7_l_D_2.0.png	 D	 l	 t	 n.a.	 3.796717e-01
2	 2	 53	 flanked	 rf	 4	 0.200000	 2.000000	 flanked_rf_freq_4_amplitude_0.2_rep_1_r_K_2.0.png	 K	 r	 r	 n.a.	 3.593800e-01
2	 2	 54	 flanked	 rf	 4	 0.425000	 2.000000	 flanked_rf_freq_4_amplitude_0.425_rep_1_t_D_2.0.png	 D	 t	 l	 n.a.	 3.443652e-01
2	 2	 55	 flanked	 rf	 4	 0.500000	 2.000000	 flanked_rf_freq_4_amplitude_0.5_rep_4_l_H_2.0.png	 H	 l	 l	 n.a.	 5.258992e-01
2	 2	 56	 flanked	 rf	 4	 0.275000	 2.000000	 flanked_rf_freq_4_amplitude_0.275_rep_4_l_K_2.0.png	 K	 l	 l	 n.a.	 4.114361e-01
2	 2	 57	 flanked	 rf	 4	 0.350000	 2.000000	 flanked_rf_freq_4_amplitude_0.35_rep_7_r_H_2.0.png	 H	 r	 r	 n.a.	 6.960447e-01
2	 2	 58	 flanked	 rf	 4	 0.350000	 2.000000	 flanked_rf_freq_4_amplitude_0.35_rep_8_b_N_2.0.png	 N	 b	 b	 n.a.	 4.493891e-01
2	 2	 59	 flanked	 rf	 4	 0.425000	 2.000000	 flanked_rf_freq_4_amplitude_0.425_rep_6_l_N_2.0.png	 N	 l	 t	 n.a.	 5.495603e-01
2	 2	 60	 flanked	 rf	 4	 0.050000	 2.000000	 flanked_rf_freq_4_amplitude_0.05_rep_9_l_D_2.0.png	 D	 l	 b	 n.a.	 4.542598e-01
2	 2	 61	 flanked	 rf	 4	 0.425000	 2.000000	 flanked_rf_freq_4_amplitude_0.425_rep_0_l_H_2.0.png	 H	 l	 l	 n.a.	 3.176520e-01
2	 2	 62	 flanked	 rf	 4	 0.350000	 2.000000	 flanked_rf_freq_4_amplitude_0.35_rep_7_r_H_2.0.png	 H	 r	 r	 n.a.	 3.525447e-01
2	 2	 63	 flanked	 rf	 4	 0.050000	 2.000000	 flanked_rf_freq_4_amplitude_0.05_rep_5_l_K_2.0.png	 K	 l	 b	 n.a.	 4.221067e-01
2	 2	 64	 flanked	 rf	 4	 0.500000	 2.000000	 flanked_rf_freq_4_amplitude_0.5_rep_5_t_H_2.0.png	 H	 t	 t	 n.a.	 6.751727e-01
2	 2	 65	 flanked	 rf	 4	 0.125000	 2.000000	 flanked_rf_freq_4_amplitude_0.125_rep_4_l_K_2.0.png	 K	 l	 l	 n.a.	 4.452139e-01
2	 2	 66	 flanked	 rf	 4	 0.350000	 2.000000	 flanked_rf_freq_4_amplitude_0.35_rep_0_t_D_2.0.png	 D	 t	 b	 n.a.	 4.630912e-01
2	 2	 67	 flanked	 rf	 4	 0.350000	 2.000000	 flanked_rf_freq_4_amplitude_0.35_rep_6_r_N_2.0.png	 N	 r	 r	 n.a.	 3.644700e-01
2	 2	 68	 flanked	 rf	 4	 0.500000	 2.000000	 flanked_rf_freq_4_amplitude_0.5_rep_2_b_D_2.0.png	 D	 b	 b	 n.a.	 3.835800e-01
2	 2	 69	 flanked	 rf	 4	 0.125000	 2.000000	 flanked_rf_freq_4_amplitude_0.125_rep_2_r_H_2.0.png	 H	 r	 t	 n.a.	 4.305387e-01
2	 2	 70	 flanked	 rf	 4	 0.275000	 2.000000	 flanked_rf_freq_4_amplitude_0.275_rep_2_l_D_2.0.png	 D	 l	 l	 n.a.	 2.905748e-01
2	 2	 71	 flanked	 rf	 4	 0.500000	 2.000000	 flanked_rf_freq_4_amplitude_0.5_rep_3_l_H_2.0.png	 H	 l	 l	 n.a.	 4.466225e-01
2	 2	 72	 flanked	 rf	 4	 0.425000	 2.000000	 flanked_rf_freq_4_amplitude_0.425_rep_1_t_D_2.0.png	 D	 t	 t	 n.a.	 5.578472e-01
2	 2	 73	 flanked	 rf	 4	 0.350000	 2.000000	 flanked_rf_freq_4_amplitude_0.35_rep_0_t_D_2.0.png	 D	 t	 t	 n.a.	 6.070357e-01
2	 2	 74	 flanked	 rf	 4	 0.425000	 2.000000	 flanked_rf_freq_4_amplitude_0.425_rep_8_l_H_2.0.png	 H	 l	 r	 n.a.	 3.641627e-01
2	 2	 75	 flanked	 rf	 4	 0.200000	 2.000000	 flanked_rf_freq_4_amplitude_0.2_rep_6_b_H_2.0.png	 H	 b	 b	 n.a.	 4.750070e-01
2	 2	 76	 flanked	 rf	 4	 0.350000	 2.000000	 flanked_rf_freq_4_amplitude_0.35_rep_1_t_K_2.0.png	 K	 t	 t	 n.a.	 3.619540e-01
2	 2	 77	 flanked	 rf	 4	 0.275000	 2.000000	 flanked_rf_freq_4_amplitude_0.275_rep_1_r_H_2.0.png	 H	 r	 b	 n.a.	 4.221102e-01
2	 2	 78	 flanked	 rf	 4	 0.275000	 2.000000	 flanked_rf_freq_4_amplitude_0.275_rep_9_l_D_2.0.png	 D	 l	 t	 n.a.	 3.790251e-01
2	 2	 79	 flanked	 rf	 4	 0.275000	 2.000000	 flanked_rf_freq_4_amplitude_0.275_rep_7_b_K_2.0.png	 K	 b	 l	 n.a.	 4.106361e-01
2	 2	 80	 flanked	 rf	 4	 0.050000	 2.000000	 flanked_rf_freq_4_amplitude_0.05_rep_2_b_N_2.0.png	 N	 b	 b	 n.a.	 3.585077e-01
2	 2	 81	 flanked	 rf	 4	 0.425000	 2.000000	 flanked_rf_freq_4_amplitude_0.425_rep_5_b_K_2.0.png	 K	 b	 b	 n.a.	 4.544047e-01
2	 2	 82	 flanked	 rf	 4	 0.350000	 2.000000	 flanked_rf_freq_4_amplitude_0.35_rep_5_b_N_2.0.png	 N	 b	 t	 n.a.	 3.586528e-01
2	 2	 83	 flanked	 rf	 4	 0.275000	 2.000000	 flanked_rf_freq_4_amplitude_0.275_rep_3_l_K_2.0.png	 K	 l	 l	 n.a.	 3.794735e-01
2	 2	 84	 flanked	 rf	 4	 0.200000	 2.000000	 flanked_rf_freq_4_amplitude_0.2_rep_2_t_H_2.0.png	 H	 t	 t	 n.a.	 8.200907e-01
2	 2	 85	 flanked	 rf	 4	 0.200000	 2.000000	 flanked_rf_freq_4_amplitude_0.2_rep_7_b_N_2.0.png	 N	 b	 t	 n.a.	 4.786575e-01
2	 2	 86	 flanked	 rf	 4	 0.350000	 2.000000	 flanked_rf_freq_4_amplitude_0.35_rep_3_b_H_2.0.png	 H	 b	 b	 n.a.	 2.872844e-01
2	 2	 87	 flanked	 rf	 4	 0.050000	 2.000000	 flanked_rf_freq_4_amplitude_0.05_rep_3_t_K_2.0.png	 K	 t	 t	 n.a.	 5.810526e-01
2	 2	 88	 flanked	 rf	 4	 0.350000	 2.000000	 flanked_rf_freq_4_amplitude_0.35_rep_4_l_K_2.0.png	 K	 l	 b	 n.a.	 6.967994e-01
2	 2	 89	 flanked	 rf	 4	 0.275000	 2.000000	 flanked_rf_freq_4_amplitude_0.275_rep_9_l_D_2.0.png	 D	 l	 l	 n.a.	 4.548615e-01
2	 2	 90	 flanked	 rf	 4	 0.125000	 2.000000	 flanked_rf_freq_4_amplitude_0.125_rep_5_l_K_2.0.png	 K	 l	 b	 n.a.	 5.122124e-01
2	 2	 91	 flanked	 rf	 4	 0.425000	 2.000000	 flanked_rf_freq_4_amplitude_0.425_rep_9_l_K_2.0.png	 K	 l	 l	 n.a.	 5.171402e-01
2	 2	 92	 flanked	 rf	 4	 0.350000	 2.000000	 flanked_rf_freq_4_amplitude_0.35_rep_2_t_D_2.0.png	 D	 t	 t	 n.a.	 3.797095e-01
2	 2	 93	 flanked	 rf	 4	 0.350000	 2.000000	 flanked_rf_freq_4_amplitude_0.35_rep_1_t_K_2.0.png	 K	 t	 t	 n.a.	 3.847786e-01
2	 2	 94	 flanked	 rf	 4	 0.200000	 2.000000	 flanked_rf_freq_4_amplitude_0.2_rep_5_l_N_2.0.png	 N	 l	 l	 n.a.	 4.473622e-01
2	 2	 95	 flanked	 rf	 4	 0.350000	 2.000000	 flanked_rf_freq_4_amplitude_0.35_rep_3_b_H_2.0.png	 H	 b	 b	 n.a.	 7.426262e-01
2	 2	 96	 flanked	 rf	 4	 0.350000	 2.000000	 flanked_rf_freq_4_amplitude_0.35_rep_2_t_D_2.0.png	 D	 t	 t	 n.a.	 3.906335e-01
2	 2	 97	 flanked	 rf	 4	 0.275000	 2.000000	 flanked_rf_freq_4_amplitude_0.275_rep_7_b_K_2.0.png	 K	 b	 b	 n.a.	 5.084904e-01
2	 2	 98	 flanked	 rf	 4	 0.425000	 2.000000	 flanked_rf_freq_4_amplitude_0.425_rep_2_t_D_2.0.png	 D	 t	 t	 n.a.	 3.401793e-01
2	 2	 99	 flanked	 rf	 4	 0.350000	 2.000000	 flanked_rf_freq_4_amplitude_0.35_rep_9_r_H_2.0.png	 H	 r	 b	 n.a.	 4.030055e-01
2	 2	 100	 flanked	 rf	 4	 0.125000	 2.000000	 flanked_rf_freq_4_amplitude_0.125_rep_1_r_H_2.0.png	 H	 r	 t	 n.a.	 7.065982e-01
2	 2	 101	 flanked	 rf	 4	 0.050000	 2.000000	 flanked_rf_freq_4_amplitude_0.05_rep_7_b_K_2.0.png	 K	 b	 b	 n.a.	 3.537444e-01
2	 2	 102	 flanked	 rf	 4	 0.350000	 2.000000	 flanked_rf_freq_4_amplitude_0.35_rep_5_b_N_2.0.png	 N	 b	 l	 n.a.	 5.315874e-01
2	 2	 103	 flanked	 rf	 4	 0.050000	 2.000000	 flanked_rf_freq_4_amplitude_0.05_rep_7_b_K_2.0.png	 K	 b	 t	 n.a.	 4.647456e-01
2	 2	 104	 flanked	 rf	 4	 0.500000	 2.000000	 flanked_rf_freq_4_amplitude_0.5_rep_2_b_D_2.0.png	 D	 b	 b	 n.a.	 2.592772e-01
2	 2	 105	 flanked	 rf	 4	 0.200000	 2.000000	 flanked_rf_freq_4_amplitude_0.2_rep_5_l_N_2.0.png	 N	 l	 l	 n.a.	 3.299772e-01
2	 2	 106	 flanked	 rf	 4	 0.275000	 2.000000	 flanked_rf_freq_4_amplitude_0.275_rep_3_l_K_2.0.png	 K	 l	 l	 n.a.	 5.272208e-01
2	 2	 107	 flanked	 rf	 4	 0.275000	 2.000000	 flanked_rf_freq_4_amplitude_0.275_rep_9_l_D_2.0.png	 D	 l	 t	 n.a.	 4.209761e-01
2	 2	 108	 flanked	 rf	 4	 0.425000	 2.000000	 flanked_rf_freq_4_amplitude_0.425_rep_2_t_D_2.0.png	 D	 t	 t	 n.a.	 4.451763e-01
2	 2	 109	 flanked	 rf	 4	 0.200000	 2.000000	 flanked_rf_freq_4_amplitude_0.2_rep_1_r_K_2.0.png	 K	 r	 r	 n.a.	 3.955147e-01
2	 2	 110	 flanked	 rf	 4	 0.200000	 2.000000	 flanked_rf_freq_4_amplitude_0.2_rep_8_l_K_2.0.png	 K	 l	 l	 n.a.	 5.311590e-01
2	 2	 111	 flanked	 rf	 4	 0.050000	 2.000000	 flanked_rf_freq_4_amplitude_0.05_rep_2_b_N_2.0.png	 N	 b	 b	 n.a.	 4.049390e-01
2	 2	 112	 flanked	 rf	 4	 0.425000	 2.000000	 flanked_rf_freq_4_amplitude_0.425_rep_4_l_D_2.0.png	 D	 l	 r	 n.a.	 6.777761e-01
2	 2	 113	 flanked	 rf	 4	 0.425000	 2.000000	 flanked_rf_freq_4_amplitude_0.425_rep_5_b_K_2.0.png	 K	 b	 b	 n.a.	 4.421477e-01
2	 2	 114	 flanked	 rf	 4	 0.500000	 2.000000	 flanked_rf_freq_4_amplitude_0.5_rep_4_l_H_2.0.png	 H	 l	 t	 n.a.	 5.390298e-01
2	 2	 115	 flanked	 rf	 4	 0.050000	 2.000000	 flanked_rf_freq_4_amplitude_0.05_rep_1_l_H_2.0.png	 H	 l	 b	 n.a.	 3.638817e-01
2	 2	 116	 flanked	 rf	 4	 0.125000	 2.000000	 flanked_rf_freq_4_amplitude_0.125_rep_3_l_K_2.0.png	 K	 l	 l	 n.a.	 5.132308e-01
2	 2	 117	 flanked	 rf	 4	 0.500000	 2.000000	 flanked_rf_freq_4_amplitude_0.5_rep_1_l_N_2.0.png	 N	 l	 l	 n.a.	 4.763591e-01
2	 2	 118	 flanked	 rf	 4	 0.125000	 2.000000	 flanked_rf_freq_4_amplitude_0.125_rep_6_l_K_2.0.png	 K	 l	 l	 n.a.	 5.627788e-01
2	 2	 119	 flanked	 rf	 4	 0.200000	 2.000000	 flanked_rf_freq_4_amplitude_0.2_rep_1_r_K_2.0.png	 K	 r	 t	 n.a.	 5.555482e-01
2	 2	 120	 flanked	 rf	 4	 0.050000	 2.000000	 flanked_rf_freq_4_amplitude_0.05_rep_5_l_K_2.0.png	 K	 l	 b	 n.a.	 3.782712e-01
2	 2	 121	 flanked	 rf	 4	 0.050000	 2.000000	 flanked_rf_freq_4_amplitude_0.05_rep_0_t_D_2.0.png	 D	 t	 b	 n.a.	 3.900286e-01
2	 2	 122	 flanked	 rf	 4	 0.050000	 2.000000	 flanked_rf_freq_4_amplitude_0.05_rep_4_b_K_2.0.png	 K	 b	 b	 n.a.	 3.418184e-01
2	 2	 123	 flanked	 rf	 4	 0.125000	 2.000000	 flanked_rf_freq_4_amplitude_0.125_rep_1_r_H_2.0.png	 H	 r	 t	 n.a.	 5.457481e-01
2	 2	 124	 flanked	 rf	 4	 0.275000	 2.000000	 flanked_rf_freq_4_amplitude_0.275_rep_6_t_H_2.0.png	 H	 t	 t	 n.a.	 3.797951e-01
2	 2	 125	 flanked	 rf	 4	 0.275000	 2.000000	 flanked_rf_freq_4_amplitude_0.275_rep_0_r_N_2.0.png	 N	 r	 r	 n.a.	 3.428075e-01
2	 2	 126	 flanked	 rf	 4	 0.500000	 2.000000	 flanked_rf_freq_4_amplitude_0.5_rep_1_l_N_2.0.png	 N	 l	 l	 n.a.	 4.702840e-01
2	 2	 127	 flanked	 rf	 4	 0.350000	 2.000000	 flanked_rf_freq_4_amplitude_0.35_rep_3_b_H_2.0.png	 H	 b	 b	 n.a.	 3.922062e-01
2	 2	 128	 flanked	 rf	 4	 0.125000	 2.000000	 flanked_rf_freq_4_amplitude_0.125_rep_8_r_H_2.0.png	 H	 r	 t	 n.a.	 3.362177e-01
2	 2	 129	 flanked	 rf	 4	 0.350000	 2.000000	 flanked_rf_freq_4_amplitude_0.35_rep_5_b_N_2.0.png	 N	 b	 b	 n.a.	 2.589760e-01
2	 2	 130	 flanked	 rf	 4	 0.275000	 2.000000	 flanked_rf_freq_4_amplitude_0.275_rep_1_r_H_2.0.png	 H	 r	 r	 n.a.	 4.434508e-01
2	 2	 131	 flanked	 rf	 4	 0.050000	 2.000000	 flanked_rf_freq_4_amplitude_0.05_rep_7_b_K_2.0.png	 K	 b	 b	 n.a.	 3.976662e-01
2	 2	 132	 flanked	 rf	 4	 0.425000	 2.000000	 flanked_rf_freq_4_amplitude_0.425_rep_3_b_K_2.0.png	 K	 b	 b	 n.a.	 3.048804e-01
2	 2	 133	 flanked	 rf	 4	 0.350000	 2.000000	 flanked_rf_freq_4_amplitude_0.35_rep_9_r_H_2.0.png	 H	 r	 r	 n.a.	 2.684472e-01
2	 2	 134	 flanked	 rf	 4	 0.500000	 2.000000	 flanked_rf_freq_4_amplitude_0.5_rep_7_r_H_2.0.png	 H	 r	 r	 n.a.	 3.005514e-01
2	 2	 135	 flanked	 rf	 4	 0.275000	 2.000000	 flanked_rf_freq_4_amplitude_0.275_rep_5_t_H_2.0.png	 H	 t	 t	 n.a.	 4.931758e-01
2	 2	 136	 flanked	 rf	 4	 0.200000	 2.000000	 flanked_rf_freq_4_amplitude_0.2_rep_8_l_K_2.0.png	 K	 l	 l	 n.a.	 3.985993e-01
2	 2	 137	 flanked	 rf	 4	 0.200000	 2.000000	 flanked_rf_freq_4_amplitude_0.2_rep_2_t_H_2.0.png	 H	 t	 t	 n.a.	 4.015042e-01
2	 2	 138	 flanked	 rf	 4	 0.125000	 2.000000	 flanked_rf_freq_4_amplitude_0.125_rep_7_t_D_2.0.png	 D	 t	 b	 n.a.	 6.132782e-01
2	 2	 139	 flanked	 rf	 4	 0.200000	 2.000000	 flanked_rf_freq_4_amplitude_0.2_rep_4_l_H_2.0.png	 H	 l	 l	 n.a.	 6.237451e-01
2	 2	 140	 flanked	 rf	 4	 0.275000	 2.000000	 flanked_rf_freq_4_amplitude_0.275_rep_0_r_N_2.0.png	 N	 r	 t	 n.a.	 4.363453e-01
2	 2	 141	 flanked	 rf	 4	 0.275000	 2.000000	 flanked_rf_freq_4_amplitude_0.275_rep_3_l_K_2.0.png	 K	 l	 l	 n.a.	 5.760042e-01
2	 2	 142	 flanked	 rf	 4	 0.500000	 2.000000	 flanked_rf_freq_4_amplitude_0.5_rep_8_t_D_2.0.png	 D	 t	 l	 n.a.	 4.163269e-01
2	 2	 143	 flanked	 rf	 4	 0.500000	 2.000000	 flanked_rf_freq_4_amplitude_0.5_rep_7_r_H_2.0.png	 H	 r	 r	 n.a.	 3.164250e-01
2	 2	 144	 flanked	 rf	 4	 0.200000	 2.000000	 flanked_rf_freq_4_amplitude_0.2_rep_7_b_N_2.0.png	 N	 b	 t	 n.a.	 5.388344e-01
2	 2	 145	 flanked	 rf	 4	 0.350000	 2.000000	 flanked_rf_freq_4_amplitude_0.35_rep_7_r_H_2.0.png	 H	 r	 b	 n.a.	 2.439086e-01
2	 2	 146	 flanked	 rf	 4	 0.500000	 2.000000	 flanked_rf_freq_4_amplitude_0.5_rep_6_t_N_2.0.png	 N	 t	 l	 n.a.	 3.877326e-01
2	 2	 147	 flanked	 rf	 4	 0.500000	 2.000000	 flanked_rf_freq_4_amplitude_0.5_rep_0_b_D_2.0.png	 D	 b	 t	 n.a.	 3.398575e-01
2	 2	 148	 flanked	 rf	 4	 0.425000	 2.000000	 flanked_rf_freq_4_amplitude_0.425_rep_6_l_N_2.0.png	 N	 l	 l	 n.a.	 4.150838e-01
2	 2	 149	 flanked	 rf	 4	 0.125000	 2.000000	 flanked_rf_freq_4_amplitude_0.125_rep_7_t_D_2.0.png	 D	 t	 b	 n.a.	 4.629472e-01
2	 2	 150	 flanked	 rf	 4	 0.500000	 2.000000	 flanked_rf_freq_4_amplitude_0.5_rep_9_b_N_2.0.png	 N	 b	 t	 n.a.	 8.542871e-01
2	 2	 151	 flanked	 rf	 4	 0.200000	 2.000000	 flanked_rf_freq_4_amplitude_0.2_rep_5_l_N_2.0.png	 N	 l	 l	 n.a.	 4.245024e-01
2	 2	 152	 flanked	 rf	 4	 0.200000	 2.000000	 flanked_rf_freq_4_amplitude_0.2_rep_7_b_N_2.0.png	 N	 b	 t	 n.a.	 4.602079e-01
2	 2	 153	 flanked	 rf	 4	 0.200000	 2.000000	 flanked_rf_freq_4_amplitude_0.2_rep_0_l_N_2.0.png	 N	 l	 l	 n.a.	 4.891121e-01
2	 2	 154	 flanked	 rf	 4	 0.125000	 2.000000	 flanked_rf_freq_4_amplitude_0.125_rep_7_t_D_2.0.png	 D	 t	 b	 n.a.	 3.477129e-01
2	 2	 155	 flanked	 rf	 4	 0.050000	 2.000000	 flanked_rf_freq_4_amplitude_0.05_rep_6_r_N_2.0.png	 N	 r	 t	 n.a.	 2.698121e-01
2	 2	 156	 flanked	 rf	 4	 0.125000	 2.000000	 flanked_rf_freq_4_amplitude_0.125_rep_5_l_K_2.0.png	 K	 l	 b	 n.a.	 6.428810e-01
2	 2	 157	 flanked	 rf	 4	 0.275000	 2.000000	 flanked_rf_freq_4_amplitude_0.275_rep_2_l_D_2.0.png	 D	 l	 l	 n.a.	 3.728555e-01
2	 2	 158	 flanked	 rf	 4	 0.200000	 2.000000	 flanked_rf_freq_4_amplitude_0.2_rep_3_r_D_2.0.png	 D	 r	 l	 n.a.	 5.007806e-01
2	 2	 159	 flanked	 rf	 4	 0.050000	 2.000000	 flanked_rf_freq_4_amplitude_0.05_rep_8_l_D_2.0.png	 D	 l	 l	 n.a.	 6.773772e-01
2	 2	 160	 flanked	 rf	 4	 0.425000	 2.000000	 flanked_rf_freq_4_amplitude_0.425_rep_9_l_K_2.0.png	 K	 l	 l	 n.a.	 5.712647e-01
2	 2	 161	 flanked	 rf	 4	 0.125000	 2.000000	 flanked_rf_freq_4_amplitude_0.125_rep_6_l_K_2.0.png	 K	 l	 t	 n.a.	 5.535375e-01
2	 2	 162	 flanked	 rf	 4	 0.425000	 2.000000	 flanked_rf_freq_4_amplitude_0.425_rep_5_b_K_2.0.png	 K	 b	 b	 n.a.	 2.593575e-01
2	 2	 163	 flanked	 rf	 4	 0.275000	 2.000000	 flanked_rf_freq_4_amplitude_0.275_rep_7_b_K_2.0.png	 K	 b	 b	 n.a.	 6.051753e-01
2	 2	 164	 flanked	 rf	 4	 0.200000	 2.000000	 flanked_rf_freq_4_amplitude_0.2_rep_4_l_H_2.0.png	 H	 l	 r	 n.a.	 4.784105e-01
2	 2	 165	 flanked	 rf	 4	 0.200000	 2.000000	 flanked_rf_freq_4_amplitude_0.2_rep_6_b_H_2.0.png	 H	 b	 l	 n.a.	 2.866474e-01
2	 2	 166	 flanked	 rf	 4	 0.425000	 2.000000	 flanked_rf_freq_4_amplitude_0.425_rep_3_b_K_2.0.png	 K	 b	 b	 n.a.	 2.939846e-01
2	 2	 167	 flanked	 rf	 4	 0.500000	 2.000000	 flanked_rf_freq_4_amplitude_0.5_rep_3_l_H_2.0.png	 H	 l	 l	 n.a.	 4.125968e-01
2	 2	 168	 flanked	 rf	 4	 0.500000	 2.000000	 flanked_rf_freq_4_amplitude_0.5_rep_8_t_D_2.0.png	 D	 t	 l	 n.a.	 5.500223e-01
2	 2	 169	 flanked	 rf	 4	 0.500000	 2.000000	 flanked_rf_freq_4_amplitude_0.5_rep_5_t_H_2.0.png	 H	 t	 t	 n.a.	 4.831036e-01
2	 2	 170	 flanked	 rf	 4	 0.500000	 2.000000	 flanked_rf_freq_4_amplitude_0.5_rep_6_t_N_2.0.png	 N	 t	 l	 n.a.	 7.088843e-01
2	 2	 171	 flanked	 rf	 4	 0.125000	 2.000000	 flanked_rf_freq_4_amplitude_0.125_rep_3_l_K_2.0.png	 K	 l	 b	 n.a.	 4.208201e-01
2	 2	 172	 flanked	 rf	 4	 0.125000	 2.000000	 flanked_rf_freq_4_amplitude_0.125_rep_8_r_H_2.0.png	 H	 r	 r	 n.a.	 5.232072e-01
2	 2	 173	 flanked	 rf	 4	 0.050000	 2.000000	 flanked_rf_freq_4_amplitude_0.05_rep_9_l_D_2.0.png	 D	 l	 t	 n.a.	 6.188351e-01
2	 2	 174	 flanked	 rf	 4	 0.200000	 2.000000	 flanked_rf_freq_4_amplitude_0.2_rep_0_l_N_2.0.png	 N	 l	 l	 n.a.	 3.656452e-01
2	 2	 175	 flanked	 rf	 4	 0.425000	 2.000000	 flanked_rf_freq_4_amplitude_0.425_rep_7_l_D_2.0.png	 D	 l	 b	 n.a.	 4.775159e-01
2	 2	 176	 flanked	 rf	 4	 0.425000	 2.000000	 flanked_rf_freq_4_amplitude_0.425_rep_0_l_H_2.0.png	 H	 l	 l	 n.a.	 3.572353e-01
2	 2	 177	 flanked	 rf	 4	 0.425000	 2.000000	 flanked_rf_freq_4_amplitude_0.425_rep_2_t_D_2.0.png	 D	 t	 t	 n.a.	 4.400310e-01
2	 2	 178	 flanked	 rf	 4	 0.350000	 2.000000	 flanked_rf_freq_4_amplitude_0.35_rep_2_t_D_2.0.png	 D	 t	 t	 n.a.	 3.957014e-01
2	 2	 179	 flanked	 rf	 4	 0.425000	 2.000000	 flanked_rf_freq_4_amplitude_0.425_rep_8_l_H_2.0.png	 H	 l	 l	 n.a.	 5.097317e-01
2	 2	 180	 flanked	 rf	 4	 0.125000	 2.000000	 flanked_rf_freq_4_amplitude_0.125_rep_8_r_H_2.0.png	 H	 r	 t	 n.a.	 5.827081e-01
2	 2	 181	 flanked	 rf	 4	 0.200000	 2.000000	 flanked_rf_freq_4_amplitude_0.2_rep_9_b_N_2.0.png	 N	 b	 b	 n.a.	 3.129794e-01
2	 2	 182	 flanked	 rf	 4	 0.500000	 2.000000	 flanked_rf_freq_4_amplitude_0.5_rep_0_b_D_2.0.png	 D	 b	 t	 n.a.	 3.590773e-01
2	 2	 183	 flanked	 rf	 4	 0.125000	 2.000000	 flanked_rf_freq_4_amplitude_0.125_rep_0_r_D_2.0.png	 D	 r	 b	 n.a.	 3.003477e-01
2	 2	 184	 flanked	 rf	 4	 0.275000	 2.000000	 flanked_rf_freq_4_amplitude_0.275_rep_2_l_D_2.0.png	 D	 l	 l	 n.a.	 3.389804e-01
2	 2	 185	 flanked	 rf	 4	 0.200000	 2.000000	 flanked_rf_freq_4_amplitude_0.2_rep_4_l_H_2.0.png	 H	 l	 l	 n.a.	 3.971921e-01
2	 2	 186	 flanked	 rf	 4	 0.050000	 2.000000	 flanked_rf_freq_4_amplitude_0.05_rep_1_l_H_2.0.png	 H	 l	 b	 n.a.	 6.545978e-01
2	 2	 187	 flanked	 rf	 4	 0.275000	 2.000000	 flanked_rf_freq_4_amplitude_0.275_rep_6_t_H_2.0.png	 H	 t	 t	 n.a.	 4.594790e-01
2	 2	 188	 flanked	 rf	 4	 0.200000	 2.000000	 flanked_rf_freq_4_amplitude_0.2_rep_3_r_D_2.0.png	 D	 r	 b	 n.a.	 3.526995e-01
2	 2	 189	 flanked	 rf	 4	 0.500000	 2.000000	 flanked_rf_freq_4_amplitude_0.5_rep_9_b_N_2.0.png	 N	 b	 t	 n.a.	 7.113921e-01
2	 2	 190	 flanked	 rf	 4	 0.275000	 2.000000	 flanked_rf_freq_4_amplitude_0.275_rep_4_l_K_2.0.png	 K	 l	 l	 n.a.	 4.035342e-01
2	 2	 191	 flanked	 rf	 4	 0.125000	 2.000000	 flanked_rf_freq_4_amplitude_0.125_rep_4_l_K_2.0.png	 K	 l	 b	 n.a.	 5.477948e-01
2	 2	 192	 flanked	 rf	 4	 0.050000	 2.000000	 flanked_rf_freq_4_amplitude_0.05_rep_3_t_K_2.0.png	 K	 t	 l	 n.a.	 4.177508e-01
2	 2	 193	 flanked	 rf	 4	 0.200000	 2.000000	 flanked_rf_freq_4_amplitude_0.2_rep_9_b_N_2.0.png	 N	 b	 b	 n.a.	 3.922484e-01
2	 2	 194	 flanked	 rf	 4	 0.200000	 2.000000	 flanked_rf_freq_4_amplitude_0.2_rep_8_l_K_2.0.png	 K	 l	 l	 n.a.	 4.292108e-01
2	 2	 195	 flanked	 rf	 4	 0.125000	 2.000000	 flanked_rf_freq_4_amplitude_0.125_rep_1_r_H_2.0.png	 H	 r	 b	 n.a.	 4.625376e-01
2	 2	 196	 flanked	 rf	 4	 0.275000	 2.000000	 flanked_rf_freq_4_amplitude_0.275_rep_8_t_N_2.0.png	 N	 t	 t	 n.a.	 2.956006e-01
2	 2	 197	 flanked	 rf	 4	 0.425000	 2.000000	 flanked_rf_freq_4_amplitude_0.425_rep_1_t_D_2.0.png	 D	 t	 t	 n.a.	 3.619388e-01
2	 2	 198	 flanked	 rf	 4	 0.200000	 2.000000	 flanked_rf_freq_4_amplitude_0.2_rep_3_r_D_2.0.png	 D	 r	 b	 n.a.	 4.133805e-01
2	 2	 199	 flanked	 rf	 4	 0.050000	 2.000000	 flanked_rf_freq_4_amplitude_0.05_rep_0_t_D_2.0.png	 D	 t	 b	 n.a.	 4.468737e-01
2	 2	 200	 flanked	 rf	 4	 0.200000	 2.000000	 flanked_rf_freq_4_amplitude_0.2_rep_6_b_H_2.0.png	 H	 b	 b	 n.a.	 4.384413e-01
2	 2	 201	 flanked	 rf	 4	 0.125000	 2.000000	 flanked_rf_freq_4_amplitude_0.125_rep_3_l_K_2.0.png	 K	 l	 l	 n.a.	 4.088343e-01
2	 2	 202	 flanked	 rf	 4	 0.125000	 2.000000	 flanked_rf_freq_4_amplitude_0.125_rep_0_r_D_2.0.png	 D	 r	 b	 n.a.	 4.496218e-01
2	 2	 203	 flanked	 rf	 4	 0.425000	 2.000000	 flanked_rf_freq_4_amplitude_0.425_rep_0_l_H_2.0.png	 H	 l	 l	 n.a.	 5.941450e-01
2	 2	 204	 flanked	 rf	 4	 0.500000	 2.000000	 flanked_rf_freq_4_amplitude_0.5_rep_5_t_H_2.0.png	 H	 t	 t	 n.a.	 3.285090e-01
2	 2	 205	 flanked	 rf	 4	 0.125000	 2.000000	 flanked_rf_freq_4_amplitude_0.125_rep_2_r_H_2.0.png	 H	 r	 b	 n.a.	 4.319969e-01
2	 2	 206	 flanked	 rf	 4	 0.275000	 2.000000	 flanked_rf_freq_4_amplitude_0.275_rep_4_l_K_2.0.png	 K	 l	 l	 n.a.	 3.320216e-01
2	 2	 207	 flanked	 rf	 4	 0.425000	 2.000000	 flanked_rf_freq_4_amplitude_0.425_rep_9_l_K_2.0.png	 K	 l	 l	 n.a.	 3.984355e-01
2	 2	 208	 flanked	 rf	 4	 0.125000	 2.000000	 flanked_rf_freq_4_amplitude_0.125_rep_9_l_D_2.0.png	 D	 l	 t	 n.a.	 4.988913e-01
2	 2	 209	 flanked	 rf	 4	 0.275000	 2.000000	 flanked_rf_freq_4_amplitude_0.275_rep_1_r_H_2.0.png	 H	 r	 b	 n.a.	 3.850455e-01
2	 2	 210	 flanked	 rf	 4	 0.125000	 2.000000	 flanked_rf_freq_4_amplitude_0.125_rep_2_r_H_2.0.png	 H	 r	 b	 n.a.	 5.232723e-01
