subject	 session	 trial	 flanked	 distortion	 freq	 amplitude	 spacing	 im_name	 targ_letter	 targ_pos	 response	 eyemovement	 RT
7	 1	 1	 flanked	 rf	 4	 0.350000	 2.000000	 flanked_rf_freq_4_amplitude_0.35_rep_3_b_H_2.0.png	 H	 b	 l	 n.a.	 5.048588e-01
7	 1	 2	 flanked	 rf	 4	 0.500000	 2.000000	 flanked_rf_freq_4_amplitude_0.5_rep_5_t_H_2.0.png	 H	 t	 r	 n.a.	 4.663274e-01
7	 1	 3	 flanked	 rf	 4	 0.425000	 2.000000	 flanked_rf_freq_4_amplitude_0.425_rep_3_b_K_2.0.png	 K	 b	 l	 n.a.	 3.548007e-01
7	 1	 4	 flanked	 rf	 4	 0.500000	 2.000000	 flanked_rf_freq_4_amplitude_0.5_rep_4_l_H_2.0.png	 H	 l	 l	 n.a.	 3.675054e-01
7	 1	 5	 flanked	 rf	 4	 0.200000	 2.000000	 flanked_rf_freq_4_amplitude_0.2_rep_6_b_H_2.0.png	 H	 b	 t	 n.a.	 4.102121e-01
7	 1	 6	 flanked	 rf	 4	 0.425000	 2.000000	 flanked_rf_freq_4_amplitude_0.425_rep_3_b_K_2.0.png	 K	 b	 l	 n.a.	 4.889394e-01
7	 1	 7	 flanked	 rf	 4	 0.425000	 2.000000	 flanked_rf_freq_4_amplitude_0.425_rep_7_l_D_2.0.png	 D	 l	 l	 n.a.	 3.141516e-01
7	 1	 8	 flanked	 rf	 4	 0.200000	 2.000000	 flanked_rf_freq_4_amplitude_0.2_rep_7_b_N_2.0.png	 N	 b	 r	 n.a.	 3.199612e-01
7	 1	 9	 flanked	 rf	 4	 0.125000	 2.000000	 flanked_rf_freq_4_amplitude_0.125_rep_5_l_K_2.0.png	 K	 l	 b	 n.a.	 4.335617e-01
7	 1	 10	 flanked	 rf	 4	 0.350000	 2.000000	 flanked_rf_freq_4_amplitude_0.35_rep_7_r_H_2.0.png	 H	 r	 r	 n.a.	 3.185041e-01
7	 1	 11	 flanked	 rf	 4	 0.275000	 2.000000	 flanked_rf_freq_4_amplitude_0.275_rep_1_r_H_2.0.png	 H	 r	 b	 n.a.	 4.532727e-01
7	 1	 12	 flanked	 rf	 4	 0.200000	 2.000000	 flanked_rf_freq_4_amplitude_0.2_rep_9_b_N_2.0.png	 N	 b	 r	 n.a.	 3.977440e-01
7	 1	 13	 flanked	 rf	 4	 0.125000	 2.000000	 flanked_rf_freq_4_amplitude_0.125_rep_9_l_D_2.0.png	 D	 l	 t	 n.a.	 3.968198e-01
7	 1	 14	 flanked	 rf	 4	 0.350000	 2.000000	 flanked_rf_freq_4_amplitude_0.35_rep_9_r_H_2.0.png	 H	 r	 r	 n.a.	 3.473162e-01
7	 1	 15	 flanked	 rf	 4	 0.125000	 2.000000	 flanked_rf_freq_4_amplitude_0.125_rep_7_t_D_2.0.png	 D	 t	 b	 n.a.	 3.935008e-01
7	 1	 16	 flanked	 rf	 4	 0.425000	 2.000000	 flanked_rf_freq_4_amplitude_0.425_rep_7_l_D_2.0.png	 D	 l	 l	 n.a.	 2.966239e-01
7	 1	 17	 flanked	 rf	 4	 0.200000	 2.000000	 flanked_rf_freq_4_amplitude_0.2_rep_8_l_K_2.0.png	 K	 l	 l	 n.a.	 3.656580e-01
7	 1	 18	 flanked	 rf	 4	 0.350000	 2.000000	 flanked_rf_freq_4_amplitude_0.35_rep_4_l_K_2.0.png	 K	 l	 l	 n.a.	 3.421395e-01
7	 1	 19	 flanked	 rf	 4	 0.275000	 2.000000	 flanked_rf_freq_4_amplitude_0.275_rep_8_t_N_2.0.png	 N	 t	 t	 n.a.	 4.786454e-01
7	 1	 20	 flanked	 rf	 4	 0.425000	 2.000000	 flanked_rf_freq_4_amplitude_0.425_rep_4_l_D_2.0.png	 D	 l	 r	 n.a.	 4.428159e-01
7	 1	 21	 flanked	 rf	 4	 0.125000	 2.000000	 flanked_rf_freq_4_amplitude_0.125_rep_0_r_D_2.0.png	 D	 r	 r	 n.a.	 4.255612e-01
7	 1	 22	 flanked	 rf	 4	 0.125000	 2.000000	 flanked_rf_freq_4_amplitude_0.125_rep_4_l_K_2.0.png	 K	 l	 l	 n.a.	 3.698531e-01
7	 1	 23	 flanked	 rf	 4	 0.200000	 2.000000	 flanked_rf_freq_4_amplitude_0.2_rep_6_b_H_2.0.png	 H	 b	 b	 n.a.	 5.027935e-01
7	 1	 24	 flanked	 rf	 4	 0.425000	 2.000000	 flanked_rf_freq_4_amplitude_0.425_rep_0_l_H_2.0.png	 H	 l	 t	 n.a.	 7.150028e-01
7	 1	 25	 flanked	 rf	 4	 0.125000	 2.000000	 flanked_rf_freq_4_amplitude_0.125_rep_9_l_D_2.0.png	 D	 l	 r	 n.a.	 5.320043e-01
7	 1	 26	 flanked	 rf	 4	 0.425000	 2.000000	 flanked_rf_freq_4_amplitude_0.425_rep_5_b_K_2.0.png	 K	 b	 b	 n.a.	 9.088652e-01
7	 1	 27	 flanked	 rf	 4	 0.200000	 2.000000	 flanked_rf_freq_4_amplitude_0.2_rep_1_r_K_2.0.png	 K	 r	 r	 n.a.	 3.426435e-01
7	 1	 28	 flanked	 rf	 4	 0.275000	 2.000000	 flanked_rf_freq_4_amplitude_0.275_rep_3_l_K_2.0.png	 K	 l	 l	 n.a.	 4.344323e-01
7	 1	 29	 flanked	 rf	 4	 0.275000	 2.000000	 flanked_rf_freq_4_amplitude_0.275_rep_2_l_D_2.0.png	 D	 l	 l	 n.a.	 3.900984e-01
7	 1	 30	 flanked	 rf	 4	 0.425000	 2.000000	 flanked_rf_freq_4_amplitude_0.425_rep_6_l_N_2.0.png	 N	 l	 r	 n.a.	 3.720035e-01
7	 1	 31	 flanked	 rf	 4	 0.275000	 2.000000	 flanked_rf_freq_4_amplitude_0.275_rep_0_r_N_2.0.png	 N	 r	 r	 n.a.	 4.940554e-01
7	 1	 32	 flanked	 rf	 4	 0.350000	 2.000000	 flanked_rf_freq_4_amplitude_0.35_rep_5_b_N_2.0.png	 N	 b	 t	 n.a.	 3.750592e-01
7	 1	 33	 flanked	 rf	 4	 0.050000	 2.000000	 flanked_rf_freq_4_amplitude_0.05_rep_4_b_K_2.0.png	 K	 b	 b	 n.a.	 4.859024e-01
7	 1	 34	 flanked	 rf	 4	 0.125000	 2.000000	 flanked_rf_freq_4_amplitude_0.125_rep_8_r_H_2.0.png	 H	 r	 r	 n.a.	 4.489495e-01
7	 1	 35	 flanked	 rf	 4	 0.500000	 2.000000	 flanked_rf_freq_4_amplitude_0.5_rep_9_b_N_2.0.png	 N	 b	 r	 n.a.	 5.539385e-01
7	 1	 36	 flanked	 rf	 4	 0.350000	 2.000000	 flanked_rf_freq_4_amplitude_0.35_rep_9_r_H_2.0.png	 H	 r	 r	 n.a.	 4.652767e-01
7	 1	 37	 flanked	 rf	 4	 0.425000	 2.000000	 flanked_rf_freq_4_amplitude_0.425_rep_8_l_H_2.0.png	 H	 l	 b	 n.a.	 4.711394e-01
7	 1	 38	 flanked	 rf	 4	 0.200000	 2.000000	 flanked_rf_freq_4_amplitude_0.2_rep_8_l_K_2.0.png	 K	 l	 l	 n.a.	 4.500271e-01
7	 1	 39	 flanked	 rf	 4	 0.500000	 2.000000	 flanked_rf_freq_4_amplitude_0.5_rep_6_t_N_2.0.png	 N	 t	 r	 n.a.	 4.329229e-01
7	 1	 40	 flanked	 rf	 4	 0.425000	 2.000000	 flanked_rf_freq_4_amplitude_0.425_rep_0_l_H_2.0.png	 H	 l	 l	 n.a.	 3.694714e-01
7	 1	 41	 flanked	 rf	 4	 0.125000	 2.000000	 flanked_rf_freq_4_amplitude_0.125_rep_5_l_K_2.0.png	 K	 l	 l	 n.a.	 7.702881e-01
7	 1	 42	 flanked	 rf	 4	 0.275000	 2.000000	 flanked_rf_freq_4_amplitude_0.275_rep_5_t_H_2.0.png	 H	 t	 r	 n.a.	 5.618126e-01
7	 1	 43	 flanked	 rf	 4	 0.425000	 2.000000	 flanked_rf_freq_4_amplitude_0.425_rep_3_b_K_2.0.png	 K	 b	 b	 n.a.	 4.486126e-01
7	 1	 44	 flanked	 rf	 4	 0.050000	 2.000000	 flanked_rf_freq_4_amplitude_0.05_rep_9_l_D_2.0.png	 D	 l	 b	 n.a.	 7.222834e-01
7	 1	 45	 flanked	 rf	 4	 0.200000	 2.000000	 flanked_rf_freq_4_amplitude_0.2_rep_7_b_N_2.0.png	 N	 b	 b	 n.a.	 5.265657e-01
7	 1	 46	 flanked	 rf	 4	 0.125000	 2.000000	 flanked_rf_freq_4_amplitude_0.125_rep_3_l_K_2.0.png	 K	 l	 r	 n.a.	 5.404725e-01
7	 1	 47	 flanked	 rf	 4	 0.275000	 2.000000	 flanked_rf_freq_4_amplitude_0.275_rep_9_l_D_2.0.png	 D	 l	 l	 n.a.	 3.639903e-01
7	 1	 48	 flanked	 rf	 4	 0.275000	 2.000000	 flanked_rf_freq_4_amplitude_0.275_rep_1_r_H_2.0.png	 H	 r	 b	 n.a.	 5.002703e-01
7	 1	 49	 flanked	 rf	 4	 0.275000	 2.000000	 flanked_rf_freq_4_amplitude_0.275_rep_7_b_K_2.0.png	 K	 b	 t	 n.a.	 4.481779e-01
7	 1	 50	 flanked	 rf	 4	 0.125000	 2.000000	 flanked_rf_freq_4_amplitude_0.125_rep_0_r_D_2.0.png	 D	 r	 r	 n.a.	 3.720959e-01
7	 1	 51	 flanked	 rf	 4	 0.050000	 2.000000	 flanked_rf_freq_4_amplitude_0.05_rep_5_l_K_2.0.png	 K	 l	 l	 n.a.	 7.610898e-01
7	 1	 52	 flanked	 rf	 4	 0.200000	 2.000000	 flanked_rf_freq_4_amplitude_0.2_rep_3_r_D_2.0.png	 D	 r	 r	 n.a.	 5.866094e-01
7	 1	 53	 flanked	 rf	 4	 0.350000	 2.000000	 flanked_rf_freq_4_amplitude_0.35_rep_2_t_D_2.0.png	 D	 t	 t	 n.a.	 5.250132e-01
7	 1	 54	 flanked	 rf	 4	 0.275000	 2.000000	 flanked_rf_freq_4_amplitude_0.275_rep_0_r_N_2.0.png	 N	 r	 r	 n.a.	 5.313991e-01
7	 1	 55	 flanked	 rf	 4	 0.125000	 2.000000	 flanked_rf_freq_4_amplitude_0.125_rep_6_l_K_2.0.png	 K	 l	 l	 n.a.	 6.039681e-01
7	 1	 56	 flanked	 rf	 4	 0.050000	 2.000000	 flanked_rf_freq_4_amplitude_0.05_rep_0_t_D_2.0.png	 D	 t	 t	 n.a.	 5.742643e-01
7	 1	 57	 flanked	 rf	 4	 0.050000	 2.000000	 flanked_rf_freq_4_amplitude_0.05_rep_3_t_K_2.0.png	 K	 t	 t	 n.a.	 6.049937e-01
7	 1	 58	 flanked	 rf	 4	 0.425000	 2.000000	 flanked_rf_freq_4_amplitude_0.425_rep_2_t_D_2.0.png	 D	 t	 t	 n.a.	 5.927108e-01
7	 1	 59	 flanked	 rf	 4	 0.125000	 2.000000	 flanked_rf_freq_4_amplitude_0.125_rep_8_r_H_2.0.png	 H	 r	 r	 n.a.	 4.549140e-01
7	 1	 60	 flanked	 rf	 4	 0.125000	 2.000000	 flanked_rf_freq_4_amplitude_0.125_rep_1_r_H_2.0.png	 H	 r	 t	 n.a.	 5.548270e-01
7	 1	 61	 flanked	 rf	 4	 0.050000	 2.000000	 flanked_rf_freq_4_amplitude_0.05_rep_2_b_N_2.0.png	 N	 b	 l	 n.a.	 3.687873e-01
7	 1	 62	 flanked	 rf	 4	 0.425000	 2.000000	 flanked_rf_freq_4_amplitude_0.425_rep_4_l_D_2.0.png	 D	 l	 r	 n.a.	 3.333059e-01
7	 1	 63	 flanked	 rf	 4	 0.275000	 2.000000	 flanked_rf_freq_4_amplitude_0.275_rep_7_b_K_2.0.png	 K	 b	 t	 n.a.	 5.957067e-01
7	 1	 64	 flanked	 rf	 4	 0.425000	 2.000000	 flanked_rf_freq_4_amplitude_0.425_rep_6_l_N_2.0.png	 N	 l	 l	 n.a.	 4.067238e-01
7	 1	 65	 flanked	 rf	 4	 0.050000	 2.000000	 flanked_rf_freq_4_amplitude_0.05_rep_7_b_K_2.0.png	 K	 b	 b	 n.a.	 5.992444e-01
7	 1	 66	 flanked	 rf	 4	 0.425000	 2.000000	 flanked_rf_freq_4_amplitude_0.425_rep_0_l_H_2.0.png	 H	 l	 l	 n.a.	 5.725278e-01
7	 1	 67	 flanked	 rf	 4	 0.125000	 2.000000	 flanked_rf_freq_4_amplitude_0.125_rep_0_r_D_2.0.png	 D	 r	 t	 n.a.	 5.380260e-01
7	 1	 68	 flanked	 rf	 4	 0.050000	 2.000000	 flanked_rf_freq_4_amplitude_0.05_rep_3_t_K_2.0.png	 K	 t	 t	 n.a.	 6.245507e-01
7	 1	 69	 flanked	 rf	 4	 0.275000	 2.000000	 flanked_rf_freq_4_amplitude_0.275_rep_3_l_K_2.0.png	 K	 l	 r	 n.a.	 6.698694e-01
7	 1	 70	 flanked	 rf	 4	 0.425000	 2.000000	 flanked_rf_freq_4_amplitude_0.425_rep_5_b_K_2.0.png	 K	 b	 l	 n.a.	 7.136241e-01
7	 1	 71	 flanked	 rf	 4	 0.050000	 2.000000	 flanked_rf_freq_4_amplitude_0.05_rep_8_l_D_2.0.png	 D	 l	 r	 n.a.	 3.904918e-01
7	 1	 72	 flanked	 rf	 4	 0.350000	 2.000000	 flanked_rf_freq_4_amplitude_0.35_rep_3_b_H_2.0.png	 H	 b	 l	 n.a.	 4.003082e-01
7	 1	 73	 flanked	 rf	 4	 0.350000	 2.000000	 flanked_rf_freq_4_amplitude_0.35_rep_6_r_N_2.0.png	 N	 r	 r	 n.a.	 2.814274e-01
7	 1	 74	 flanked	 rf	 4	 0.350000	 2.000000	 flanked_rf_freq_4_amplitude_0.35_rep_3_b_H_2.0.png	 H	 b	 t	 n.a.	 3.993646e-01
7	 1	 75	 flanked	 rf	 4	 0.275000	 2.000000	 flanked_rf_freq_4_amplitude_0.275_rep_5_t_H_2.0.png	 H	 t	 r	 n.a.	 2.697202e-01
7	 1	 76	 flanked	 rf	 4	 0.200000	 2.000000	 flanked_rf_freq_4_amplitude_0.2_rep_7_b_N_2.0.png	 N	 b	 b	 n.a.	 3.317199e-01
7	 1	 77	 flanked	 rf	 4	 0.125000	 2.000000	 flanked_rf_freq_4_amplitude_0.125_rep_2_r_H_2.0.png	 H	 r	 t	 n.a.	 3.572928e-01
7	 1	 78	 flanked	 rf	 4	 0.200000	 2.000000	 flanked_rf_freq_4_amplitude_0.2_rep_4_l_H_2.0.png	 H	 l	 r	 n.a.	 2.299859e-01
7	 1	 79	 flanked	 rf	 4	 0.275000	 2.000000	 flanked_rf_freq_4_amplitude_0.275_rep_2_l_D_2.0.png	 D	 l	 l	 n.a.	 3.313530e-01
7	 1	 80	 flanked	 rf	 4	 0.350000	 2.000000	 flanked_rf_freq_4_amplitude_0.35_rep_0_t_D_2.0.png	 D	 t	 t	 n.a.	 3.496216e-01
7	 1	 81	 flanked	 rf	 4	 0.350000	 2.000000	 flanked_rf_freq_4_amplitude_0.35_rep_1_t_K_2.0.png	 K	 t	 r	 n.a.	 3.530630e-01
7	 1	 82	 flanked	 rf	 4	 0.275000	 2.000000	 flanked_rf_freq_4_amplitude_0.275_rep_8_t_N_2.0.png	 N	 t	 t	 n.a.	 4.221610e-01
7	 1	 83	 flanked	 rf	 4	 0.500000	 2.000000	 flanked_rf_freq_4_amplitude_0.5_rep_7_r_H_2.0.png	 H	 r	 r	 n.a.	 4.111539e-01
7	 1	 84	 flanked	 rf	 4	 0.425000	 2.000000	 flanked_rf_freq_4_amplitude_0.425_rep_9_l_K_2.0.png	 K	 l	 b	 n.a.	 6.947970e-01
7	 1	 85	 flanked	 rf	 4	 0.425000	 2.000000	 flanked_rf_freq_4_amplitude_0.425_rep_5_b_K_2.0.png	 K	 b	 l	 n.a.	 5.809190e-01
7	 1	 86	 flanked	 rf	 4	 0.200000	 2.000000	 flanked_rf_freq_4_amplitude_0.2_rep_9_b_N_2.0.png	 N	 b	 b	 n.a.	 4.939704e-01
7	 1	 87	 flanked	 rf	 4	 0.500000	 2.000000	 flanked_rf_freq_4_amplitude_0.5_rep_9_b_N_2.0.png	 N	 b	 t	 n.a.	 6.148592e-01
7	 1	 88	 flanked	 rf	 4	 0.050000	 2.000000	 flanked_rf_freq_4_amplitude_0.05_rep_5_l_K_2.0.png	 K	 l	 r	 n.a.	 7.253818e-01
7	 1	 89	 flanked	 rf	 4	 0.275000	 2.000000	 flanked_rf_freq_4_amplitude_0.275_rep_6_t_H_2.0.png	 H	 t	 r	 n.a.	 4.210563e-01
7	 1	 90	 flanked	 rf	 4	 0.425000	 2.000000	 flanked_rf_freq_4_amplitude_0.425_rep_9_l_K_2.0.png	 K	 l	 l	 n.a.	 4.140582e-01
7	 1	 91	 flanked	 rf	 4	 0.350000	 2.000000	 flanked_rf_freq_4_amplitude_0.35_rep_4_l_K_2.0.png	 K	 l	 l	 n.a.	 5.167482e-01
7	 1	 92	 flanked	 rf	 4	 0.050000	 2.000000	 flanked_rf_freq_4_amplitude_0.05_rep_8_l_D_2.0.png	 D	 l	 t	 n.a.	 4.888295e-01
7	 1	 93	 flanked	 rf	 4	 0.425000	 2.000000	 flanked_rf_freq_4_amplitude_0.425_rep_1_t_D_2.0.png	 D	 t	 l	 n.a.	 5.776919e-01
7	 1	 94	 flanked	 rf	 4	 0.275000	 2.000000	 flanked_rf_freq_4_amplitude_0.275_rep_9_l_D_2.0.png	 D	 l	 l	 n.a.	 5.033814e-01
7	 1	 95	 flanked	 rf	 4	 0.200000	 2.000000	 flanked_rf_freq_4_amplitude_0.2_rep_1_r_K_2.0.png	 K	 r	 r	 n.a.	 4.966716e-01
7	 1	 96	 flanked	 rf	 4	 0.200000	 2.000000	 flanked_rf_freq_4_amplitude_0.2_rep_4_l_H_2.0.png	 H	 l	 t	 n.a.	 3.984340e-01
7	 1	 97	 flanked	 rf	 4	 0.425000	 2.000000	 flanked_rf_freq_4_amplitude_0.425_rep_9_l_K_2.0.png	 K	 l	 l	 n.a.	 3.979808e-01
7	 1	 98	 flanked	 rf	 4	 0.275000	 2.000000	 flanked_rf_freq_4_amplitude_0.275_rep_0_r_N_2.0.png	 N	 r	 r	 n.a.	 5.376102e-01
7	 1	 99	 flanked	 rf	 4	 0.350000	 2.000000	 flanked_rf_freq_4_amplitude_0.35_rep_5_b_N_2.0.png	 N	 b	 b	 n.a.	 4.617790e-01
7	 1	 100	 flanked	 rf	 4	 0.350000	 2.000000	 flanked_rf_freq_4_amplitude_0.35_rep_6_r_N_2.0.png	 N	 r	 r	 n.a.	 4.988998e-01
7	 1	 101	 flanked	 rf	 4	 0.500000	 2.000000	 flanked_rf_freq_4_amplitude_0.5_rep_3_l_H_2.0.png	 H	 l	 b	 n.a.	 4.209823e-01
7	 1	 102	 flanked	 rf	 4	 0.500000	 2.000000	 flanked_rf_freq_4_amplitude_0.5_rep_3_l_H_2.0.png	 H	 l	 t	 n.a.	 8.004050e-01
7	 1	 103	 flanked	 rf	 4	 0.425000	 2.000000	 flanked_rf_freq_4_amplitude_0.425_rep_8_l_H_2.0.png	 H	 l	 l	 n.a.	 5.182223e-01
7	 1	 104	 flanked	 rf	 4	 0.500000	 2.000000	 flanked_rf_freq_4_amplitude_0.5_rep_7_r_H_2.0.png	 H	 r	 r	 n.a.	 4.574734e-01
7	 1	 105	 flanked	 rf	 4	 0.200000	 2.000000	 flanked_rf_freq_4_amplitude_0.2_rep_0_l_N_2.0.png	 N	 l	 b	 n.a.	 4.481562e-01
7	 1	 106	 flanked	 rf	 4	 0.500000	 2.000000	 flanked_rf_freq_4_amplitude_0.5_rep_9_b_N_2.0.png	 N	 b	 t	 n.a.	 4.051672e-01
7	 1	 107	 flanked	 rf	 4	 0.500000	 2.000000	 flanked_rf_freq_4_amplitude_0.5_rep_0_b_D_2.0.png	 D	 b	 b	 n.a.	 5.467445e-01
7	 1	 108	 flanked	 rf	 4	 0.350000	 2.000000	 flanked_rf_freq_4_amplitude_0.35_rep_1_t_K_2.0.png	 K	 t	 r	 n.a.	 4.917321e-01
7	 1	 109	 flanked	 rf	 4	 0.500000	 2.000000	 flanked_rf_freq_4_amplitude_0.5_rep_3_l_H_2.0.png	 H	 l	 l	 n.a.	 3.519343e-01
7	 1	 110	 flanked	 rf	 4	 0.425000	 2.000000	 flanked_rf_freq_4_amplitude_0.425_rep_4_l_D_2.0.png	 D	 l	 l	 n.a.	 5.771421e-01
7	 1	 111	 flanked	 rf	 4	 0.125000	 2.000000	 flanked_rf_freq_4_amplitude_0.125_rep_1_r_H_2.0.png	 H	 r	 b	 n.a.	 5.579535e-01
7	 1	 112	 flanked	 rf	 4	 0.275000	 2.000000	 flanked_rf_freq_4_amplitude_0.275_rep_5_t_H_2.0.png	 H	 t	 t	 n.a.	 4.680199e-01
7	 1	 113	 flanked	 rf	 4	 0.275000	 2.000000	 flanked_rf_freq_4_amplitude_0.275_rep_9_l_D_2.0.png	 D	 l	 l	 n.a.	 4.167164e-01
7	 1	 114	 flanked	 rf	 4	 0.350000	 2.000000	 flanked_rf_freq_4_amplitude_0.35_rep_7_r_H_2.0.png	 H	 r	 r	 n.a.	 4.126875e-01
7	 1	 115	 flanked	 rf	 4	 0.500000	 2.000000	 flanked_rf_freq_4_amplitude_0.5_rep_4_l_H_2.0.png	 H	 l	 b	 n.a.	 6.214191e-01
7	 1	 116	 flanked	 rf	 4	 0.200000	 2.000000	 flanked_rf_freq_4_amplitude_0.2_rep_8_l_K_2.0.png	 K	 l	 l	 n.a.	 3.881107e-01
7	 1	 117	 flanked	 rf	 4	 0.125000	 2.000000	 flanked_rf_freq_4_amplitude_0.125_rep_3_l_K_2.0.png	 K	 l	 t	 n.a.	 5.241878e-01
7	 1	 118	 flanked	 rf	 4	 0.500000	 2.000000	 flanked_rf_freq_4_amplitude_0.5_rep_1_l_N_2.0.png	 N	 l	 l	 n.a.	 3.328396e-01
7	 1	 119	 flanked	 rf	 4	 0.200000	 2.000000	 flanked_rf_freq_4_amplitude_0.2_rep_2_t_H_2.0.png	 H	 t	 t	 n.a.	 4.661077e-01
7	 1	 120	 flanked	 rf	 4	 0.350000	 2.000000	 flanked_rf_freq_4_amplitude_0.35_rep_8_b_N_2.0.png	 N	 b	 r	 n.a.	 4.019045e-01
7	 1	 121	 flanked	 rf	 4	 0.350000	 2.000000	 flanked_rf_freq_4_amplitude_0.35_rep_7_r_H_2.0.png	 H	 r	 b	 n.a.	 4.255310e-01
7	 1	 122	 flanked	 rf	 4	 0.425000	 2.000000	 flanked_rf_freq_4_amplitude_0.425_rep_2_t_D_2.0.png	 D	 t	 t	 n.a.	 4.447119e-01
7	 1	 123	 flanked	 rf	 4	 0.050000	 2.000000	 flanked_rf_freq_4_amplitude_0.05_rep_1_l_H_2.0.png	 H	 l	 b	 n.a.	 4.871169e-01
7	 1	 124	 flanked	 rf	 4	 0.425000	 2.000000	 flanked_rf_freq_4_amplitude_0.425_rep_8_l_H_2.0.png	 H	 l	 l	 n.a.	 3.469605e-01
7	 1	 125	 flanked	 rf	 4	 0.125000	 2.000000	 flanked_rf_freq_4_amplitude_0.125_rep_5_l_K_2.0.png	 K	 l	 l	 n.a.	 4.946401e-01
7	 1	 126	 flanked	 rf	 4	 0.125000	 2.000000	 flanked_rf_freq_4_amplitude_0.125_rep_3_l_K_2.0.png	 K	 l	 r	 n.a.	 4.530323e-01
7	 1	 127	 flanked	 rf	 4	 0.500000	 2.000000	 flanked_rf_freq_4_amplitude_0.5_rep_6_t_N_2.0.png	 N	 t	 t	 n.a.	 5.866635e-01
7	 1	 128	 flanked	 rf	 4	 0.350000	 2.000000	 flanked_rf_freq_4_amplitude_0.35_rep_4_l_K_2.0.png	 K	 l	 l	 n.a.	 4.357994e-01
7	 1	 129	 flanked	 rf	 4	 0.200000	 2.000000	 flanked_rf_freq_4_amplitude_0.2_rep_5_l_N_2.0.png	 N	 l	 l	 n.a.	 4.369053e-01
7	 1	 130	 flanked	 rf	 4	 0.050000	 2.000000	 flanked_rf_freq_4_amplitude_0.05_rep_5_l_K_2.0.png	 K	 l	 b	 n.a.	 3.788071e-01
7	 1	 131	 flanked	 rf	 4	 0.050000	 2.000000	 flanked_rf_freq_4_amplitude_0.05_rep_0_t_D_2.0.png	 D	 t	 r	 n.a.	 4.397735e-01
7	 1	 132	 flanked	 rf	 4	 0.200000	 2.000000	 flanked_rf_freq_4_amplitude_0.2_rep_5_l_N_2.0.png	 N	 l	 b	 n.a.	 5.566306e-01
7	 1	 133	 flanked	 rf	 4	 0.350000	 2.000000	 flanked_rf_freq_4_amplitude_0.35_rep_2_t_D_2.0.png	 D	 t	 t	 n.a.	 3.972379e-01
7	 1	 134	 flanked	 rf	 4	 0.275000	 2.000000	 flanked_rf_freq_4_amplitude_0.275_rep_6_t_H_2.0.png	 H	 t	 l	 n.a.	 6.489455e-01
7	 1	 135	 flanked	 rf	 4	 0.125000	 2.000000	 flanked_rf_freq_4_amplitude_0.125_rep_2_r_H_2.0.png	 H	 r	 r	 n.a.	 7.050106e-01
7	 1	 136	 flanked	 rf	 4	 0.125000	 2.000000	 flanked_rf_freq_4_amplitude_0.125_rep_9_l_D_2.0.png	 D	 l	 r	 n.a.	 5.406227e-01
7	 1	 137	 flanked	 rf	 4	 0.200000	 2.000000	 flanked_rf_freq_4_amplitude_0.2_rep_9_b_N_2.0.png	 N	 b	 b	 n.a.	 8.069360e-01
7	 1	 138	 flanked	 rf	 4	 0.200000	 2.000000	 flanked_rf_freq_4_amplitude_0.2_rep_5_l_N_2.0.png	 N	 l	 l	 n.a.	 5.473248e-01
7	 1	 139	 flanked	 rf	 4	 0.350000	 2.000000	 flanked_rf_freq_4_amplitude_0.35_rep_8_b_N_2.0.png	 N	 b	 r	 n.a.	 6.441236e-01
7	 1	 140	 flanked	 rf	 4	 0.050000	 2.000000	 flanked_rf_freq_4_amplitude_0.05_rep_1_l_H_2.0.png	 H	 l	 t	 n.a.	 6.416717e-01
7	 1	 141	 flanked	 rf	 4	 0.050000	 2.000000	 flanked_rf_freq_4_amplitude_0.05_rep_6_r_N_2.0.png	 N	 r	 r	 n.a.	 3.382633e-01
7	 1	 142	 flanked	 rf	 4	 0.350000	 2.000000	 flanked_rf_freq_4_amplitude_0.35_rep_6_r_N_2.0.png	 N	 r	 r	 n.a.	 2.989762e-01
7	 1	 143	 flanked	 rf	 4	 0.500000	 2.000000	 flanked_rf_freq_4_amplitude_0.5_rep_8_t_D_2.0.png	 D	 t	 b	 n.a.	 7.250198e-01
7	 1	 144	 flanked	 rf	 4	 0.050000	 2.000000	 flanked_rf_freq_4_amplitude_0.05_rep_4_b_K_2.0.png	 K	 b	 t	 n.a.	 5.378609e-01
7	 1	 145	 flanked	 rf	 4	 0.050000	 2.000000	 flanked_rf_freq_4_amplitude_0.05_rep_9_l_D_2.0.png	 D	 l	 r	 n.a.	 3.486749e-01
7	 1	 146	 flanked	 rf	 4	 0.275000	 2.000000	 flanked_rf_freq_4_amplitude_0.275_rep_6_t_H_2.0.png	 H	 t	 b	 n.a.	 4.822098e-01
7	 1	 147	 flanked	 rf	 4	 0.200000	 2.000000	 flanked_rf_freq_4_amplitude_0.2_rep_0_l_N_2.0.png	 N	 l	 r	 n.a.	 4.095184e-01
7	 1	 148	 flanked	 rf	 4	 0.500000	 2.000000	 flanked_rf_freq_4_amplitude_0.5_rep_1_l_N_2.0.png	 N	 l	 l	 n.a.	 3.844487e-01
7	 1	 149	 flanked	 rf	 4	 0.425000	 2.000000	 flanked_rf_freq_4_amplitude_0.425_rep_1_t_D_2.0.png	 D	 t	 l	 n.a.	 4.667316e-01
7	 1	 150	 flanked	 rf	 4	 0.050000	 2.000000	 flanked_rf_freq_4_amplitude_0.05_rep_7_b_K_2.0.png	 K	 b	 b	 n.a.	 6.404296e-01
7	 1	 151	 flanked	 rf	 4	 0.125000	 2.000000	 flanked_rf_freq_4_amplitude_0.125_rep_6_l_K_2.0.png	 K	 l	 l	 n.a.	 3.782616e-01
7	 1	 152	 flanked	 rf	 4	 0.500000	 2.000000	 flanked_rf_freq_4_amplitude_0.5_rep_2_b_D_2.0.png	 D	 b	 r	 n.a.	 4.319568e-01
7	 1	 153	 flanked	 rf	 4	 0.500000	 2.000000	 flanked_rf_freq_4_amplitude_0.5_rep_8_t_D_2.0.png	 D	 t	 r	 n.a.	 5.521181e-01
7	 1	 154	 flanked	 rf	 4	 0.050000	 2.000000	 flanked_rf_freq_4_amplitude_0.05_rep_6_r_N_2.0.png	 N	 r	 b	 n.a.	 7.084842e-01
7	 1	 155	 flanked	 rf	 4	 0.050000	 2.000000	 flanked_rf_freq_4_amplitude_0.05_rep_4_b_K_2.0.png	 K	 b	 b	 n.a.	 7.323133e-01
7	 1	 156	 flanked	 rf	 4	 0.050000	 2.000000	 flanked_rf_freq_4_amplitude_0.05_rep_9_l_D_2.0.png	 D	 l	 r	 n.a.	 5.080284e-01
7	 1	 157	 flanked	 rf	 4	 0.125000	 2.000000	 flanked_rf_freq_4_amplitude_0.125_rep_7_t_D_2.0.png	 D	 t	 b	 n.a.	 4.229778e-01
7	 1	 158	 flanked	 rf	 4	 0.275000	 2.000000	 flanked_rf_freq_4_amplitude_0.275_rep_8_t_N_2.0.png	 N	 t	 t	 n.a.	 3.513748e-01
7	 1	 159	 flanked	 rf	 4	 0.050000	 2.000000	 flanked_rf_freq_4_amplitude_0.05_rep_0_t_D_2.0.png	 D	 t	 b	 n.a.	 8.096967e-01
7	 1	 160	 flanked	 rf	 4	 0.350000	 2.000000	 flanked_rf_freq_4_amplitude_0.35_rep_1_t_K_2.0.png	 K	 t	 t	 n.a.	 6.275510e-01
7	 1	 161	 flanked	 rf	 4	 0.425000	 2.000000	 flanked_rf_freq_4_amplitude_0.425_rep_7_l_D_2.0.png	 D	 l	 l	 n.a.	 4.114687e-01
7	 1	 162	 flanked	 rf	 4	 0.500000	 2.000000	 flanked_rf_freq_4_amplitude_0.5_rep_0_b_D_2.0.png	 D	 b	 b	 n.a.	 4.625752e-01
7	 1	 163	 flanked	 rf	 4	 0.125000	 2.000000	 flanked_rf_freq_4_amplitude_0.125_rep_2_r_H_2.0.png	 H	 r	 r	 n.a.	 4.508771e-01
7	 1	 164	 flanked	 rf	 4	 0.050000	 2.000000	 flanked_rf_freq_4_amplitude_0.05_rep_8_l_D_2.0.png	 D	 l	 r	 n.a.	 5.887471e-01
7	 1	 165	 flanked	 rf	 4	 0.500000	 2.000000	 flanked_rf_freq_4_amplitude_0.5_rep_7_r_H_2.0.png	 H	 r	 r	 n.a.	 4.709973e-01
7	 1	 166	 flanked	 rf	 4	 0.350000	 2.000000	 flanked_rf_freq_4_amplitude_0.35_rep_5_b_N_2.0.png	 N	 b	 r	 n.a.	 4.538762e-01
7	 1	 167	 flanked	 rf	 4	 0.050000	 2.000000	 flanked_rf_freq_4_amplitude_0.05_rep_2_b_N_2.0.png	 N	 b	 l	 n.a.	 4.964680e-01
7	 1	 168	 flanked	 rf	 4	 0.200000	 2.000000	 flanked_rf_freq_4_amplitude_0.2_rep_1_r_K_2.0.png	 K	 r	 r	 n.a.	 3.083865e-01
7	 1	 169	 flanked	 rf	 4	 0.275000	 2.000000	 flanked_rf_freq_4_amplitude_0.275_rep_2_l_D_2.0.png	 D	 l	 l	 n.a.	 5.194937e-01
7	 1	 170	 flanked	 rf	 4	 0.425000	 2.000000	 flanked_rf_freq_4_amplitude_0.425_rep_1_t_D_2.0.png	 D	 t	 l	 n.a.	 5.360219e-01
7	 1	 171	 flanked	 rf	 4	 0.200000	 2.000000	 flanked_rf_freq_4_amplitude_0.2_rep_2_t_H_2.0.png	 H	 t	 t	 n.a.	 5.034475e-01
7	 1	 172	 flanked	 rf	 4	 0.275000	 2.000000	 flanked_rf_freq_4_amplitude_0.275_rep_1_r_H_2.0.png	 H	 r	 r	 n.a.	 3.924562e-01
7	 1	 173	 flanked	 rf	 4	 0.275000	 2.000000	 flanked_rf_freq_4_amplitude_0.275_rep_4_l_K_2.0.png	 K	 l	 b	 n.a.	 3.798177e-01
7	 1	 174	 flanked	 rf	 4	 0.500000	 2.000000	 flanked_rf_freq_4_amplitude_0.5_rep_2_b_D_2.0.png	 D	 b	 b	 n.a.	 4.805443e-01
7	 1	 175	 flanked	 rf	 4	 0.500000	 2.000000	 flanked_rf_freq_4_amplitude_0.5_rep_0_b_D_2.0.png	 D	 b	 b	 n.a.	 4.346243e-01
7	 1	 176	 flanked	 rf	 4	 0.350000	 2.000000	 flanked_rf_freq_4_amplitude_0.35_rep_0_t_D_2.0.png	 D	 t	 t	 n.a.	 5.507247e-01
7	 1	 177	 flanked	 rf	 4	 0.350000	 2.000000	 flanked_rf_freq_4_amplitude_0.35_rep_8_b_N_2.0.png	 N	 b	 r	 n.a.	 4.807544e-01
7	 1	 178	 flanked	 rf	 4	 0.425000	 2.000000	 flanked_rf_freq_4_amplitude_0.425_rep_2_t_D_2.0.png	 D	 t	 b	 n.a.	 4.075548e-01
7	 1	 179	 flanked	 rf	 4	 0.275000	 2.000000	 flanked_rf_freq_4_amplitude_0.275_rep_4_l_K_2.0.png	 K	 l	 l	 n.a.	 4.824305e-01
7	 1	 180	 flanked	 rf	 4	 0.050000	 2.000000	 flanked_rf_freq_4_amplitude_0.05_rep_2_b_N_2.0.png	 N	 b	 t	 n.a.	 5.330337e-01
7	 1	 181	 flanked	 rf	 4	 0.200000	 2.000000	 flanked_rf_freq_4_amplitude_0.2_rep_6_b_H_2.0.png	 H	 b	 b	 n.a.	 3.964703e-01
7	 1	 182	 flanked	 rf	 4	 0.425000	 2.000000	 flanked_rf_freq_4_amplitude_0.425_rep_6_l_N_2.0.png	 N	 l	 l	 n.a.	 4.059632e-01
7	 1	 183	 flanked	 rf	 4	 0.200000	 2.000000	 flanked_rf_freq_4_amplitude_0.2_rep_3_r_D_2.0.png	 D	 r	 b	 n.a.	 4.528109e-01
7	 1	 184	 flanked	 rf	 4	 0.125000	 2.000000	 flanked_rf_freq_4_amplitude_0.125_rep_8_r_H_2.0.png	 H	 r	 l	 n.a.	 6.301203e-01
7	 1	 185	 flanked	 rf	 4	 0.275000	 2.000000	 flanked_rf_freq_4_amplitude_0.275_rep_7_b_K_2.0.png	 K	 b	 t	 n.a.	 3.960634e-01
7	 1	 186	 flanked	 rf	 4	 0.200000	 2.000000	 flanked_rf_freq_4_amplitude_0.2_rep_2_t_H_2.0.png	 H	 t	 l	 n.a.	 3.571977e-01
7	 1	 187	 flanked	 rf	 4	 0.500000	 2.000000	 flanked_rf_freq_4_amplitude_0.5_rep_1_l_N_2.0.png	 N	 l	 l	 n.a.	 4.483377e-01
7	 1	 188	 flanked	 rf	 4	 0.050000	 2.000000	 flanked_rf_freq_4_amplitude_0.05_rep_7_b_K_2.0.png	 K	 b	 b	 n.a.	 4.103744e-01
7	 1	 189	 flanked	 rf	 4	 0.050000	 2.000000	 flanked_rf_freq_4_amplitude_0.05_rep_6_r_N_2.0.png	 N	 r	 b	 n.a.	 4.656729e-01
7	 1	 190	 flanked	 rf	 4	 0.200000	 2.000000	 flanked_rf_freq_4_amplitude_0.2_rep_4_l_H_2.0.png	 H	 l	 r	 n.a.	 3.697068e-01
7	 1	 191	 flanked	 rf	 4	 0.500000	 2.000000	 flanked_rf_freq_4_amplitude_0.5_rep_8_t_D_2.0.png	 D	 t	 b	 n.a.	 5.761204e-01
7	 1	 192	 flanked	 rf	 4	 0.500000	 2.000000	 flanked_rf_freq_4_amplitude_0.5_rep_2_b_D_2.0.png	 D	 b	 b	 n.a.	 4.711507e-01
7	 1	 193	 flanked	 rf	 4	 0.125000	 2.000000	 flanked_rf_freq_4_amplitude_0.125_rep_7_t_D_2.0.png	 D	 t	 b	 n.a.	 4.498450e-01
7	 1	 194	 flanked	 rf	 4	 0.125000	 2.000000	 flanked_rf_freq_4_amplitude_0.125_rep_6_l_K_2.0.png	 K	 l	 l	 n.a.	 4.291002e-01
7	 1	 195	 flanked	 rf	 4	 0.500000	 2.000000	 flanked_rf_freq_4_amplitude_0.5_rep_5_t_H_2.0.png	 H	 t	 t	 n.a.	 4.564220e-01
7	 1	 196	 flanked	 rf	 4	 0.500000	 2.000000	 flanked_rf_freq_4_amplitude_0.5_rep_4_l_H_2.0.png	 H	 l	 r	 n.a.	 5.182540e-01
7	 1	 197	 flanked	 rf	 4	 0.350000	 2.000000	 flanked_rf_freq_4_amplitude_0.35_rep_0_t_D_2.0.png	 D	 t	 l	 n.a.	 3.587676e-01
7	 1	 198	 flanked	 rf	 4	 0.500000	 2.000000	 flanked_rf_freq_4_amplitude_0.5_rep_6_t_N_2.0.png	 N	 t	 l	 n.a.	 4.597910e-01
7	 1	 199	 flanked	 rf	 4	 0.050000	 2.000000	 flanked_rf_freq_4_amplitude_0.05_rep_3_t_K_2.0.png	 K	 t	 t	 n.a.	 4.460958e-01
7	 1	 200	 flanked	 rf	 4	 0.350000	 2.000000	 flanked_rf_freq_4_amplitude_0.35_rep_2_t_D_2.0.png	 D	 t	 b	 n.a.	 8.000494e-01
7	 1	 201	 flanked	 rf	 4	 0.125000	 2.000000	 flanked_rf_freq_4_amplitude_0.125_rep_1_r_H_2.0.png	 H	 r	 t	 n.a.	 6.852301e-01
7	 1	 202	 flanked	 rf	 4	 0.125000	 2.000000	 flanked_rf_freq_4_amplitude_0.125_rep_4_l_K_2.0.png	 K	 l	 l	 n.a.	 5.004211e-01
7	 1	 203	 flanked	 rf	 4	 0.200000	 2.000000	 flanked_rf_freq_4_amplitude_0.2_rep_0_l_N_2.0.png	 N	 l	 b	 n.a.	 8.433541e-01
7	 1	 204	 flanked	 rf	 4	 0.350000	 2.000000	 flanked_rf_freq_4_amplitude_0.35_rep_9_r_H_2.0.png	 H	 r	 r	 n.a.	 5.428635e-01
7	 1	 205	 flanked	 rf	 4	 0.200000	 2.000000	 flanked_rf_freq_4_amplitude_0.2_rep_3_r_D_2.0.png	 D	 r	 r	 n.a.	 6.241009e-01
7	 1	 206	 flanked	 rf	 4	 0.275000	 2.000000	 flanked_rf_freq_4_amplitude_0.275_rep_3_l_K_2.0.png	 K	 l	 b	 n.a.	 6.242306e-01
7	 1	 207	 flanked	 rf	 4	 0.050000	 2.000000	 flanked_rf_freq_4_amplitude_0.05_rep_1_l_H_2.0.png	 H	 l	 t	 n.a.	 8.078779e-01
7	 1	 208	 flanked	 rf	 4	 0.500000	 2.000000	 flanked_rf_freq_4_amplitude_0.5_rep_5_t_H_2.0.png	 H	 t	 l	 n.a.	 8.794417e-01
7	 1	 209	 flanked	 rf	 4	 0.125000	 2.000000	 flanked_rf_freq_4_amplitude_0.125_rep_4_l_K_2.0.png	 K	 l	 l	 n.a.	 6.794334e-01
7	 1	 210	 flanked	 rf	 4	 0.275000	 2.000000	 flanked_rf_freq_4_amplitude_0.275_rep_4_l_K_2.0.png	 K	 l	 b	 n.a.	 7.942853e-01
