subject	 session	 trial	 flanked	 distortion	 freq	 amplitude	 spacing	 im_name	 targ_letter	 targ_pos	 response	 eyemovement	 RT
5	 1	 1	 flanked	 rf	 4	 0.125000	 2.000000	 flanked_rf_freq_4_amplitude_0.125_rep_7_t_D_2.0.png	 D	 t	 b	 n.a.	 4.408191e-01
5	 1	 2	 flanked	 rf	 4	 0.500000	 2.000000	 flanked_rf_freq_4_amplitude_0.5_rep_7_r_H_2.0.png	 H	 r	 r	 n.a.	 7.369647e-01
5	 1	 3	 flanked	 rf	 4	 0.200000	 2.000000	 flanked_rf_freq_4_amplitude_0.2_rep_0_l_N_2.0.png	 N	 l	 l	 n.a.	 7.506240e-01
5	 1	 4	 flanked	 rf	 4	 0.350000	 2.000000	 flanked_rf_freq_4_amplitude_0.35_rep_4_l_K_2.0.png	 K	 l	 t	 n.a.	 6.093999e-01
5	 1	 5	 flanked	 rf	 4	 0.200000	 2.000000	 flanked_rf_freq_4_amplitude_0.2_rep_5_l_N_2.0.png	 N	 l	 l	 n.a.	 3.721022e-01
5	 1	 6	 flanked	 rf	 4	 0.425000	 2.000000	 flanked_rf_freq_4_amplitude_0.425_rep_1_t_D_2.0.png	 D	 t	 t	 n.a.	 6.701624e-01
5	 1	 7	 flanked	 rf	 4	 0.125000	 2.000000	 flanked_rf_freq_4_amplitude_0.125_rep_1_r_H_2.0.png	 H	 r	 t	 n.a.	 7.297906e-01
5	 1	 8	 flanked	 rf	 4	 0.500000	 2.000000	 flanked_rf_freq_4_amplitude_0.5_rep_9_b_N_2.0.png	 N	 b	 b	 n.a.	 6.008232e-01
5	 1	 9	 flanked	 rf	 4	 0.050000	 2.000000	 flanked_rf_freq_4_amplitude_0.05_rep_9_l_D_2.0.png	 D	 l	 r	 n.a.	 4.848188e-01
5	 1	 10	 flanked	 rf	 4	 0.425000	 2.000000	 flanked_rf_freq_4_amplitude_0.425_rep_7_l_D_2.0.png	 D	 l	 b	 n.a.	 5.858323e-01
5	 1	 11	 flanked	 rf	 4	 0.350000	 2.000000	 flanked_rf_freq_4_amplitude_0.35_rep_7_r_H_2.0.png	 H	 r	 r	 n.a.	 6.223829e-01
5	 1	 12	 flanked	 rf	 4	 0.425000	 2.000000	 flanked_rf_freq_4_amplitude_0.425_rep_2_t_D_2.0.png	 D	 t	 t	 n.a.	 4.578030e-01
5	 1	 13	 flanked	 rf	 4	 0.200000	 2.000000	 flanked_rf_freq_4_amplitude_0.2_rep_1_r_K_2.0.png	 K	 r	 r	 n.a.	 5.311224e-01
5	 1	 14	 flanked	 rf	 4	 0.425000	 2.000000	 flanked_rf_freq_4_amplitude_0.425_rep_2_t_D_2.0.png	 D	 t	 t	 n.a.	 5.118485e-01
5	 1	 15	 flanked	 rf	 4	 0.275000	 2.000000	 flanked_rf_freq_4_amplitude_0.275_rep_5_t_H_2.0.png	 H	 t	 r	 n.a.	 7.948947e-01
5	 1	 16	 flanked	 rf	 4	 0.275000	 2.000000	 flanked_rf_freq_4_amplitude_0.275_rep_2_l_D_2.0.png	 D	 l	 l	 n.a.	 8.089459e-01
5	 1	 17	 flanked	 rf	 4	 0.275000	 2.000000	 flanked_rf_freq_4_amplitude_0.275_rep_9_l_D_2.0.png	 D	 l	 t	 n.a.	 5.218835e-01
5	 1	 18	 flanked	 rf	 4	 0.425000	 2.000000	 flanked_rf_freq_4_amplitude_0.425_rep_7_l_D_2.0.png	 D	 l	 t	 n.a.	 3.876734e-01
5	 1	 19	 flanked	 rf	 4	 0.425000	 2.000000	 flanked_rf_freq_4_amplitude_0.425_rep_6_l_N_2.0.png	 N	 l	 l	 n.a.	 4.436245e-01
5	 1	 20	 flanked	 rf	 4	 0.425000	 2.000000	 flanked_rf_freq_4_amplitude_0.425_rep_5_b_K_2.0.png	 K	 b	 b	 n.a.	 4.824562e-01
5	 1	 21	 flanked	 rf	 4	 0.350000	 2.000000	 flanked_rf_freq_4_amplitude_0.35_rep_6_r_N_2.0.png	 N	 r	 r	 n.a.	 3.976105e-01
5	 1	 22	 flanked	 rf	 4	 0.500000	 2.000000	 flanked_rf_freq_4_amplitude_0.5_rep_0_b_D_2.0.png	 D	 b	 t	 n.a.	 4.488169e-01
5	 1	 23	 flanked	 rf	 4	 0.500000	 2.000000	 flanked_rf_freq_4_amplitude_0.5_rep_6_t_N_2.0.png	 N	 t	 l	 n.a.	 6.003409e-01
5	 1	 24	 flanked	 rf	 4	 0.275000	 2.000000	 flanked_rf_freq_4_amplitude_0.275_rep_0_r_N_2.0.png	 N	 r	 r	 n.a.	 5.944353e-01
5	 1	 25	 flanked	 rf	 4	 0.200000	 2.000000	 flanked_rf_freq_4_amplitude_0.2_rep_8_l_K_2.0.png	 K	 l	 l	 n.a.	 7.250401e-01
5	 1	 26	 flanked	 rf	 4	 0.200000	 2.000000	 flanked_rf_freq_4_amplitude_0.2_rep_6_b_H_2.0.png	 H	 b	 b	 n.a.	 5.261872e-01
5	 1	 27	 flanked	 rf	 4	 0.275000	 2.000000	 flanked_rf_freq_4_amplitude_0.275_rep_8_t_N_2.0.png	 N	 t	 t	 n.a.	 4.331989e-01
5	 1	 28	 flanked	 rf	 4	 0.275000	 2.000000	 flanked_rf_freq_4_amplitude_0.275_rep_3_l_K_2.0.png	 K	 l	 r	 n.a.	 4.433528e-01
5	 1	 29	 flanked	 rf	 4	 0.500000	 2.000000	 flanked_rf_freq_4_amplitude_0.5_rep_5_t_H_2.0.png	 H	 t	 t	 n.a.	 3.499793e-01
5	 1	 30	 flanked	 rf	 4	 0.200000	 2.000000	 flanked_rf_freq_4_amplitude_0.2_rep_7_b_N_2.0.png	 N	 b	 t	 n.a.	 3.740092e-01
5	 1	 31	 flanked	 rf	 4	 0.050000	 2.000000	 flanked_rf_freq_4_amplitude_0.05_rep_0_t_D_2.0.png	 D	 t	 b	 n.a.	 4.681724e-01
5	 1	 32	 flanked	 rf	 4	 0.200000	 2.000000	 flanked_rf_freq_4_amplitude_0.2_rep_6_b_H_2.0.png	 H	 b	 b	 n.a.	 3.665213e-01
5	 1	 33	 flanked	 rf	 4	 0.500000	 2.000000	 flanked_rf_freq_4_amplitude_0.5_rep_2_b_D_2.0.png	 D	 b	 b	 n.a.	 4.939736e-01
5	 1	 34	 flanked	 rf	 4	 0.275000	 2.000000	 flanked_rf_freq_4_amplitude_0.275_rep_7_b_K_2.0.png	 K	 b	 t	 n.a.	 6.894223e-01
5	 1	 35	 flanked	 rf	 4	 0.350000	 2.000000	 flanked_rf_freq_4_amplitude_0.35_rep_1_t_K_2.0.png	 K	 t	 t	 n.a.	 4.794456e-01
5	 1	 36	 flanked	 rf	 4	 0.425000	 2.000000	 flanked_rf_freq_4_amplitude_0.425_rep_3_b_K_2.0.png	 K	 b	 b	 n.a.	 7.276794e-01
5	 1	 37	 flanked	 rf	 4	 0.500000	 2.000000	 flanked_rf_freq_4_amplitude_0.5_rep_8_t_D_2.0.png	 D	 t	 r	 n.a.	 7.427156e-01
5	 1	 38	 flanked	 rf	 4	 0.050000	 2.000000	 flanked_rf_freq_4_amplitude_0.05_rep_5_l_K_2.0.png	 K	 l	 l	 n.a.	 6.557083e-01
5	 1	 39	 flanked	 rf	 4	 0.350000	 2.000000	 flanked_rf_freq_4_amplitude_0.35_rep_5_b_N_2.0.png	 N	 b	 r	 n.a.	 9.459558e-01
5	 1	 40	 flanked	 rf	 4	 0.500000	 2.000000	 flanked_rf_freq_4_amplitude_0.5_rep_3_l_H_2.0.png	 H	 l	 b	 n.a.	 4.115150e-01
5	 1	 41	 flanked	 rf	 4	 0.200000	 2.000000	 flanked_rf_freq_4_amplitude_0.2_rep_4_l_H_2.0.png	 H	 l	 t	 n.a.	 1.012365e+00
5	 1	 42	 flanked	 rf	 4	 0.425000	 2.000000	 flanked_rf_freq_4_amplitude_0.425_rep_4_l_D_2.0.png	 D	 l	 l	 n.a.	 4.475925e-01
5	 1	 43	 flanked	 rf	 4	 0.125000	 2.000000	 flanked_rf_freq_4_amplitude_0.125_rep_5_l_K_2.0.png	 K	 l	 t	 n.a.	 6.454801e-01
5	 1	 44	 flanked	 rf	 4	 0.050000	 2.000000	 flanked_rf_freq_4_amplitude_0.05_rep_9_l_D_2.0.png	 D	 l	 r	 n.a.	 4.720595e-01
5	 1	 45	 flanked	 rf	 4	 0.350000	 2.000000	 flanked_rf_freq_4_amplitude_0.35_rep_9_r_H_2.0.png	 H	 r	 b	 n.a.	 6.206885e-01
5	 1	 46	 flanked	 rf	 4	 0.275000	 2.000000	 flanked_rf_freq_4_amplitude_0.275_rep_5_t_H_2.0.png	 H	 t	 r	 n.a.	 6.067265e-01
5	 1	 47	 flanked	 rf	 4	 0.350000	 2.000000	 flanked_rf_freq_4_amplitude_0.35_rep_0_t_D_2.0.png	 D	 t	 t	 n.a.	 4.968987e-01
5	 1	 48	 flanked	 rf	 4	 0.350000	 2.000000	 flanked_rf_freq_4_amplitude_0.35_rep_7_r_H_2.0.png	 H	 r	 r	 n.a.	 6.570918e-01
5	 1	 49	 flanked	 rf	 4	 0.125000	 2.000000	 flanked_rf_freq_4_amplitude_0.125_rep_7_t_D_2.0.png	 D	 t	 b	 n.a.	 5.505463e-01
5	 1	 50	 flanked	 rf	 4	 0.425000	 2.000000	 flanked_rf_freq_4_amplitude_0.425_rep_0_l_H_2.0.png	 H	 l	 t	 n.a.	 4.894413e-01
5	 1	 51	 flanked	 rf	 4	 0.050000	 2.000000	 flanked_rf_freq_4_amplitude_0.05_rep_1_l_H_2.0.png	 H	 l	 l	 n.a.	 6.398892e-01
5	 1	 52	 flanked	 rf	 4	 0.200000	 2.000000	 flanked_rf_freq_4_amplitude_0.2_rep_4_l_H_2.0.png	 H	 l	 r	 n.a.	 4.714735e-01
5	 1	 53	 flanked	 rf	 4	 0.425000	 2.000000	 flanked_rf_freq_4_amplitude_0.425_rep_1_t_D_2.0.png	 D	 t	 t	 n.a.	 7.927747e-01
5	 1	 54	 flanked	 rf	 4	 0.500000	 2.000000	 flanked_rf_freq_4_amplitude_0.5_rep_7_r_H_2.0.png	 H	 r	 r	 n.a.	 7.061122e-01
5	 1	 55	 flanked	 rf	 4	 0.275000	 2.000000	 flanked_rf_freq_4_amplitude_0.275_rep_9_l_D_2.0.png	 D	 l	 l	 n.a.	 3.790325e-01
5	 1	 56	 flanked	 rf	 4	 0.050000	 2.000000	 flanked_rf_freq_4_amplitude_0.05_rep_6_r_N_2.0.png	 N	 r	 t	 n.a.	 5.007540e-01
5	 1	 57	 flanked	 rf	 4	 0.275000	 2.000000	 flanked_rf_freq_4_amplitude_0.275_rep_9_l_D_2.0.png	 D	 l	 l	 n.a.	 7.229058e-01
5	 1	 58	 flanked	 rf	 4	 0.350000	 2.000000	 flanked_rf_freq_4_amplitude_0.35_rep_6_r_N_2.0.png	 N	 r	 r	 n.a.	 5.455103e-01
5	 1	 59	 flanked	 rf	 4	 0.350000	 2.000000	 flanked_rf_freq_4_amplitude_0.35_rep_9_r_H_2.0.png	 H	 r	 r	 n.a.	 7.493046e-01
5	 1	 60	 flanked	 rf	 4	 0.050000	 2.000000	 flanked_rf_freq_4_amplitude_0.05_rep_2_b_N_2.0.png	 N	 b	 t	 n.a.	 1.124416e+00
5	 1	 61	 flanked	 rf	 4	 0.350000	 2.000000	 flanked_rf_freq_4_amplitude_0.35_rep_8_b_N_2.0.png	 N	 b	 r	 n.a.	 6.473640e-01
5	 1	 62	 flanked	 rf	 4	 0.125000	 2.000000	 flanked_rf_freq_4_amplitude_0.125_rep_9_l_D_2.0.png	 D	 l	 r	 n.a.	 1.363739e+00
5	 1	 63	 flanked	 rf	 4	 0.050000	 2.000000	 flanked_rf_freq_4_amplitude_0.05_rep_7_b_K_2.0.png	 K	 b	 b	 n.a.	 4.922566e-01
5	 1	 64	 flanked	 rf	 4	 0.200000	 2.000000	 flanked_rf_freq_4_amplitude_0.2_rep_1_r_K_2.0.png	 K	 r	 r	 n.a.	 3.689659e-01
5	 1	 65	 flanked	 rf	 4	 0.200000	 2.000000	 flanked_rf_freq_4_amplitude_0.2_rep_9_b_N_2.0.png	 N	 b	 b	 n.a.	 6.554498e-01
5	 1	 66	 flanked	 rf	 4	 0.500000	 2.000000	 flanked_rf_freq_4_amplitude_0.5_rep_1_l_N_2.0.png	 N	 l	 l	 n.a.	 6.745506e-01
5	 1	 67	 flanked	 rf	 4	 0.350000	 2.000000	 flanked_rf_freq_4_amplitude_0.35_rep_0_t_D_2.0.png	 D	 t	 t	 n.a.	 5.172075e-01
5	 1	 68	 flanked	 rf	 4	 0.500000	 2.000000	 flanked_rf_freq_4_amplitude_0.5_rep_7_r_H_2.0.png	 H	 r	 r	 n.a.	 6.215253e-01
5	 1	 69	 flanked	 rf	 4	 0.050000	 2.000000	 flanked_rf_freq_4_amplitude_0.05_rep_1_l_H_2.0.png	 H	 l	 t	 n.a.	 7.605144e-01
5	 1	 70	 flanked	 rf	 4	 0.275000	 2.000000	 flanked_rf_freq_4_amplitude_0.275_rep_4_l_K_2.0.png	 K	 l	 l	 n.a.	 7.493396e-01
5	 1	 71	 flanked	 rf	 4	 0.200000	 2.000000	 flanked_rf_freq_4_amplitude_0.2_rep_3_r_D_2.0.png	 D	 r	 b	 n.a.	 9.062611e-01
5	 1	 72	 flanked	 rf	 4	 0.500000	 2.000000	 flanked_rf_freq_4_amplitude_0.5_rep_8_t_D_2.0.png	 D	 t	 l	 n.a.	 6.947500e-01
5	 1	 73	 flanked	 rf	 4	 0.425000	 2.000000	 flanked_rf_freq_4_amplitude_0.425_rep_3_b_K_2.0.png	 K	 b	 b	 n.a.	 3.632577e-01
5	 1	 74	 flanked	 rf	 4	 0.050000	 2.000000	 flanked_rf_freq_4_amplitude_0.05_rep_4_b_K_2.0.png	 K	 b	 r	 n.a.	 5.036432e-01
5	 1	 75	 flanked	 rf	 4	 0.350000	 2.000000	 flanked_rf_freq_4_amplitude_0.35_rep_3_b_H_2.0.png	 H	 b	 r	 n.a.	 6.277378e-01
5	 1	 76	 flanked	 rf	 4	 0.050000	 2.000000	 flanked_rf_freq_4_amplitude_0.05_rep_6_r_N_2.0.png	 N	 r	 t	 n.a.	 5.751352e-01
5	 1	 77	 flanked	 rf	 4	 0.200000	 2.000000	 flanked_rf_freq_4_amplitude_0.2_rep_7_b_N_2.0.png	 N	 b	 t	 n.a.	 9.834644e-01
5	 1	 78	 flanked	 rf	 4	 0.275000	 2.000000	 flanked_rf_freq_4_amplitude_0.275_rep_7_b_K_2.0.png	 K	 b	 t	 n.a.	 1.081440e+00
5	 1	 79	 flanked	 rf	 4	 0.125000	 2.000000	 flanked_rf_freq_4_amplitude_0.125_rep_2_r_H_2.0.png	 H	 r	 r	 n.a.	 4.692826e-01
5	 1	 80	 flanked	 rf	 4	 0.125000	 2.000000	 flanked_rf_freq_4_amplitude_0.125_rep_3_l_K_2.0.png	 K	 l	 r	 n.a.	 4.191741e-01
5	 1	 81	 flanked	 rf	 4	 0.200000	 2.000000	 flanked_rf_freq_4_amplitude_0.2_rep_5_l_N_2.0.png	 N	 l	 r	 n.a.	 6.843264e-01
5	 1	 82	 flanked	 rf	 4	 0.500000	 2.000000	 flanked_rf_freq_4_amplitude_0.5_rep_9_b_N_2.0.png	 N	 b	 b	 n.a.	 1.226969e+00
5	 1	 83	 flanked	 rf	 4	 0.500000	 2.000000	 flanked_rf_freq_4_amplitude_0.5_rep_5_t_H_2.0.png	 H	 t	 t	 n.a.	 4.826501e-01
5	 1	 84	 flanked	 rf	 4	 0.050000	 2.000000	 flanked_rf_freq_4_amplitude_0.05_rep_2_b_N_2.0.png	 N	 b	 l	 n.a.	 9.027143e-01
5	 1	 85	 flanked	 rf	 4	 0.425000	 2.000000	 flanked_rf_freq_4_amplitude_0.425_rep_8_l_H_2.0.png	 H	 l	 r	 n.a.	 6.344940e-01
5	 1	 86	 flanked	 rf	 4	 0.500000	 2.000000	 flanked_rf_freq_4_amplitude_0.5_rep_0_b_D_2.0.png	 D	 b	 t	 n.a.	 3.858552e-01
5	 1	 87	 flanked	 rf	 4	 0.350000	 2.000000	 flanked_rf_freq_4_amplitude_0.35_rep_8_b_N_2.0.png	 N	 b	 b	 n.a.	 6.293482e-01
5	 1	 88	 flanked	 rf	 4	 0.425000	 2.000000	 flanked_rf_freq_4_amplitude_0.425_rep_4_l_D_2.0.png	 D	 l	 l	 n.a.	 5.661049e-01
5	 1	 89	 flanked	 rf	 4	 0.125000	 2.000000	 flanked_rf_freq_4_amplitude_0.125_rep_4_l_K_2.0.png	 K	 l	 b	 n.a.	 6.021102e-01
5	 1	 90	 flanked	 rf	 4	 0.425000	 2.000000	 flanked_rf_freq_4_amplitude_0.425_rep_6_l_N_2.0.png	 N	 l	 l	 n.a.	 3.755145e-01
5	 1	 91	 flanked	 rf	 4	 0.275000	 2.000000	 flanked_rf_freq_4_amplitude_0.275_rep_5_t_H_2.0.png	 H	 t	 t	 n.a.	 5.019450e-01
5	 1	 92	 flanked	 rf	 4	 0.125000	 2.000000	 flanked_rf_freq_4_amplitude_0.125_rep_7_t_D_2.0.png	 D	 t	 b	 n.a.	 4.945234e-01
5	 1	 93	 flanked	 rf	 4	 0.050000	 2.000000	 flanked_rf_freq_4_amplitude_0.05_rep_3_t_K_2.0.png	 K	 t	 t	 n.a.	 5.512564e-01
5	 1	 94	 flanked	 rf	 4	 0.125000	 2.000000	 flanked_rf_freq_4_amplitude_0.125_rep_4_l_K_2.0.png	 K	 l	 l	 n.a.	 8.720905e-01
5	 1	 95	 flanked	 rf	 4	 0.125000	 2.000000	 flanked_rf_freq_4_amplitude_0.125_rep_9_l_D_2.0.png	 D	 l	 r	 n.a.	 9.036007e-01
5	 1	 96	 flanked	 rf	 4	 0.500000	 2.000000	 flanked_rf_freq_4_amplitude_0.5_rep_4_l_H_2.0.png	 H	 l	 t	 n.a.	 4.574218e-01
5	 1	 97	 flanked	 rf	 4	 0.275000	 2.000000	 flanked_rf_freq_4_amplitude_0.275_rep_4_l_K_2.0.png	 K	 l	 l	 n.a.	 4.062457e-01
5	 1	 98	 flanked	 rf	 4	 0.050000	 2.000000	 flanked_rf_freq_4_amplitude_0.05_rep_6_r_N_2.0.png	 N	 r	 t	 n.a.	 4.716253e-01
5	 1	 99	 flanked	 rf	 4	 0.050000	 2.000000	 flanked_rf_freq_4_amplitude_0.05_rep_4_b_K_2.0.png	 K	 b	 b	 n.a.	 4.090036e-01
5	 1	 100	 flanked	 rf	 4	 0.350000	 2.000000	 flanked_rf_freq_4_amplitude_0.35_rep_6_r_N_2.0.png	 N	 r	 r	 n.a.	 4.638461e-01
5	 1	 101	 flanked	 rf	 4	 0.125000	 2.000000	 flanked_rf_freq_4_amplitude_0.125_rep_5_l_K_2.0.png	 K	 l	 t	 n.a.	 7.269404e-01
5	 1	 102	 flanked	 rf	 4	 0.125000	 2.000000	 flanked_rf_freq_4_amplitude_0.125_rep_8_r_H_2.0.png	 H	 r	 r	 n.a.	 3.522187e-01
5	 1	 103	 flanked	 rf	 4	 0.275000	 2.000000	 flanked_rf_freq_4_amplitude_0.275_rep_1_r_H_2.0.png	 H	 r	 b	 n.a.	 4.914152e-01
5	 1	 104	 flanked	 rf	 4	 0.350000	 2.000000	 flanked_rf_freq_4_amplitude_0.35_rep_3_b_H_2.0.png	 H	 b	 r	 n.a.	 7.769953e-01
5	 1	 105	 flanked	 rf	 4	 0.275000	 2.000000	 flanked_rf_freq_4_amplitude_0.275_rep_6_t_H_2.0.png	 H	 t	 t	 n.a.	 4.027614e-01
5	 1	 106	 flanked	 rf	 4	 0.500000	 2.000000	 flanked_rf_freq_4_amplitude_0.5_rep_4_l_H_2.0.png	 H	 l	 b	 n.a.	 5.344909e-01
5	 1	 107	 flanked	 rf	 4	 0.125000	 2.000000	 flanked_rf_freq_4_amplitude_0.125_rep_0_r_D_2.0.png	 D	 r	 r	 n.a.	 3.988932e-01
5	 1	 108	 flanked	 rf	 4	 0.500000	 2.000000	 flanked_rf_freq_4_amplitude_0.5_rep_3_l_H_2.0.png	 H	 l	 l	 n.a.	 5.079790e-01
5	 1	 109	 flanked	 rf	 4	 0.050000	 2.000000	 flanked_rf_freq_4_amplitude_0.05_rep_4_b_K_2.0.png	 K	 b	 r	 n.a.	 1.216849e+00
5	 1	 110	 flanked	 rf	 4	 0.200000	 2.000000	 flanked_rf_freq_4_amplitude_0.2_rep_2_t_H_2.0.png	 H	 t	 t	 n.a.	 3.450654e-01
5	 1	 111	 flanked	 rf	 4	 0.050000	 2.000000	 flanked_rf_freq_4_amplitude_0.05_rep_5_l_K_2.0.png	 K	 l	 l	 n.a.	 4.798353e-01
5	 1	 112	 flanked	 rf	 4	 0.200000	 2.000000	 flanked_rf_freq_4_amplitude_0.2_rep_5_l_N_2.0.png	 N	 l	 l	 n.a.	 4.713749e-01
5	 1	 113	 flanked	 rf	 4	 0.125000	 2.000000	 flanked_rf_freq_4_amplitude_0.125_rep_3_l_K_2.0.png	 K	 l	 r	 n.a.	 4.745824e-01
5	 1	 114	 flanked	 rf	 4	 0.350000	 2.000000	 flanked_rf_freq_4_amplitude_0.35_rep_8_b_N_2.0.png	 N	 b	 b	 n.a.	 9.156294e-01
5	 1	 115	 flanked	 rf	 4	 0.500000	 2.000000	 flanked_rf_freq_4_amplitude_0.5_rep_2_b_D_2.0.png	 D	 b	 t	 n.a.	 9.701710e-01
5	 1	 116	 flanked	 rf	 4	 0.200000	 2.000000	 flanked_rf_freq_4_amplitude_0.2_rep_0_l_N_2.0.png	 N	 l	 l	 n.a.	 5.858214e-01
5	 1	 117	 flanked	 rf	 4	 0.500000	 2.000000	 flanked_rf_freq_4_amplitude_0.5_rep_1_l_N_2.0.png	 N	 l	 l	 n.a.	 5.538328e-01
5	 1	 118	 flanked	 rf	 4	 0.050000	 2.000000	 flanked_rf_freq_4_amplitude_0.05_rep_7_b_K_2.0.png	 K	 b	 b	 n.a.	 7.242989e-01
5	 1	 119	 flanked	 rf	 4	 0.200000	 2.000000	 flanked_rf_freq_4_amplitude_0.2_rep_7_b_N_2.0.png	 N	 b	 t	 n.a.	 1.218090e+00
5	 1	 120	 flanked	 rf	 4	 0.125000	 2.000000	 flanked_rf_freq_4_amplitude_0.125_rep_9_l_D_2.0.png	 D	 l	 r	 n.a.	 4.637969e-01
5	 1	 121	 flanked	 rf	 4	 0.350000	 2.000000	 flanked_rf_freq_4_amplitude_0.35_rep_1_t_K_2.0.png	 K	 t	 l	 n.a.	 5.124685e-01
5	 1	 122	 flanked	 rf	 4	 0.425000	 2.000000	 flanked_rf_freq_4_amplitude_0.425_rep_8_l_H_2.0.png	 H	 l	 t	 n.a.	 1.219944e+00
5	 1	 123	 flanked	 rf	 4	 0.500000	 2.000000	 flanked_rf_freq_4_amplitude_0.5_rep_1_l_N_2.0.png	 N	 l	 l	 n.a.	 6.792531e-01
5	 1	 124	 flanked	 rf	 4	 0.125000	 2.000000	 flanked_rf_freq_4_amplitude_0.125_rep_6_l_K_2.0.png	 K	 l	 r	 n.a.	 7.656394e-01
5	 1	 125	 flanked	 rf	 4	 0.125000	 2.000000	 flanked_rf_freq_4_amplitude_0.125_rep_1_r_H_2.0.png	 H	 r	 r	 n.a.	 5.526425e-01
5	 1	 126	 flanked	 rf	 4	 0.125000	 2.000000	 flanked_rf_freq_4_amplitude_0.125_rep_0_r_D_2.0.png	 D	 r	 t	 n.a.	 8.118140e-01
5	 1	 127	 flanked	 rf	 4	 0.350000	 2.000000	 flanked_rf_freq_4_amplitude_0.35_rep_1_t_K_2.0.png	 K	 t	 l	 n.a.	 4.843298e-01
5	 1	 128	 flanked	 rf	 4	 0.050000	 2.000000	 flanked_rf_freq_4_amplitude_0.05_rep_8_l_D_2.0.png	 D	 l	 b	 n.a.	 6.672496e-01
5	 1	 129	 flanked	 rf	 4	 0.425000	 2.000000	 flanked_rf_freq_4_amplitude_0.425_rep_0_l_H_2.0.png	 H	 l	 t	 n.a.	 6.752710e-01
5	 1	 130	 flanked	 rf	 4	 0.050000	 2.000000	 flanked_rf_freq_4_amplitude_0.05_rep_0_t_D_2.0.png	 D	 t	 r	 n.a.	 7.392066e-01
5	 1	 131	 flanked	 rf	 4	 0.125000	 2.000000	 flanked_rf_freq_4_amplitude_0.125_rep_5_l_K_2.0.png	 K	 l	 l	 n.a.	 1.032713e+00
5	 1	 132	 flanked	 rf	 4	 0.200000	 2.000000	 flanked_rf_freq_4_amplitude_0.2_rep_9_b_N_2.0.png	 N	 b	 b	 n.a.	 8.051840e-01
5	 1	 133	 flanked	 rf	 4	 0.125000	 2.000000	 flanked_rf_freq_4_amplitude_0.125_rep_8_r_H_2.0.png	 H	 r	 r	 n.a.	 5.011502e-01
5	 1	 134	 flanked	 rf	 4	 0.275000	 2.000000	 flanked_rf_freq_4_amplitude_0.275_rep_6_t_H_2.0.png	 H	 t	 t	 n.a.	 4.625442e-01
5	 1	 135	 flanked	 rf	 4	 0.125000	 2.000000	 flanked_rf_freq_4_amplitude_0.125_rep_6_l_K_2.0.png	 K	 l	 l	 n.a.	 7.427473e-01
5	 1	 136	 flanked	 rf	 4	 0.200000	 2.000000	 flanked_rf_freq_4_amplitude_0.2_rep_8_l_K_2.0.png	 K	 l	 r	 n.a.	 9.461914e-01
5	 1	 137	 flanked	 rf	 4	 0.425000	 2.000000	 flanked_rf_freq_4_amplitude_0.425_rep_3_b_K_2.0.png	 K	 b	 b	 n.a.	 7.894163e-01
5	 1	 138	 flanked	 rf	 4	 0.275000	 2.000000	 flanked_rf_freq_4_amplitude_0.275_rep_7_b_K_2.0.png	 K	 b	 t	 n.a.	 7.267638e-01
5	 1	 139	 flanked	 rf	 4	 0.200000	 2.000000	 flanked_rf_freq_4_amplitude_0.2_rep_8_l_K_2.0.png	 K	 l	 l	 n.a.	 5.871414e-01
5	 1	 140	 flanked	 rf	 4	 0.275000	 2.000000	 flanked_rf_freq_4_amplitude_0.275_rep_2_l_D_2.0.png	 D	 l	 l	 n.a.	 7.127525e-01
5	 1	 141	 flanked	 rf	 4	 0.350000	 2.000000	 flanked_rf_freq_4_amplitude_0.35_rep_5_b_N_2.0.png	 N	 b	 t	 n.a.	 7.570940e-01
5	 1	 142	 flanked	 rf	 4	 0.200000	 2.000000	 flanked_rf_freq_4_amplitude_0.2_rep_3_r_D_2.0.png	 D	 r	 b	 n.a.	 7.845108e-01
5	 1	 143	 flanked	 rf	 4	 0.350000	 2.000000	 flanked_rf_freq_4_amplitude_0.35_rep_4_l_K_2.0.png	 K	 l	 t	 n.a.	 5.751863e-01
5	 1	 144	 flanked	 rf	 4	 0.425000	 2.000000	 flanked_rf_freq_4_amplitude_0.425_rep_2_t_D_2.0.png	 D	 t	 t	 n.a.	 8.245106e-01
5	 1	 145	 flanked	 rf	 4	 0.350000	 2.000000	 flanked_rf_freq_4_amplitude_0.35_rep_2_t_D_2.0.png	 D	 t	 t	 n.a.	 4.688218e-01
5	 1	 146	 flanked	 rf	 4	 0.275000	 2.000000	 flanked_rf_freq_4_amplitude_0.275_rep_8_t_N_2.0.png	 N	 t	 r	 n.a.	 1.252276e+00
5	 1	 147	 flanked	 rf	 4	 0.050000	 2.000000	 flanked_rf_freq_4_amplitude_0.05_rep_2_b_N_2.0.png	 N	 b	 b	 n.a.	 4.719721e-01
5	 1	 148	 flanked	 rf	 4	 0.125000	 2.000000	 flanked_rf_freq_4_amplitude_0.125_rep_2_r_H_2.0.png	 H	 r	 t	 n.a.	 5.015224e-01
5	 1	 149	 flanked	 rf	 4	 0.050000	 2.000000	 flanked_rf_freq_4_amplitude_0.05_rep_3_t_K_2.0.png	 K	 t	 t	 n.a.	 4.706206e-01
5	 1	 150	 flanked	 rf	 4	 0.425000	 2.000000	 flanked_rf_freq_4_amplitude_0.425_rep_0_l_H_2.0.png	 H	 l	 l	 n.a.	 4.190428e-01
5	 1	 151	 flanked	 rf	 4	 0.125000	 2.000000	 flanked_rf_freq_4_amplitude_0.125_rep_0_r_D_2.0.png	 D	 r	 r	 n.a.	 3.838821e-01
5	 1	 152	 flanked	 rf	 4	 0.050000	 2.000000	 flanked_rf_freq_4_amplitude_0.05_rep_8_l_D_2.0.png	 D	 l	 t	 n.a.	 5.999987e-01
5	 1	 153	 flanked	 rf	 4	 0.425000	 2.000000	 flanked_rf_freq_4_amplitude_0.425_rep_4_l_D_2.0.png	 D	 l	 l	 n.a.	 5.732389e-01
5	 1	 154	 flanked	 rf	 4	 0.050000	 2.000000	 flanked_rf_freq_4_amplitude_0.05_rep_0_t_D_2.0.png	 D	 t	 b	 n.a.	 4.749573e-01
5	 1	 155	 flanked	 rf	 4	 0.275000	 2.000000	 flanked_rf_freq_4_amplitude_0.275_rep_4_l_K_2.0.png	 K	 l	 l	 n.a.	 4.346198e-01
5	 1	 156	 flanked	 rf	 4	 0.125000	 2.000000	 flanked_rf_freq_4_amplitude_0.125_rep_4_l_K_2.0.png	 K	 l	 b	 n.a.	 1.069134e+00
5	 1	 157	 flanked	 rf	 4	 0.425000	 2.000000	 flanked_rf_freq_4_amplitude_0.425_rep_5_b_K_2.0.png	 K	 b	 t	 n.a.	 1.061482e+00
5	 1	 158	 flanked	 rf	 4	 0.350000	 2.000000	 flanked_rf_freq_4_amplitude_0.35_rep_2_t_D_2.0.png	 D	 t	 b	 n.a.	 4.659413e-01
5	 1	 159	 flanked	 rf	 4	 0.425000	 2.000000	 flanked_rf_freq_4_amplitude_0.425_rep_6_l_N_2.0.png	 N	 l	 l	 n.a.	 3.644368e-01
5	 1	 160	 flanked	 rf	 4	 0.275000	 2.000000	 flanked_rf_freq_4_amplitude_0.275_rep_0_r_N_2.0.png	 N	 r	 r	 n.a.	 7.693990e-01
5	 1	 161	 flanked	 rf	 4	 0.125000	 2.000000	 flanked_rf_freq_4_amplitude_0.125_rep_2_r_H_2.0.png	 H	 r	 t	 n.a.	 7.061907e-01
5	 1	 162	 flanked	 rf	 4	 0.275000	 2.000000	 flanked_rf_freq_4_amplitude_0.275_rep_1_r_H_2.0.png	 H	 r	 b	 n.a.	 5.711613e-01
5	 1	 163	 flanked	 rf	 4	 0.500000	 2.000000	 flanked_rf_freq_4_amplitude_0.5_rep_0_b_D_2.0.png	 D	 b	 t	 n.a.	 4.994137e-01
5	 1	 164	 flanked	 rf	 4	 0.500000	 2.000000	 flanked_rf_freq_4_amplitude_0.5_rep_6_t_N_2.0.png	 N	 t	 t	 n.a.	 4.018227e-01
5	 1	 165	 flanked	 rf	 4	 0.275000	 2.000000	 flanked_rf_freq_4_amplitude_0.275_rep_3_l_K_2.0.png	 K	 l	 b	 n.a.	 8.269277e-01
5	 1	 166	 flanked	 rf	 4	 0.350000	 2.000000	 flanked_rf_freq_4_amplitude_0.35_rep_5_b_N_2.0.png	 N	 b	 b	 n.a.	 5.920162e-01
5	 1	 167	 flanked	 rf	 4	 0.200000	 2.000000	 flanked_rf_freq_4_amplitude_0.2_rep_6_b_H_2.0.png	 H	 b	 b	 n.a.	 5.379270e-01
5	 1	 168	 flanked	 rf	 4	 0.200000	 2.000000	 flanked_rf_freq_4_amplitude_0.2_rep_3_r_D_2.0.png	 D	 r	 t	 n.a.	 4.823386e-01
5	 1	 169	 flanked	 rf	 4	 0.050000	 2.000000	 flanked_rf_freq_4_amplitude_0.05_rep_7_b_K_2.0.png	 K	 b	 r	 n.a.	 5.116853e-01
5	 1	 170	 flanked	 rf	 4	 0.125000	 2.000000	 flanked_rf_freq_4_amplitude_0.125_rep_8_r_H_2.0.png	 H	 r	 t	 n.a.	 4.426042e-01
5	 1	 171	 flanked	 rf	 4	 0.200000	 2.000000	 flanked_rf_freq_4_amplitude_0.2_rep_4_l_H_2.0.png	 H	 l	 r	 n.a.	 6.190754e-01
5	 1	 172	 flanked	 rf	 4	 0.500000	 2.000000	 flanked_rf_freq_4_amplitude_0.5_rep_3_l_H_2.0.png	 H	 l	 l	 n.a.	 4.482323e-01
5	 1	 173	 flanked	 rf	 4	 0.500000	 2.000000	 flanked_rf_freq_4_amplitude_0.5_rep_6_t_N_2.0.png	 N	 t	 t	 n.a.	 4.430090e-01
5	 1	 174	 flanked	 rf	 4	 0.500000	 2.000000	 flanked_rf_freq_4_amplitude_0.5_rep_4_l_H_2.0.png	 H	 l	 b	 n.a.	 6.241108e-01
5	 1	 175	 flanked	 rf	 4	 0.200000	 2.000000	 flanked_rf_freq_4_amplitude_0.2_rep_2_t_H_2.0.png	 H	 t	 t	 n.a.	 4.467460e-01
5	 1	 176	 flanked	 rf	 4	 0.125000	 2.000000	 flanked_rf_freq_4_amplitude_0.125_rep_1_r_H_2.0.png	 H	 r	 r	 n.a.	 7.195795e-01
5	 1	 177	 flanked	 rf	 4	 0.275000	 2.000000	 flanked_rf_freq_4_amplitude_0.275_rep_0_r_N_2.0.png	 N	 r	 r	 n.a.	 4.744501e-01
5	 1	 178	 flanked	 rf	 4	 0.050000	 2.000000	 flanked_rf_freq_4_amplitude_0.05_rep_3_t_K_2.0.png	 K	 t	 r	 n.a.	 1.052938e+00
5	 1	 179	 flanked	 rf	 4	 0.050000	 2.000000	 flanked_rf_freq_4_amplitude_0.05_rep_1_l_H_2.0.png	 H	 l	 t	 n.a.	 5.438820e-01
5	 1	 180	 flanked	 rf	 4	 0.050000	 2.000000	 flanked_rf_freq_4_amplitude_0.05_rep_8_l_D_2.0.png	 D	 l	 b	 n.a.	 5.419495e-01
5	 1	 181	 flanked	 rf	 4	 0.200000	 2.000000	 flanked_rf_freq_4_amplitude_0.2_rep_2_t_H_2.0.png	 H	 t	 t	 n.a.	 4.507123e-01
5	 1	 182	 flanked	 rf	 4	 0.425000	 2.000000	 flanked_rf_freq_4_amplitude_0.425_rep_5_b_K_2.0.png	 K	 b	 b	 n.a.	 5.816642e-01
5	 1	 183	 flanked	 rf	 4	 0.425000	 2.000000	 flanked_rf_freq_4_amplitude_0.425_rep_9_l_K_2.0.png	 K	 l	 b	 n.a.	 5.477118e-01
5	 1	 184	 flanked	 rf	 4	 0.275000	 2.000000	 flanked_rf_freq_4_amplitude_0.275_rep_6_t_H_2.0.png	 H	 t	 t	 n.a.	 4.231734e-01
5	 1	 185	 flanked	 rf	 4	 0.350000	 2.000000	 flanked_rf_freq_4_amplitude_0.35_rep_0_t_D_2.0.png	 D	 t	 l	 n.a.	 8.846797e-01
5	 1	 186	 flanked	 rf	 4	 0.425000	 2.000000	 flanked_rf_freq_4_amplitude_0.425_rep_7_l_D_2.0.png	 D	 l	 b	 n.a.	 7.579859e-01
5	 1	 187	 flanked	 rf	 4	 0.275000	 2.000000	 flanked_rf_freq_4_amplitude_0.275_rep_8_t_N_2.0.png	 N	 t	 t	 n.a.	 6.876946e-01
5	 1	 188	 flanked	 rf	 4	 0.500000	 2.000000	 flanked_rf_freq_4_amplitude_0.5_rep_5_t_H_2.0.png	 H	 t	 l	 n.a.	 9.264925e-01
5	 1	 189	 flanked	 rf	 4	 0.275000	 2.000000	 flanked_rf_freq_4_amplitude_0.275_rep_2_l_D_2.0.png	 D	 l	 l	 n.a.	 7.014403e-01
5	 1	 190	 flanked	 rf	 4	 0.050000	 2.000000	 flanked_rf_freq_4_amplitude_0.05_rep_5_l_K_2.0.png	 K	 l	 t	 n.a.	 1.154132e+00
5	 1	 191	 flanked	 rf	 4	 0.125000	 2.000000	 flanked_rf_freq_4_amplitude_0.125_rep_3_l_K_2.0.png	 K	 l	 r	 n.a.	 3.943614e-01
5	 1	 192	 flanked	 rf	 4	 0.425000	 2.000000	 flanked_rf_freq_4_amplitude_0.425_rep_1_t_D_2.0.png	 D	 t	 t	 n.a.	 8.661950e-01
5	 1	 193	 flanked	 rf	 4	 0.275000	 2.000000	 flanked_rf_freq_4_amplitude_0.275_rep_1_r_H_2.0.png	 H	 r	 b	 n.a.	 7.839241e-01
5	 1	 194	 flanked	 rf	 4	 0.200000	 2.000000	 flanked_rf_freq_4_amplitude_0.2_rep_1_r_K_2.0.png	 K	 r	 r	 n.a.	 4.165209e-01
5	 1	 195	 flanked	 rf	 4	 0.425000	 2.000000	 flanked_rf_freq_4_amplitude_0.425_rep_8_l_H_2.0.png	 H	 l	 r	 n.a.	 6.549076e-01
5	 1	 196	 flanked	 rf	 4	 0.350000	 2.000000	 flanked_rf_freq_4_amplitude_0.35_rep_9_r_H_2.0.png	 H	 r	 b	 n.a.	 8.469907e-01
5	 1	 197	 flanked	 rf	 4	 0.500000	 2.000000	 flanked_rf_freq_4_amplitude_0.5_rep_8_t_D_2.0.png	 D	 t	 l	 n.a.	 1.256233e+00
5	 1	 198	 flanked	 rf	 4	 0.425000	 2.000000	 flanked_rf_freq_4_amplitude_0.425_rep_9_l_K_2.0.png	 K	 l	 r	 n.a.	 3.915078e-01
5	 1	 199	 flanked	 rf	 4	 0.200000	 2.000000	 flanked_rf_freq_4_amplitude_0.2_rep_0_l_N_2.0.png	 N	 l	 t	 n.a.	 3.843277e-01
5	 1	 200	 flanked	 rf	 4	 0.350000	 2.000000	 flanked_rf_freq_4_amplitude_0.35_rep_2_t_D_2.0.png	 D	 t	 t	 n.a.	 4.001419e-01
5	 1	 201	 flanked	 rf	 4	 0.125000	 2.000000	 flanked_rf_freq_4_amplitude_0.125_rep_6_l_K_2.0.png	 K	 l	 t	 n.a.	 9.689432e-01
5	 1	 202	 flanked	 rf	 4	 0.500000	 2.000000	 flanked_rf_freq_4_amplitude_0.5_rep_2_b_D_2.0.png	 D	 b	 b	 n.a.	 4.252925e-01
5	 1	 203	 flanked	 rf	 4	 0.200000	 2.000000	 flanked_rf_freq_4_amplitude_0.2_rep_9_b_N_2.0.png	 N	 b	 b	 n.a.	 6.465978e-01
5	 1	 204	 flanked	 rf	 4	 0.050000	 2.000000	 flanked_rf_freq_4_amplitude_0.05_rep_9_l_D_2.0.png	 D	 l	 b	 n.a.	 6.413874e-01
5	 1	 205	 flanked	 rf	 4	 0.350000	 2.000000	 flanked_rf_freq_4_amplitude_0.35_rep_7_r_H_2.0.png	 H	 r	 r	 n.a.	 1.384021e+00
5	 1	 206	 flanked	 rf	 4	 0.425000	 2.000000	 flanked_rf_freq_4_amplitude_0.425_rep_9_l_K_2.0.png	 K	 l	 l	 n.a.	 1.424066e+00
5	 1	 207	 flanked	 rf	 4	 0.500000	 2.000000	 flanked_rf_freq_4_amplitude_0.5_rep_9_b_N_2.0.png	 N	 b	 b	 n.a.	 1.101068e+00
5	 1	 208	 flanked	 rf	 4	 0.275000	 2.000000	 flanked_rf_freq_4_amplitude_0.275_rep_3_l_K_2.0.png	 K	 l	 t	 n.a.	 1.027962e+00
5	 1	 209	 flanked	 rf	 4	 0.350000	 2.000000	 flanked_rf_freq_4_amplitude_0.35_rep_3_b_H_2.0.png	 H	 b	 r	 n.a.	 5.872138e-01
5	 1	 210	 flanked	 rf	 4	 0.350000	 2.000000	 flanked_rf_freq_4_amplitude_0.35_rep_4_l_K_2.0.png	 K	 l	 t	 n.a.	 8.108293e-01
