subject	 session	 trial	 flanked	 distortion	 freq	 amplitude	 spacing	 im_name	 targ_letter	 targ_pos	 response	 eyemovement	 RT
7	 1	 1	 flanked	 bex	 4	 7.000000	 2.000000	 flanked_bex_freq_4_amplitude_7_rep_6_l_K_2.0.png	 K	 l	 t	 n.a.	 8.140476e-01
7	 1	 2	 flanked	 bex	 4	 7.000000	 2.000000	 flanked_bex_freq_4_amplitude_7_rep_7_t_K_2.0.png	 K	 t	 l	 n.a.	 5.829002e-01
7	 1	 3	 flanked	 bex	 4	 7.000000	 2.000000	 flanked_bex_freq_4_amplitude_7_rep_8_r_D_2.0.png	 D	 r	 r	 n.a.	 4.318045e-01
7	 1	 4	 flanked	 bex	 4	 1.000000	 2.000000	 flanked_bex_freq_4_amplitude_1_rep_7_r_D_2.0.png	 D	 r	 t	 n.a.	 7.787853e-01
7	 1	 5	 flanked	 bex	 4	 4.000000	 2.000000	 flanked_bex_freq_4_amplitude_4_rep_4_l_K_2.0.png	 K	 l	 l	 n.a.	 5.316021e-01
7	 1	 6	 flanked	 bex	 4	 2.000000	 2.000000	 flanked_bex_freq_4_amplitude_2_rep_4_l_D_2.0.png	 D	 l	 l	 n.a.	 9.841353e-01
7	 1	 7	 flanked	 bex	 4	 5.000000	 2.000000	 flanked_bex_freq_4_amplitude_5_rep_5_l_H_2.0.png	 H	 l	 l	 n.a.	 6.870382e-01
7	 1	 8	 flanked	 bex	 4	 7.000000	 2.000000	 flanked_bex_freq_4_amplitude_7_rep_4_l_H_2.0.png	 H	 l	 l	 n.a.	 5.150154e-01
7	 1	 9	 flanked	 bex	 4	 4.000000	 2.000000	 flanked_bex_freq_4_amplitude_4_rep_3_t_H_2.0.png	 H	 t	 t	 n.a.	 5.585707e-01
7	 1	 10	 flanked	 bex	 4	 2.000000	 2.000000	 flanked_bex_freq_4_amplitude_2_rep_1_b_N_2.0.png	 N	 b	 b	 n.a.	 6.772352e-01
7	 1	 11	 flanked	 bex	 4	 2.000000	 2.000000	 flanked_bex_freq_4_amplitude_2_rep_3_l_K_2.0.png	 K	 l	 t	 n.a.	 7.511878e-01
7	 1	 12	 flanked	 bex	 4	 6.000000	 2.000000	 flanked_bex_freq_4_amplitude_6_rep_7_r_D_2.0.png	 D	 r	 r	 n.a.	 5.568968e-01
7	 1	 13	 flanked	 bex	 4	 6.000000	 2.000000	 flanked_bex_freq_4_amplitude_6_rep_5_r_H_2.0.png	 H	 r	 r	 n.a.	 5.753012e-01
7	 1	 14	 flanked	 bex	 4	 5.000000	 2.000000	 flanked_bex_freq_4_amplitude_5_rep_8_l_D_2.0.png	 D	 l	 t	 n.a.	 6.633143e-01
7	 1	 15	 flanked	 bex	 4	 1.000000	 2.000000	 flanked_bex_freq_4_amplitude_1_rep_5_t_K_2.0.png	 K	 t	 b	 n.a.	 6.397905e-01
7	 1	 16	 flanked	 bex	 4	 6.000000	 2.000000	 flanked_bex_freq_4_amplitude_6_rep_1_b_H_2.0.png	 H	 b	 r	 n.a.	 6.249650e-01
7	 1	 17	 flanked	 bex	 4	 1.000000	 2.000000	 flanked_bex_freq_4_amplitude_1_rep_7_r_D_2.0.png	 D	 r	 l	 n.a.	 7.151436e-01
7	 1	 18	 flanked	 bex	 4	 1.000000	 2.000000	 flanked_bex_freq_4_amplitude_1_rep_7_r_D_2.0.png	 D	 r	 l	 n.a.	 6.962984e-01
7	 1	 19	 flanked	 bex	 4	 6.000000	 2.000000	 flanked_bex_freq_4_amplitude_6_rep_7_r_D_2.0.png	 D	 r	 r	 n.a.	 5.311889e-01
7	 1	 20	 flanked	 bex	 4	 6.000000	 2.000000	 flanked_bex_freq_4_amplitude_6_rep_0_r_N_2.0.png	 N	 r	 t	 n.a.	 5.241003e-01
7	 1	 21	 flanked	 bex	 4	 4.000000	 2.000000	 flanked_bex_freq_4_amplitude_4_rep_5_t_N_2.0.png	 N	 t	 l	 n.a.	 5.703002e-01
7	 1	 22	 flanked	 bex	 4	 5.000000	 2.000000	 flanked_bex_freq_4_amplitude_5_rep_2_t_N_2.0.png	 N	 t	 b	 n.a.	 5.089489e-01
7	 1	 23	 flanked	 bex	 4	 1.000000	 2.000000	 flanked_bex_freq_4_amplitude_1_rep_2_r_H_2.0.png	 H	 r	 r	 n.a.	 5.865377e-01
7	 1	 24	 flanked	 bex	 4	 7.000000	 2.000000	 flanked_bex_freq_4_amplitude_7_rep_9_t_K_2.0.png	 K	 t	 t	 n.a.	 6.115142e-01
7	 1	 25	 flanked	 bex	 4	 2.000000	 2.000000	 flanked_bex_freq_4_amplitude_2_rep_7_t_N_2.0.png	 N	 t	 r	 n.a.	 5.919680e-01
7	 1	 26	 flanked	 bex	 4	 5.000000	 2.000000	 flanked_bex_freq_4_amplitude_5_rep_3_r_D_2.0.png	 D	 r	 r	 n.a.	 5.168491e-01
7	 1	 27	 flanked	 bex	 4	 4.000000	 2.000000	 flanked_bex_freq_4_amplitude_4_rep_9_t_N_2.0.png	 N	 t	 r	 n.a.	 6.627876e-01
7	 1	 28	 flanked	 bex	 4	 4.000000	 2.000000	 flanked_bex_freq_4_amplitude_4_rep_3_t_H_2.0.png	 H	 t	 b	 n.a.	 5.833453e-01
7	 1	 29	 flanked	 bex	 4	 4.000000	 2.000000	 flanked_bex_freq_4_amplitude_4_rep_0_t_H_2.0.png	 H	 t	 l	 n.a.	 4.823451e-01
7	 1	 30	 flanked	 bex	 4	 6.000000	 2.000000	 flanked_bex_freq_4_amplitude_6_rep_3_b_K_2.0.png	 K	 b	 l	 n.a.	 6.997347e-01
7	 1	 31	 flanked	 bex	 4	 3.000000	 2.000000	 flanked_bex_freq_4_amplitude_3_rep_7_r_D_2.0.png	 D	 r	 r	 n.a.	 5.181150e-01
7	 1	 32	 flanked	 bex	 4	 5.000000	 2.000000	 flanked_bex_freq_4_amplitude_5_rep_7_t_N_2.0.png	 N	 t	 t	 n.a.	 9.326105e-01
7	 1	 33	 flanked	 bex	 4	 3.000000	 2.000000	 flanked_bex_freq_4_amplitude_3_rep_5_b_K_2.0.png	 K	 b	 t	 n.a.	 8.793017e-01
7	 1	 34	 flanked	 bex	 4	 4.000000	 2.000000	 flanked_bex_freq_4_amplitude_4_rep_1_t_K_2.0.png	 K	 t	 r	 n.a.	 6.563369e-01
7	 1	 35	 flanked	 bex	 4	 2.000000	 2.000000	 flanked_bex_freq_4_amplitude_2_rep_4_l_D_2.0.png	 D	 l	 b	 n.a.	 4.851362e-01
7	 1	 36	 flanked	 bex	 4	 4.000000	 2.000000	 flanked_bex_freq_4_amplitude_4_rep_2_t_K_2.0.png	 K	 t	 r	 n.a.	 6.254474e-01
7	 1	 37	 flanked	 bex	 4	 1.000000	 2.000000	 flanked_bex_freq_4_amplitude_1_rep_4_l_N_2.0.png	 N	 l	 t	 n.a.	 5.877117e-01
7	 1	 38	 flanked	 bex	 4	 6.000000	 2.000000	 flanked_bex_freq_4_amplitude_6_rep_4_l_H_2.0.png	 H	 l	 l	 n.a.	 4.240889e-01
7	 1	 39	 flanked	 bex	 4	 5.000000	 2.000000	 flanked_bex_freq_4_amplitude_5_rep_4_t_D_2.0.png	 D	 t	 l	 n.a.	 6.879120e-01
7	 1	 40	 flanked	 bex	 4	 7.000000	 2.000000	 flanked_bex_freq_4_amplitude_7_rep_3_t_N_2.0.png	 N	 t	 r	 n.a.	 6.587072e-01
7	 1	 41	 flanked	 bex	 4	 2.000000	 2.000000	 flanked_bex_freq_4_amplitude_2_rep_1_b_N_2.0.png	 N	 b	 b	 n.a.	 4.928264e-01
7	 1	 42	 flanked	 bex	 4	 6.000000	 2.000000	 flanked_bex_freq_4_amplitude_6_rep_9_b_D_2.0.png	 D	 b	 b	 n.a.	 5.848965e-01
7	 1	 43	 flanked	 bex	 4	 7.000000	 2.000000	 flanked_bex_freq_4_amplitude_7_rep_1_l_K_2.0.png	 K	 l	 t	 n.a.	 7.362105e-01
7	 1	 44	 flanked	 bex	 4	 6.000000	 2.000000	 flanked_bex_freq_4_amplitude_6_rep_5_r_H_2.0.png	 H	 r	 l	 n.a.	 8.788789e-01
7	 1	 45	 flanked	 bex	 4	 4.000000	 2.000000	 flanked_bex_freq_4_amplitude_4_rep_1_t_K_2.0.png	 K	 t	 r	 n.a.	 7.852253e-01
7	 1	 46	 flanked	 bex	 4	 5.000000	 2.000000	 flanked_bex_freq_4_amplitude_5_rep_3_r_D_2.0.png	 D	 r	 r	 n.a.	 6.807942e-01
7	 1	 47	 flanked	 bex	 4	 6.000000	 2.000000	 flanked_bex_freq_4_amplitude_6_rep_9_b_D_2.0.png	 D	 b	 b	 n.a.	 5.988706e-01
7	 1	 48	 flanked	 bex	 4	 3.000000	 2.000000	 flanked_bex_freq_4_amplitude_3_rep_3_r_K_2.0.png	 K	 r	 r	 n.a.	 5.681180e-01
7	 1	 49	 flanked	 bex	 4	 7.000000	 2.000000	 flanked_bex_freq_4_amplitude_7_rep_6_l_K_2.0.png	 K	 l	 l	 n.a.	 6.418707e-01
7	 1	 50	 flanked	 bex	 4	 7.000000	 2.000000	 flanked_bex_freq_4_amplitude_7_rep_0_b_N_2.0.png	 N	 b	 t	 n.a.	 6.845097e-01
7	 1	 51	 flanked	 bex	 4	 2.000000	 2.000000	 flanked_bex_freq_4_amplitude_2_rep_5_t_N_2.0.png	 N	 t	 l	 n.a.	 6.203478e-01
7	 1	 52	 flanked	 bex	 4	 2.000000	 2.000000	 flanked_bex_freq_4_amplitude_2_rep_1_b_N_2.0.png	 N	 b	 b	 n.a.	 6.582362e-01
7	 1	 53	 flanked	 bex	 4	 6.000000	 2.000000	 flanked_bex_freq_4_amplitude_6_rep_8_b_N_2.0.png	 N	 b	 b	 n.a.	 6.435865e-01
7	 1	 54	 flanked	 bex	 4	 5.000000	 2.000000	 flanked_bex_freq_4_amplitude_5_rep_7_t_N_2.0.png	 N	 t	 r	 n.a.	 6.280476e-01
7	 1	 55	 flanked	 bex	 4	 2.000000	 2.000000	 flanked_bex_freq_4_amplitude_2_rep_0_t_D_2.0.png	 D	 t	 r	 n.a.	 8.371474e-01
7	 1	 56	 flanked	 bex	 4	 4.000000	 2.000000	 flanked_bex_freq_4_amplitude_4_rep_6_t_H_2.0.png	 H	 t	 t	 n.a.	 7.367833e-01
7	 1	 57	 flanked	 bex	 4	 1.000000	 2.000000	 flanked_bex_freq_4_amplitude_1_rep_1_t_D_2.0.png	 D	 t	 l	 n.a.	 9.668041e-01
7	 1	 58	 flanked	 bex	 4	 5.000000	 2.000000	 flanked_bex_freq_4_amplitude_5_rep_1_r_D_2.0.png	 D	 r	 r	 n.a.	 6.751939e-01
7	 1	 59	 flanked	 bex	 4	 2.000000	 2.000000	 flanked_bex_freq_4_amplitude_2_rep_0_t_D_2.0.png	 D	 t	 t	 n.a.	 7.161083e-01
7	 1	 60	 flanked	 bex	 4	 6.000000	 2.000000	 flanked_bex_freq_4_amplitude_6_rep_3_b_K_2.0.png	 K	 b	 t	 n.a.	 8.173639e-01
7	 1	 61	 flanked	 bex	 4	 3.000000	 2.000000	 flanked_bex_freq_4_amplitude_3_rep_1_l_N_2.0.png	 N	 l	 l	 n.a.	 5.816600e-01
7	 1	 62	 flanked	 bex	 4	 7.000000	 2.000000	 flanked_bex_freq_4_amplitude_7_rep_2_r_D_2.0.png	 D	 r	 r	 n.a.	 7.244217e-01
7	 1	 63	 flanked	 bex	 4	 3.000000	 2.000000	 flanked_bex_freq_4_amplitude_3_rep_7_r_D_2.0.png	 D	 r	 r	 n.a.	 6.571377e-01
7	 1	 64	 flanked	 bex	 4	 2.000000	 2.000000	 flanked_bex_freq_4_amplitude_2_rep_8_r_D_2.0.png	 D	 r	 r	 n.a.	 5.722810e-01
7	 1	 65	 flanked	 bex	 4	 3.000000	 2.000000	 flanked_bex_freq_4_amplitude_3_rep_0_b_N_2.0.png	 N	 b	 r	 n.a.	 6.908675e-01
7	 1	 66	 flanked	 bex	 4	 7.000000	 2.000000	 flanked_bex_freq_4_amplitude_7_rep_3_t_N_2.0.png	 N	 t	 t	 n.a.	 6.312876e-01
7	 1	 67	 flanked	 bex	 4	 6.000000	 2.000000	 flanked_bex_freq_4_amplitude_6_rep_6_b_K_2.0.png	 K	 b	 b	 n.a.	 6.336839e-01
7	 1	 68	 flanked	 bex	 4	 5.000000	 2.000000	 flanked_bex_freq_4_amplitude_5_rep_9_t_K_2.0.png	 K	 t	 b	 n.a.	 7.895926e-01
7	 1	 69	 flanked	 bex	 4	 1.000000	 2.000000	 flanked_bex_freq_4_amplitude_1_rep_4_l_N_2.0.png	 N	 l	 t	 n.a.	 6.625642e-01
7	 1	 70	 flanked	 bex	 4	 4.000000	 2.000000	 flanked_bex_freq_4_amplitude_4_rep_9_t_N_2.0.png	 N	 t	 l	 n.a.	 4.683376e-01
7	 1	 71	 flanked	 bex	 4	 2.000000	 2.000000	 flanked_bex_freq_4_amplitude_2_rep_4_l_D_2.0.png	 D	 l	 r	 n.a.	 4.079654e-01
7	 1	 72	 flanked	 bex	 4	 5.000000	 2.000000	 flanked_bex_freq_4_amplitude_5_rep_6_l_N_2.0.png	 N	 l	 l	 n.a.	 4.903309e-01
7	 1	 73	 flanked	 bex	 4	 6.000000	 2.000000	 flanked_bex_freq_4_amplitude_6_rep_9_b_D_2.0.png	 D	 b	 b	 n.a.	 4.863158e-01
7	 1	 74	 flanked	 bex	 4	 5.000000	 2.000000	 flanked_bex_freq_4_amplitude_5_rep_7_t_N_2.0.png	 N	 t	 b	 n.a.	 6.592367e-01
7	 1	 75	 flanked	 bex	 4	 7.000000	 2.000000	 flanked_bex_freq_4_amplitude_7_rep_2_r_D_2.0.png	 D	 r	 r	 n.a.	 3.991344e-01
7	 1	 76	 flanked	 bex	 4	 6.000000	 2.000000	 flanked_bex_freq_4_amplitude_6_rep_2_r_H_2.0.png	 H	 r	 r	 n.a.	 4.529202e-01
7	 1	 77	 flanked	 bex	 4	 1.000000	 2.000000	 flanked_bex_freq_4_amplitude_1_rep_4_l_N_2.0.png	 N	 l	 t	 n.a.	 4.894427e-01
7	 1	 78	 flanked	 bex	 4	 3.000000	 2.000000	 flanked_bex_freq_4_amplitude_3_rep_3_r_K_2.0.png	 K	 r	 r	 n.a.	 3.635647e-01
7	 1	 79	 flanked	 bex	 4	 1.000000	 2.000000	 flanked_bex_freq_4_amplitude_1_rep_2_r_H_2.0.png	 H	 r	 b	 n.a.	 5.026652e-01
7	 1	 80	 flanked	 bex	 4	 1.000000	 2.000000	 flanked_bex_freq_4_amplitude_1_rep_6_r_N_2.0.png	 N	 r	 t	 n.a.	 5.806506e-01
7	 1	 81	 flanked	 bex	 4	 4.000000	 2.000000	 flanked_bex_freq_4_amplitude_4_rep_0_t_H_2.0.png	 H	 t	 l	 n.a.	 6.542433e-01
7	 1	 82	 flanked	 bex	 4	 4.000000	 2.000000	 flanked_bex_freq_4_amplitude_4_rep_1_t_K_2.0.png	 K	 t	 b	 n.a.	 3.929036e-01
7	 1	 83	 flanked	 bex	 4	 3.000000	 2.000000	 flanked_bex_freq_4_amplitude_3_rep_4_l_D_2.0.png	 D	 l	 l	 n.a.	 3.688433e-01
7	 1	 84	 flanked	 bex	 4	 6.000000	 2.000000	 flanked_bex_freq_4_amplitude_6_rep_7_r_D_2.0.png	 D	 r	 r	 n.a.	 3.700176e-01
7	 1	 85	 flanked	 bex	 4	 3.000000	 2.000000	 flanked_bex_freq_4_amplitude_3_rep_2_t_H_2.0.png	 H	 t	 b	 n.a.	 5.518822e-01
7	 1	 86	 flanked	 bex	 4	 6.000000	 2.000000	 flanked_bex_freq_4_amplitude_6_rep_1_b_H_2.0.png	 H	 b	 r	 n.a.	 3.014334e-01
7	 1	 87	 flanked	 bex	 4	 5.000000	 2.000000	 flanked_bex_freq_4_amplitude_5_rep_4_t_D_2.0.png	 D	 t	 l	 n.a.	 3.364213e-01
7	 1	 88	 flanked	 bex	 4	 3.000000	 2.000000	 flanked_bex_freq_4_amplitude_3_rep_8_r_H_2.0.png	 H	 r	 r	 n.a.	 3.958372e-01
7	 1	 89	 flanked	 bex	 4	 3.000000	 2.000000	 flanked_bex_freq_4_amplitude_3_rep_6_r_K_2.0.png	 K	 r	 t	 n.a.	 6.091720e-01
7	 1	 90	 flanked	 bex	 4	 2.000000	 2.000000	 flanked_bex_freq_4_amplitude_2_rep_8_r_D_2.0.png	 D	 r	 r	 n.a.	 3.863205e-01
7	 1	 91	 flanked	 bex	 4	 4.000000	 2.000000	 flanked_bex_freq_4_amplitude_4_rep_7_r_K_2.0.png	 K	 r	 r	 n.a.	 4.694929e-01
7	 1	 92	 flanked	 bex	 4	 1.000000	 2.000000	 flanked_bex_freq_4_amplitude_1_rep_9_b_N_2.0.png	 N	 b	 r	 n.a.	 6.221635e-01
7	 1	 93	 flanked	 bex	 4	 5.000000	 2.000000	 flanked_bex_freq_4_amplitude_5_rep_8_l_D_2.0.png	 D	 l	 l	 n.a.	 4.825491e-01
7	 1	 94	 flanked	 bex	 4	 7.000000	 2.000000	 flanked_bex_freq_4_amplitude_7_rep_4_l_H_2.0.png	 H	 l	 l	 n.a.	 4.628538e-01
7	 1	 95	 flanked	 bex	 4	 5.000000	 2.000000	 flanked_bex_freq_4_amplitude_5_rep_9_t_K_2.0.png	 K	 t	 t	 n.a.	 5.185682e-01
7	 1	 96	 flanked	 bex	 4	 2.000000	 2.000000	 flanked_bex_freq_4_amplitude_2_rep_5_t_N_2.0.png	 N	 t	 l	 n.a.	 6.500694e-01
7	 1	 97	 flanked	 bex	 4	 4.000000	 2.000000	 flanked_bex_freq_4_amplitude_4_rep_4_l_K_2.0.png	 K	 l	 l	 n.a.	 4.200578e-01
7	 1	 98	 flanked	 bex	 4	 2.000000	 2.000000	 flanked_bex_freq_4_amplitude_2_rep_3_l_K_2.0.png	 K	 l	 t	 n.a.	 4.731570e-01
7	 1	 99	 flanked	 bex	 4	 5.000000	 2.000000	 flanked_bex_freq_4_amplitude_5_rep_0_b_K_2.0.png	 K	 b	 b	 n.a.	 4.062371e-01
7	 1	 100	 flanked	 bex	 4	 7.000000	 2.000000	 flanked_bex_freq_4_amplitude_7_rep_1_l_K_2.0.png	 K	 l	 l	 n.a.	 3.684855e-01
7	 1	 101	 flanked	 bex	 4	 3.000000	 2.000000	 flanked_bex_freq_4_amplitude_3_rep_8_r_H_2.0.png	 H	 r	 l	 n.a.	 6.191590e-01
7	 1	 102	 flanked	 bex	 4	 1.000000	 2.000000	 flanked_bex_freq_4_amplitude_1_rep_9_b_N_2.0.png	 N	 b	 b	 n.a.	 7.143723e-01
7	 1	 103	 flanked	 bex	 4	 1.000000	 2.000000	 flanked_bex_freq_4_amplitude_1_rep_0_r_D_2.0.png	 D	 r	 t	 n.a.	 7.983151e-01
7	 1	 104	 flanked	 bex	 4	 4.000000	 2.000000	 flanked_bex_freq_4_amplitude_4_rep_6_t_H_2.0.png	 H	 t	 b	 n.a.	 4.239849e-01
7	 1	 105	 flanked	 bex	 4	 1.000000	 2.000000	 flanked_bex_freq_4_amplitude_1_rep_1_t_D_2.0.png	 D	 t	 l	 n.a.	 4.509244e-01
7	 1	 106	 flanked	 bex	 4	 7.000000	 2.000000	 flanked_bex_freq_4_amplitude_7_rep_2_r_D_2.0.png	 D	 r	 r	 n.a.	 3.729130e-01
7	 1	 107	 flanked	 bex	 4	 4.000000	 2.000000	 flanked_bex_freq_4_amplitude_4_rep_3_t_H_2.0.png	 H	 t	 l	 n.a.	 5.522311e-01
7	 1	 108	 flanked	 bex	 4	 1.000000	 2.000000	 flanked_bex_freq_4_amplitude_1_rep_8_r_N_2.0.png	 N	 r	 l	 n.a.	 5.331451e-01
7	 1	 109	 flanked	 bex	 4	 2.000000	 2.000000	 flanked_bex_freq_4_amplitude_2_rep_2_l_H_2.0.png	 H	 l	 l	 n.a.	 4.813602e-01
7	 1	 110	 flanked	 bex	 4	 6.000000	 2.000000	 flanked_bex_freq_4_amplitude_6_rep_2_r_H_2.0.png	 H	 r	 r	 n.a.	 4.980906e-01
7	 1	 111	 flanked	 bex	 4	 3.000000	 2.000000	 flanked_bex_freq_4_amplitude_3_rep_3_r_K_2.0.png	 K	 r	 t	 n.a.	 7.244472e-01
7	 1	 112	 flanked	 bex	 4	 6.000000	 2.000000	 flanked_bex_freq_4_amplitude_6_rep_5_r_H_2.0.png	 H	 r	 r	 n.a.	 3.602266e-01
7	 1	 113	 flanked	 bex	 4	 1.000000	 2.000000	 flanked_bex_freq_4_amplitude_1_rep_8_r_N_2.0.png	 N	 r	 l	 n.a.	 5.847118e-01
7	 1	 114	 flanked	 bex	 4	 3.000000	 2.000000	 flanked_bex_freq_4_amplitude_3_rep_9_b_K_2.0.png	 K	 b	 t	 n.a.	 7.488947e-01
7	 1	 115	 flanked	 bex	 4	 3.000000	 2.000000	 flanked_bex_freq_4_amplitude_3_rep_4_l_D_2.0.png	 D	 l	 l	 n.a.	 3.672437e-01
7	 1	 116	 flanked	 bex	 4	 3.000000	 2.000000	 flanked_bex_freq_4_amplitude_3_rep_6_r_K_2.0.png	 K	 r	 r	 n.a.	 3.941008e-01
7	 1	 117	 flanked	 bex	 4	 2.000000	 2.000000	 flanked_bex_freq_4_amplitude_2_rep_7_t_N_2.0.png	 N	 t	 l	 n.a.	 4.651005e-01
7	 1	 118	 flanked	 bex	 4	 5.000000	 2.000000	 flanked_bex_freq_4_amplitude_5_rep_9_t_K_2.0.png	 K	 t	 t	 n.a.	 3.550467e-01
7	 1	 119	 flanked	 bex	 4	 5.000000	 2.000000	 flanked_bex_freq_4_amplitude_5_rep_8_l_D_2.0.png	 D	 l	 l	 n.a.	 2.857995e-01
7	 1	 120	 flanked	 bex	 4	 2.000000	 2.000000	 flanked_bex_freq_4_amplitude_2_rep_7_t_N_2.0.png	 N	 t	 r	 n.a.	 4.615409e-01
7	 1	 121	 flanked	 bex	 4	 4.000000	 2.000000	 flanked_bex_freq_4_amplitude_4_rep_5_t_N_2.0.png	 N	 t	 l	 n.a.	 4.073130e-01
7	 1	 122	 flanked	 bex	 4	 5.000000	 2.000000	 flanked_bex_freq_4_amplitude_5_rep_6_l_N_2.0.png	 N	 l	 l	 n.a.	 3.691729e-01
7	 1	 123	 flanked	 bex	 4	 4.000000	 2.000000	 flanked_bex_freq_4_amplitude_4_rep_6_t_H_2.0.png	 H	 t	 l	 n.a.	 5.699187e-01
7	 1	 124	 flanked	 bex	 4	 6.000000	 2.000000	 flanked_bex_freq_4_amplitude_6_rep_8_b_N_2.0.png	 N	 b	 b	 n.a.	 6.320091e-01
7	 1	 125	 flanked	 bex	 4	 2.000000	 2.000000	 flanked_bex_freq_4_amplitude_2_rep_9_l_D_2.0.png	 D	 l	 l	 n.a.	 4.730045e-01
7	 1	 126	 flanked	 bex	 4	 1.000000	 2.000000	 flanked_bex_freq_4_amplitude_1_rep_5_t_K_2.0.png	 K	 t	 t	 n.a.	 4.925676e-01
7	 1	 127	 flanked	 bex	 4	 1.000000	 2.000000	 flanked_bex_freq_4_amplitude_1_rep_5_t_K_2.0.png	 K	 t	 t	 n.a.	 5.997858e-01
7	 1	 128	 flanked	 bex	 4	 2.000000	 2.000000	 flanked_bex_freq_4_amplitude_2_rep_3_l_K_2.0.png	 K	 l	 t	 n.a.	 5.396470e-01
7	 1	 129	 flanked	 bex	 4	 4.000000	 2.000000	 flanked_bex_freq_4_amplitude_4_rep_8_r_D_2.0.png	 D	 r	 r	 n.a.	 3.860378e-01
7	 1	 130	 flanked	 bex	 4	 7.000000	 2.000000	 flanked_bex_freq_4_amplitude_7_rep_7_t_K_2.0.png	 K	 t	 l	 n.a.	 4.313051e-01
7	 1	 131	 flanked	 bex	 4	 3.000000	 2.000000	 flanked_bex_freq_4_amplitude_3_rep_0_b_N_2.0.png	 N	 b	 b	 n.a.	 3.951895e-01
7	 1	 132	 flanked	 bex	 4	 2.000000	 2.000000	 flanked_bex_freq_4_amplitude_2_rep_0_t_D_2.0.png	 D	 t	 r	 n.a.	 4.479212e-01
7	 1	 133	 flanked	 bex	 4	 7.000000	 2.000000	 flanked_bex_freq_4_amplitude_7_rep_0_b_N_2.0.png	 N	 b	 l	 n.a.	 3.368713e-01
7	 1	 134	 flanked	 bex	 4	 2.000000	 2.000000	 flanked_bex_freq_4_amplitude_2_rep_6_l_D_2.0.png	 D	 l	 l	 n.a.	 4.573685e-01
7	 1	 135	 flanked	 bex	 4	 2.000000	 2.000000	 flanked_bex_freq_4_amplitude_2_rep_9_l_D_2.0.png	 D	 l	 l	 n.a.	 4.163527e-01
7	 1	 136	 flanked	 bex	 4	 3.000000	 2.000000	 flanked_bex_freq_4_amplitude_3_rep_1_l_N_2.0.png	 N	 l	 l	 n.a.	 3.591835e-01
7	 1	 137	 flanked	 bex	 4	 3.000000	 2.000000	 flanked_bex_freq_4_amplitude_3_rep_5_b_K_2.0.png	 K	 b	 l	 n.a.	 4.962388e-01
7	 1	 138	 flanked	 bex	 4	 4.000000	 2.000000	 flanked_bex_freq_4_amplitude_4_rep_0_t_H_2.0.png	 H	 t	 t	 n.a.	 4.781187e-01
7	 1	 139	 flanked	 bex	 4	 4.000000	 2.000000	 flanked_bex_freq_4_amplitude_4_rep_7_r_K_2.0.png	 K	 r	 t	 n.a.	 7.842514e-01
7	 1	 140	 flanked	 bex	 4	 7.000000	 2.000000	 flanked_bex_freq_4_amplitude_7_rep_9_t_K_2.0.png	 K	 t	 l	 n.a.	 5.205976e-01
7	 1	 141	 flanked	 bex	 4	 7.000000	 2.000000	 flanked_bex_freq_4_amplitude_7_rep_9_t_K_2.0.png	 K	 t	 r	 n.a.	 4.678164e-01
7	 1	 142	 flanked	 bex	 4	 7.000000	 2.000000	 flanked_bex_freq_4_amplitude_7_rep_6_l_K_2.0.png	 K	 l	 l	 n.a.	 2.883638e-01
7	 1	 143	 flanked	 bex	 4	 6.000000	 2.000000	 flanked_bex_freq_4_amplitude_6_rep_2_r_H_2.0.png	 H	 r	 r	 n.a.	 4.550752e-01
7	 1	 144	 flanked	 bex	 4	 3.000000	 2.000000	 flanked_bex_freq_4_amplitude_3_rep_2_t_H_2.0.png	 H	 t	 l	 n.a.	 4.971633e-01
7	 1	 145	 flanked	 bex	 4	 4.000000	 2.000000	 flanked_bex_freq_4_amplitude_4_rep_2_t_K_2.0.png	 K	 t	 r	 n.a.	 4.250268e-01
7	 1	 146	 flanked	 bex	 4	 1.000000	 2.000000	 flanked_bex_freq_4_amplitude_1_rep_6_r_N_2.0.png	 N	 r	 t	 n.a.	 3.315816e-01
7	 1	 147	 flanked	 bex	 4	 6.000000	 2.000000	 flanked_bex_freq_4_amplitude_6_rep_6_b_K_2.0.png	 K	 b	 b	 n.a.	 2.871006e-01
7	 1	 148	 flanked	 bex	 4	 7.000000	 2.000000	 flanked_bex_freq_4_amplitude_7_rep_0_b_N_2.0.png	 N	 b	 r	 n.a.	 7.076393e-01
7	 1	 149	 flanked	 bex	 4	 4.000000	 2.000000	 flanked_bex_freq_4_amplitude_4_rep_9_t_N_2.0.png	 N	 t	 l	 n.a.	 6.581158e-01
7	 1	 150	 flanked	 bex	 4	 3.000000	 2.000000	 flanked_bex_freq_4_amplitude_3_rep_0_b_N_2.0.png	 N	 b	 b	 n.a.	 5.979917e-01
7	 1	 151	 flanked	 bex	 4	 2.000000	 2.000000	 flanked_bex_freq_4_amplitude_2_rep_9_l_D_2.0.png	 D	 l	 l	 n.a.	 8.648423e-01
7	 1	 152	 flanked	 bex	 4	 1.000000	 2.000000	 flanked_bex_freq_4_amplitude_1_rep_8_r_N_2.0.png	 N	 r	 t	 n.a.	 6.505399e-01
7	 1	 153	 flanked	 bex	 4	 5.000000	 2.000000	 flanked_bex_freq_4_amplitude_5_rep_2_t_N_2.0.png	 N	 t	 r	 n.a.	 6.058823e-01
7	 1	 154	 flanked	 bex	 4	 4.000000	 2.000000	 flanked_bex_freq_4_amplitude_4_rep_8_r_D_2.0.png	 D	 r	 b	 n.a.	 4.871796e-01
7	 1	 155	 flanked	 bex	 4	 5.000000	 2.000000	 flanked_bex_freq_4_amplitude_5_rep_6_l_N_2.0.png	 N	 l	 l	 n.a.	 3.205865e-01
7	 1	 156	 flanked	 bex	 4	 5.000000	 2.000000	 flanked_bex_freq_4_amplitude_5_rep_4_t_D_2.0.png	 D	 t	 t	 n.a.	 8.051721e-01
7	 1	 157	 flanked	 bex	 4	 4.000000	 2.000000	 flanked_bex_freq_4_amplitude_4_rep_2_t_K_2.0.png	 K	 t	 b	 n.a.	 7.105506e-01
7	 1	 158	 flanked	 bex	 4	 5.000000	 2.000000	 flanked_bex_freq_4_amplitude_5_rep_0_b_K_2.0.png	 K	 b	 b	 n.a.	 6.935490e-01
7	 1	 159	 flanked	 bex	 4	 3.000000	 2.000000	 flanked_bex_freq_4_amplitude_3_rep_7_r_D_2.0.png	 D	 r	 r	 n.a.	 3.599645e-01
7	 1	 160	 flanked	 bex	 4	 1.000000	 2.000000	 flanked_bex_freq_4_amplitude_1_rep_6_r_N_2.0.png	 N	 r	 t	 n.a.	 5.711373e-01
7	 1	 161	 flanked	 bex	 4	 2.000000	 2.000000	 flanked_bex_freq_4_amplitude_2_rep_8_r_D_2.0.png	 D	 r	 r	 n.a.	 3.915689e-01
7	 1	 162	 flanked	 bex	 4	 3.000000	 2.000000	 flanked_bex_freq_4_amplitude_3_rep_4_l_D_2.0.png	 D	 l	 l	 n.a.	 3.565110e-01
7	 1	 163	 flanked	 bex	 4	 5.000000	 2.000000	 flanked_bex_freq_4_amplitude_5_rep_2_t_N_2.0.png	 N	 t	 t	 n.a.	 7.613502e-01
7	 1	 164	 flanked	 bex	 4	 2.000000	 2.000000	 flanked_bex_freq_4_amplitude_2_rep_5_t_N_2.0.png	 N	 t	 t	 n.a.	 8.440714e-01
7	 1	 165	 flanked	 bex	 4	 3.000000	 2.000000	 flanked_bex_freq_4_amplitude_3_rep_9_b_K_2.0.png	 K	 b	 b	 n.a.	 7.321048e-01
7	 1	 166	 flanked	 bex	 4	 6.000000	 2.000000	 flanked_bex_freq_4_amplitude_6_rep_0_r_N_2.0.png	 N	 r	 r	 n.a.	 4.946266e-01
7	 1	 167	 flanked	 bex	 4	 1.000000	 2.000000	 flanked_bex_freq_4_amplitude_1_rep_3_t_K_2.0.png	 K	 t	 t	 n.a.	 5.147137e-01
7	 1	 168	 flanked	 bex	 4	 6.000000	 2.000000	 flanked_bex_freq_4_amplitude_6_rep_8_b_N_2.0.png	 N	 b	 b	 n.a.	 4.951855e-01
7	 1	 169	 flanked	 bex	 4	 5.000000	 2.000000	 flanked_bex_freq_4_amplitude_5_rep_5_l_H_2.0.png	 H	 l	 l	 n.a.	 6.596275e-01
7	 1	 170	 flanked	 bex	 4	 6.000000	 2.000000	 flanked_bex_freq_4_amplitude_6_rep_0_r_N_2.0.png	 N	 r	 r	 n.a.	 5.411212e-01
7	 1	 171	 flanked	 bex	 4	 7.000000	 2.000000	 flanked_bex_freq_4_amplitude_7_rep_4_l_H_2.0.png	 H	 l	 l	 n.a.	 4.660324e-01
7	 1	 172	 flanked	 bex	 4	 7.000000	 2.000000	 flanked_bex_freq_4_amplitude_7_rep_1_l_K_2.0.png	 K	 l	 l	 n.a.	 5.595002e-01
7	 1	 173	 flanked	 bex	 4	 5.000000	 2.000000	 flanked_bex_freq_4_amplitude_5_rep_1_r_D_2.0.png	 D	 r	 r	 n.a.	 5.901954e-01
7	 1	 174	 flanked	 bex	 4	 6.000000	 2.000000	 flanked_bex_freq_4_amplitude_6_rep_1_b_H_2.0.png	 H	 b	 b	 n.a.	 7.488770e-01
7	 1	 175	 flanked	 bex	 4	 7.000000	 2.000000	 flanked_bex_freq_4_amplitude_7_rep_3_t_N_2.0.png	 N	 t	 t	 n.a.	 5.952125e-01
7	 1	 176	 flanked	 bex	 4	 2.000000	 2.000000	 flanked_bex_freq_4_amplitude_2_rep_2_l_H_2.0.png	 H	 l	 l	 n.a.	 5.001447e-01
7	 1	 177	 flanked	 bex	 4	 2.000000	 2.000000	 flanked_bex_freq_4_amplitude_2_rep_2_l_H_2.0.png	 H	 l	 l	 n.a.	 4.906614e-01
7	 1	 178	 flanked	 bex	 4	 3.000000	 2.000000	 flanked_bex_freq_4_amplitude_3_rep_9_b_K_2.0.png	 K	 b	 b	 n.a.	 6.454017e-01
7	 1	 179	 flanked	 bex	 4	 7.000000	 2.000000	 flanked_bex_freq_4_amplitude_7_rep_7_t_K_2.0.png	 K	 t	 t	 n.a.	 5.242728e-01
7	 1	 180	 flanked	 bex	 4	 3.000000	 2.000000	 flanked_bex_freq_4_amplitude_3_rep_5_b_K_2.0.png	 K	 b	 t	 n.a.	 7.891736e-01
7	 1	 181	 flanked	 bex	 4	 1.000000	 2.000000	 flanked_bex_freq_4_amplitude_1_rep_0_r_D_2.0.png	 D	 r	 r	 n.a.	 5.801203e-01
7	 1	 182	 flanked	 bex	 4	 1.000000	 2.000000	 flanked_bex_freq_4_amplitude_1_rep_2_r_H_2.0.png	 H	 r	 b	 n.a.	 6.789558e-01
7	 1	 183	 flanked	 bex	 4	 2.000000	 2.000000	 flanked_bex_freq_4_amplitude_2_rep_6_l_D_2.0.png	 D	 l	 l	 n.a.	 5.695581e-01
7	 1	 184	 flanked	 bex	 4	 4.000000	 2.000000	 flanked_bex_freq_4_amplitude_4_rep_5_t_N_2.0.png	 N	 t	 t	 n.a.	 5.939015e-01
7	 1	 185	 flanked	 bex	 4	 1.000000	 2.000000	 flanked_bex_freq_4_amplitude_1_rep_9_b_N_2.0.png	 N	 b	 b	 n.a.	 8.616810e-01
7	 1	 186	 flanked	 bex	 4	 3.000000	 2.000000	 flanked_bex_freq_4_amplitude_3_rep_8_r_H_2.0.png	 H	 r	 r	 n.a.	 6.229983e-01
7	 1	 187	 flanked	 bex	 4	 6.000000	 2.000000	 flanked_bex_freq_4_amplitude_6_rep_4_l_H_2.0.png	 H	 l	 l	 n.a.	 5.597707e-01
7	 1	 188	 flanked	 bex	 4	 6.000000	 2.000000	 flanked_bex_freq_4_amplitude_6_rep_6_b_K_2.0.png	 K	 b	 r	 n.a.	 5.545139e-01
7	 1	 189	 flanked	 bex	 4	 3.000000	 2.000000	 flanked_bex_freq_4_amplitude_3_rep_6_r_K_2.0.png	 K	 r	 t	 n.a.	 6.351791e-01
7	 1	 190	 flanked	 bex	 4	 7.000000	 2.000000	 flanked_bex_freq_4_amplitude_7_rep_8_r_D_2.0.png	 D	 r	 r	 n.a.	 5.016888e-01
7	 1	 191	 flanked	 bex	 4	 1.000000	 2.000000	 flanked_bex_freq_4_amplitude_1_rep_0_r_D_2.0.png	 D	 r	 r	 n.a.	 6.081413e-01
7	 1	 192	 flanked	 bex	 4	 4.000000	 2.000000	 flanked_bex_freq_4_amplitude_4_rep_7_r_K_2.0.png	 K	 r	 b	 n.a.	 7.184624e-01
7	 1	 193	 flanked	 bex	 4	 1.000000	 2.000000	 flanked_bex_freq_4_amplitude_1_rep_3_t_K_2.0.png	 K	 t	 t	 n.a.	 5.317122e-01
7	 1	 194	 flanked	 bex	 4	 7.000000	 2.000000	 flanked_bex_freq_4_amplitude_7_rep_5_r_D_2.0.png	 D	 r	 r	 n.a.	 6.606274e-01
7	 1	 195	 flanked	 bex	 4	 6.000000	 2.000000	 flanked_bex_freq_4_amplitude_6_rep_3_b_K_2.0.png	 K	 b	 l	 n.a.	 4.837872e-01
7	 1	 196	 flanked	 bex	 4	 5.000000	 2.000000	 flanked_bex_freq_4_amplitude_5_rep_1_r_D_2.0.png	 D	 r	 r	 n.a.	 4.416917e-01
7	 1	 197	 flanked	 bex	 4	 7.000000	 2.000000	 flanked_bex_freq_4_amplitude_7_rep_5_r_D_2.0.png	 D	 r	 r	 n.a.	 2.874277e-01
7	 1	 198	 flanked	 bex	 4	 3.000000	 2.000000	 flanked_bex_freq_4_amplitude_3_rep_2_t_H_2.0.png	 H	 t	 l	 n.a.	 4.018034e-01
7	 1	 199	 flanked	 bex	 4	 7.000000	 2.000000	 flanked_bex_freq_4_amplitude_7_rep_8_r_D_2.0.png	 D	 r	 r	 n.a.	 3.486556e-01
7	 1	 200	 flanked	 bex	 4	 1.000000	 2.000000	 flanked_bex_freq_4_amplitude_1_rep_1_t_D_2.0.png	 D	 t	 b	 n.a.	 6.567391e-01
7	 1	 201	 flanked	 bex	 4	 4.000000	 2.000000	 flanked_bex_freq_4_amplitude_4_rep_4_l_K_2.0.png	 K	 l	 l	 n.a.	 3.738474e-01
7	 1	 202	 flanked	 bex	 4	 3.000000	 2.000000	 flanked_bex_freq_4_amplitude_3_rep_1_l_N_2.0.png	 N	 l	 l	 n.a.	 6.085630e-01
7	 1	 203	 flanked	 bex	 4	 5.000000	 2.000000	 flanked_bex_freq_4_amplitude_5_rep_3_r_D_2.0.png	 D	 r	 r	 n.a.	 4.487891e-01
7	 1	 204	 flanked	 bex	 4	 7.000000	 2.000000	 flanked_bex_freq_4_amplitude_7_rep_5_r_D_2.0.png	 D	 r	 r	 n.a.	 4.928266e-01
7	 1	 205	 flanked	 bex	 4	 6.000000	 2.000000	 flanked_bex_freq_4_amplitude_6_rep_4_l_H_2.0.png	 H	 l	 l	 n.a.	 4.526323e-01
7	 1	 206	 flanked	 bex	 4	 5.000000	 2.000000	 flanked_bex_freq_4_amplitude_5_rep_5_l_H_2.0.png	 H	 l	 r	 n.a.	 4.207207e-01
7	 1	 207	 flanked	 bex	 4	 2.000000	 2.000000	 flanked_bex_freq_4_amplitude_2_rep_6_l_D_2.0.png	 D	 l	 t	 n.a.	 6.440208e-01
7	 1	 208	 flanked	 bex	 4	 4.000000	 2.000000	 flanked_bex_freq_4_amplitude_4_rep_8_r_D_2.0.png	 D	 r	 r	 n.a.	 3.819968e-01
7	 1	 209	 flanked	 bex	 4	 5.000000	 2.000000	 flanked_bex_freq_4_amplitude_5_rep_0_b_K_2.0.png	 K	 b	 l	 n.a.	 6.580785e-01
7	 1	 210	 flanked	 bex	 4	 1.000000	 2.000000	 flanked_bex_freq_4_amplitude_1_rep_3_t_K_2.0.png	 K	 t	 r	 n.a.	 7.050022e-01
