subject	 session	 trial	 flanked	 distortion	 freq	 amplitude	 spacing	 im_name	 targ_letter	 targ_pos	 response	 eyemovement	 RT
2	 1	 1	 flanked	 bex	 4	 1.000000	 2.000000	 flanked_bex_freq_4_amplitude_1_rep_2_r_H_2.0.png	 H	 r	 l	 n.a.	 5.455678e-01
2	 1	 2	 flanked	 bex	 4	 1.000000	 2.000000	 flanked_bex_freq_4_amplitude_1_rep_7_r_D_2.0.png	 D	 r	 b	 n.a.	 3.086529e-01
2	 1	 3	 flanked	 bex	 4	 1.000000	 2.000000	 flanked_bex_freq_4_amplitude_1_rep_5_t_K_2.0.png	 K	 t	 l	 n.a.	 4.614742e-01
2	 1	 4	 flanked	 bex	 4	 3.000000	 2.000000	 flanked_bex_freq_4_amplitude_3_rep_3_r_K_2.0.png	 K	 r	 b	 n.a.	 5.980411e-01
2	 1	 5	 flanked	 bex	 4	 3.000000	 2.000000	 flanked_bex_freq_4_amplitude_3_rep_9_b_K_2.0.png	 K	 b	 r	 n.a.	 8.604999e-01
2	 1	 6	 flanked	 bex	 4	 3.000000	 2.000000	 flanked_bex_freq_4_amplitude_3_rep_5_b_K_2.0.png	 K	 b	 t	 n.a.	 5.440807e-01
2	 1	 7	 flanked	 bex	 4	 7.000000	 2.000000	 flanked_bex_freq_4_amplitude_7_rep_3_t_N_2.0.png	 N	 t	 b	 n.a.	 1.001454e+00
2	 1	 8	 flanked	 bex	 4	 2.000000	 2.000000	 flanked_bex_freq_4_amplitude_2_rep_1_b_N_2.0.png	 N	 b	 r	 n.a.	 5.588934e-01
2	 1	 9	 flanked	 bex	 4	 4.000000	 2.000000	 flanked_bex_freq_4_amplitude_4_rep_1_t_K_2.0.png	 K	 t	 l	 n.a.	 4.301575e-01
2	 1	 10	 flanked	 bex	 4	 3.000000	 2.000000	 flanked_bex_freq_4_amplitude_3_rep_4_l_D_2.0.png	 D	 l	 t	 n.a.	 4.096252e-01
2	 1	 11	 flanked	 bex	 4	 6.000000	 2.000000	 flanked_bex_freq_4_amplitude_6_rep_0_r_N_2.0.png	 N	 r	 r	 n.a.	 3.566703e-01
2	 1	 12	 flanked	 bex	 4	 6.000000	 2.000000	 flanked_bex_freq_4_amplitude_6_rep_9_b_D_2.0.png	 D	 b	 b	 n.a.	 5.377377e-01
2	 1	 13	 flanked	 bex	 4	 1.000000	 2.000000	 flanked_bex_freq_4_amplitude_1_rep_8_r_N_2.0.png	 N	 r	 l	 n.a.	 4.359844e-01
2	 1	 14	 flanked	 bex	 4	 1.000000	 2.000000	 flanked_bex_freq_4_amplitude_1_rep_9_b_N_2.0.png	 N	 b	 l	 n.a.	 4.393443e-01
2	 1	 15	 flanked	 bex	 4	 4.000000	 2.000000	 flanked_bex_freq_4_amplitude_4_rep_5_t_N_2.0.png	 N	 t	 r	 n.a.	 1.001316e+00
2	 1	 16	 flanked	 bex	 4	 5.000000	 2.000000	 flanked_bex_freq_4_amplitude_5_rep_5_l_H_2.0.png	 H	 l	 t	 n.a.	 4.008704e-01
2	 1	 17	 flanked	 bex	 4	 7.000000	 2.000000	 flanked_bex_freq_4_amplitude_7_rep_9_t_K_2.0.png	 K	 t	 l	 n.a.	 5.309930e-01
2	 1	 18	 flanked	 bex	 4	 3.000000	 2.000000	 flanked_bex_freq_4_amplitude_3_rep_1_l_N_2.0.png	 N	 l	 b	 n.a.	 1.759131e-01
2	 1	 19	 flanked	 bex	 4	 1.000000	 2.000000	 flanked_bex_freq_4_amplitude_1_rep_3_t_K_2.0.png	 K	 t	 l	 n.a.	 2.991777e-01
2	 1	 20	 flanked	 bex	 4	 1.000000	 2.000000	 flanked_bex_freq_4_amplitude_1_rep_0_r_D_2.0.png	 D	 r	 r	 n.a.	 3.667527e-01
2	 1	 21	 flanked	 bex	 4	 4.000000	 2.000000	 flanked_bex_freq_4_amplitude_4_rep_4_l_K_2.0.png	 K	 l	 t	 n.a.	 4.771407e-01
2	 1	 22	 flanked	 bex	 4	 7.000000	 2.000000	 flanked_bex_freq_4_amplitude_7_rep_3_t_N_2.0.png	 N	 t	 b	 n.a.	 2.219910e-01
2	 1	 23	 flanked	 bex	 4	 7.000000	 2.000000	 flanked_bex_freq_4_amplitude_7_rep_1_l_K_2.0.png	 K	 l	 l	 n.a.	 4.554488e-01
2	 1	 24	 flanked	 bex	 4	 2.000000	 2.000000	 flanked_bex_freq_4_amplitude_2_rep_8_r_D_2.0.png	 D	 r	 b	 n.a.	 2.663313e-01
2	 1	 25	 flanked	 bex	 4	 2.000000	 2.000000	 flanked_bex_freq_4_amplitude_2_rep_7_t_N_2.0.png	 N	 t	 l	 n.a.	 3.298556e-01
2	 1	 26	 flanked	 bex	 4	 4.000000	 2.000000	 flanked_bex_freq_4_amplitude_4_rep_0_t_H_2.0.png	 H	 t	 t	 n.a.	 2.611141e-01
2	 1	 27	 flanked	 bex	 4	 2.000000	 2.000000	 flanked_bex_freq_4_amplitude_2_rep_9_l_D_2.0.png	 D	 l	 b	 n.a.	 4.546859e-01
2	 1	 28	 flanked	 bex	 4	 6.000000	 2.000000	 flanked_bex_freq_4_amplitude_6_rep_3_b_K_2.0.png	 K	 b	 r	 n.a.	 2.565029e-01
2	 1	 29	 flanked	 bex	 4	 5.000000	 2.000000	 flanked_bex_freq_4_amplitude_5_rep_4_t_D_2.0.png	 D	 t	 l	 n.a.	 2.729963e-01
2	 1	 30	 flanked	 bex	 4	 7.000000	 2.000000	 flanked_bex_freq_4_amplitude_7_rep_8_r_D_2.0.png	 D	 r	 b	 n.a.	 2.035818e-01
2	 1	 31	 flanked	 bex	 4	 1.000000	 2.000000	 flanked_bex_freq_4_amplitude_1_rep_5_t_K_2.0.png	 K	 t	 r	 n.a.	 1.322968e-01
2	 1	 32	 flanked	 bex	 4	 2.000000	 2.000000	 flanked_bex_freq_4_amplitude_2_rep_5_t_N_2.0.png	 N	 t	 t	 n.a.	 3.018813e-01
2	 1	 33	 flanked	 bex	 4	 6.000000	 2.000000	 flanked_bex_freq_4_amplitude_6_rep_9_b_D_2.0.png	 D	 b	 b	 n.a.	 3.252793e-01
2	 1	 34	 flanked	 bex	 4	 2.000000	 2.000000	 flanked_bex_freq_4_amplitude_2_rep_2_l_H_2.0.png	 H	 l	 l	 n.a.	 2.762828e-01
2	 1	 35	 flanked	 bex	 4	 7.000000	 2.000000	 flanked_bex_freq_4_amplitude_7_rep_1_l_K_2.0.png	 K	 l	 l	 n.a.	 2.717273e-01
2	 1	 36	 flanked	 bex	 4	 1.000000	 2.000000	 flanked_bex_freq_4_amplitude_1_rep_9_b_N_2.0.png	 N	 b	 b	 n.a.	 3.001654e-01
2	 1	 37	 flanked	 bex	 4	 3.000000	 2.000000	 flanked_bex_freq_4_amplitude_3_rep_1_l_N_2.0.png	 N	 l	 l	 n.a.	 4.028639e-01
2	 1	 38	 flanked	 bex	 4	 2.000000	 2.000000	 flanked_bex_freq_4_amplitude_2_rep_9_l_D_2.0.png	 D	 l	 t	 n.a.	 4.671715e-01
2	 1	 39	 flanked	 bex	 4	 6.000000	 2.000000	 flanked_bex_freq_4_amplitude_6_rep_6_b_K_2.0.png	 K	 b	 b	 n.a.	 3.012999e-01
2	 1	 40	 flanked	 bex	 4	 2.000000	 2.000000	 flanked_bex_freq_4_amplitude_2_rep_0_t_D_2.0.png	 D	 t	 r	 n.a.	 1.531597e-01
2	 1	 41	 flanked	 bex	 4	 7.000000	 2.000000	 flanked_bex_freq_4_amplitude_7_rep_4_l_H_2.0.png	 H	 l	 l	 n.a.	 2.481743e-01
2	 1	 42	 flanked	 bex	 4	 4.000000	 2.000000	 flanked_bex_freq_4_amplitude_4_rep_7_r_K_2.0.png	 K	 r	 t	 n.a.	 4.560289e-01
2	 1	 43	 flanked	 bex	 4	 3.000000	 2.000000	 flanked_bex_freq_4_amplitude_3_rep_3_r_K_2.0.png	 K	 r	 b	 n.a.	 2.955562e-01
2	 1	 44	 flanked	 bex	 4	 2.000000	 2.000000	 flanked_bex_freq_4_amplitude_2_rep_1_b_N_2.0.png	 N	 b	 l	 n.a.	 3.057019e-01
2	 1	 45	 flanked	 bex	 4	 7.000000	 2.000000	 flanked_bex_freq_4_amplitude_7_rep_9_t_K_2.0.png	 K	 t	 b	 n.a.	 2.129981e-01
2	 1	 46	 flanked	 bex	 4	 6.000000	 2.000000	 flanked_bex_freq_4_amplitude_6_rep_3_b_K_2.0.png	 K	 b	 r	 n.a.	 3.690590e-01
2	 1	 47	 flanked	 bex	 4	 6.000000	 2.000000	 flanked_bex_freq_4_amplitude_6_rep_0_r_N_2.0.png	 N	 r	 l	 n.a.	 5.494290e-01
2	 1	 48	 flanked	 bex	 4	 6.000000	 2.000000	 flanked_bex_freq_4_amplitude_6_rep_5_r_H_2.0.png	 H	 r	 b	 n.a.	 3.575472e-01
2	 1	 49	 flanked	 bex	 4	 1.000000	 2.000000	 flanked_bex_freq_4_amplitude_1_rep_1_t_D_2.0.png	 D	 t	 t	 n.a.	 3.866850e-01
2	 1	 50	 flanked	 bex	 4	 1.000000	 2.000000	 flanked_bex_freq_4_amplitude_1_rep_8_r_N_2.0.png	 N	 r	 l	 n.a.	 5.028564e-01
2	 1	 51	 flanked	 bex	 4	 6.000000	 2.000000	 flanked_bex_freq_4_amplitude_6_rep_1_b_H_2.0.png	 H	 b	 b	 n.a.	 3.974481e-01
2	 1	 52	 flanked	 bex	 4	 3.000000	 2.000000	 flanked_bex_freq_4_amplitude_3_rep_0_b_N_2.0.png	 N	 b	 r	 n.a.	 3.519491e-01
2	 1	 53	 flanked	 bex	 4	 1.000000	 2.000000	 flanked_bex_freq_4_amplitude_1_rep_3_t_K_2.0.png	 K	 t	 t	 n.a.	 3.837387e-01
2	 1	 54	 flanked	 bex	 4	 4.000000	 2.000000	 flanked_bex_freq_4_amplitude_4_rep_4_l_K_2.0.png	 K	 l	 b	 n.a.	 3.776883e-01
2	 1	 55	 flanked	 bex	 4	 1.000000	 2.000000	 flanked_bex_freq_4_amplitude_1_rep_6_r_N_2.0.png	 N	 r	 l	 n.a.	 2.777304e-01
2	 1	 56	 flanked	 bex	 4	 2.000000	 2.000000	 flanked_bex_freq_4_amplitude_2_rep_6_l_D_2.0.png	 D	 l	 t	 n.a.	 6.252288e-01
2	 1	 57	 flanked	 bex	 4	 4.000000	 2.000000	 flanked_bex_freq_4_amplitude_4_rep_6_t_H_2.0.png	 H	 t	 b	 n.a.	 2.601292e-01
2	 1	 58	 flanked	 bex	 4	 7.000000	 2.000000	 flanked_bex_freq_4_amplitude_7_rep_6_l_K_2.0.png	 K	 l	 l	 n.a.	 3.449077e-01
2	 1	 59	 flanked	 bex	 4	 5.000000	 2.000000	 flanked_bex_freq_4_amplitude_5_rep_9_t_K_2.0.png	 K	 t	 r	 n.a.	 2.491443e-01
2	 1	 60	 flanked	 bex	 4	 7.000000	 2.000000	 flanked_bex_freq_4_amplitude_7_rep_2_r_D_2.0.png	 D	 r	 b	 n.a.	 3.307327e-01
2	 1	 61	 flanked	 bex	 4	 7.000000	 2.000000	 flanked_bex_freq_4_amplitude_7_rep_3_t_N_2.0.png	 N	 t	 l	 n.a.	 2.869766e-01
2	 1	 62	 flanked	 bex	 4	 1.000000	 2.000000	 flanked_bex_freq_4_amplitude_1_rep_1_t_D_2.0.png	 D	 t	 b	 n.a.	 1.283343e-01
2	 1	 63	 flanked	 bex	 4	 3.000000	 2.000000	 flanked_bex_freq_4_amplitude_3_rep_4_l_D_2.0.png	 D	 l	 t	 n.a.	 3.541507e-01
2	 1	 64	 flanked	 bex	 4	 7.000000	 2.000000	 flanked_bex_freq_4_amplitude_7_rep_5_r_D_2.0.png	 D	 r	 r	 n.a.	 2.077589e-01
2	 1	 65	 flanked	 bex	 4	 7.000000	 2.000000	 flanked_bex_freq_4_amplitude_7_rep_2_r_D_2.0.png	 D	 r	 r	 n.a.	 3.814010e-01
2	 1	 66	 flanked	 bex	 4	 3.000000	 2.000000	 flanked_bex_freq_4_amplitude_3_rep_0_b_N_2.0.png	 N	 b	 b	 n.a.	 4.737641e-01
2	 1	 67	 flanked	 bex	 4	 2.000000	 2.000000	 flanked_bex_freq_4_amplitude_2_rep_0_t_D_2.0.png	 D	 t	 b	 n.a.	 4.631558e-01
2	 1	 68	 flanked	 bex	 4	 3.000000	 2.000000	 flanked_bex_freq_4_amplitude_3_rep_9_b_K_2.0.png	 K	 b	 l	 n.a.	 4.712162e-01
2	 1	 69	 flanked	 bex	 4	 6.000000	 2.000000	 flanked_bex_freq_4_amplitude_6_rep_5_r_H_2.0.png	 H	 r	 t	 n.a.	 3.232899e-01
2	 1	 70	 flanked	 bex	 4	 7.000000	 2.000000	 flanked_bex_freq_4_amplitude_7_rep_1_l_K_2.0.png	 K	 l	 l	 n.a.	 4.453374e-01
2	 1	 71	 flanked	 bex	 4	 3.000000	 2.000000	 flanked_bex_freq_4_amplitude_3_rep_7_r_D_2.0.png	 D	 r	 l	 n.a.	 5.410778e-01
2	 1	 72	 flanked	 bex	 4	 5.000000	 2.000000	 flanked_bex_freq_4_amplitude_5_rep_7_t_N_2.0.png	 N	 t	 t	 n.a.	 8.951218e-01
2	 1	 73	 flanked	 bex	 4	 1.000000	 2.000000	 flanked_bex_freq_4_amplitude_1_rep_8_r_N_2.0.png	 N	 r	 b	 n.a.	 5.030284e-01
2	 1	 74	 flanked	 bex	 4	 7.000000	 2.000000	 flanked_bex_freq_4_amplitude_7_rep_6_l_K_2.0.png	 K	 l	 l	 n.a.	 4.001884e-01
2	 1	 75	 flanked	 bex	 4	 6.000000	 2.000000	 flanked_bex_freq_4_amplitude_6_rep_5_r_H_2.0.png	 H	 r	 l	 n.a.	 6.236402e-01
2	 1	 76	 flanked	 bex	 4	 1.000000	 2.000000	 flanked_bex_freq_4_amplitude_1_rep_3_t_K_2.0.png	 K	 t	 r	 n.a.	 2.635286e-01
2	 1	 77	 flanked	 bex	 4	 5.000000	 2.000000	 flanked_bex_freq_4_amplitude_5_rep_1_r_D_2.0.png	 D	 r	 t	 n.a.	 3.955467e-01
2	 1	 78	 flanked	 bex	 4	 6.000000	 2.000000	 flanked_bex_freq_4_amplitude_6_rep_6_b_K_2.0.png	 K	 b	 b	 n.a.	 1.989668e-01
2	 1	 79	 flanked	 bex	 4	 5.000000	 2.000000	 flanked_bex_freq_4_amplitude_5_rep_6_l_N_2.0.png	 N	 l	 l	 n.a.	 3.767466e-01
2	 1	 80	 flanked	 bex	 4	 6.000000	 2.000000	 flanked_bex_freq_4_amplitude_6_rep_4_l_H_2.0.png	 H	 l	 l	 n.a.	 7.661098e-01
2	 1	 81	 flanked	 bex	 4	 6.000000	 2.000000	 flanked_bex_freq_4_amplitude_6_rep_2_r_H_2.0.png	 H	 r	 r	 n.a.	 4.661819e-01
2	 1	 82	 flanked	 bex	 4	 2.000000	 2.000000	 flanked_bex_freq_4_amplitude_2_rep_7_t_N_2.0.png	 N	 t	 b	 n.a.	 3.528849e-01
2	 1	 83	 flanked	 bex	 4	 1.000000	 2.000000	 flanked_bex_freq_4_amplitude_1_rep_0_r_D_2.0.png	 D	 r	 l	 n.a.	 6.251058e-01
2	 1	 84	 flanked	 bex	 4	 7.000000	 2.000000	 flanked_bex_freq_4_amplitude_7_rep_0_b_N_2.0.png	 N	 b	 b	 n.a.	 6.240076e-01
2	 1	 85	 flanked	 bex	 4	 5.000000	 2.000000	 flanked_bex_freq_4_amplitude_5_rep_8_l_D_2.0.png	 D	 l	 l	 n.a.	 4.359334e-01
2	 1	 86	 flanked	 bex	 4	 4.000000	 2.000000	 flanked_bex_freq_4_amplitude_4_rep_7_r_K_2.0.png	 K	 r	 t	 n.a.	 7.145478e-01
2	 1	 87	 flanked	 bex	 4	 5.000000	 2.000000	 flanked_bex_freq_4_amplitude_5_rep_2_t_N_2.0.png	 N	 t	 l	 n.a.	 4.479667e-01
2	 1	 88	 flanked	 bex	 4	 6.000000	 2.000000	 flanked_bex_freq_4_amplitude_6_rep_8_b_N_2.0.png	 N	 b	 b	 n.a.	 2.780548e-01
2	 1	 89	 flanked	 bex	 4	 2.000000	 2.000000	 flanked_bex_freq_4_amplitude_2_rep_8_r_D_2.0.png	 D	 r	 r	 n.a.	 4.813064e-01
2	 1	 90	 flanked	 bex	 4	 6.000000	 2.000000	 flanked_bex_freq_4_amplitude_6_rep_9_b_D_2.0.png	 D	 b	 b	 n.a.	 3.116473e-01
2	 1	 91	 flanked	 bex	 4	 6.000000	 2.000000	 flanked_bex_freq_4_amplitude_6_rep_4_l_H_2.0.png	 H	 l	 l	 n.a.	 3.343064e-01
2	 1	 92	 flanked	 bex	 4	 4.000000	 2.000000	 flanked_bex_freq_4_amplitude_4_rep_0_t_H_2.0.png	 H	 t	 l	 n.a.	 7.236077e-01
2	 1	 93	 flanked	 bex	 4	 1.000000	 2.000000	 flanked_bex_freq_4_amplitude_1_rep_4_l_N_2.0.png	 N	 l	 t	 n.a.	 3.780996e-01
2	 1	 94	 flanked	 bex	 4	 6.000000	 2.000000	 flanked_bex_freq_4_amplitude_6_rep_7_r_D_2.0.png	 D	 r	 r	 n.a.	 5.572292e-01
2	 1	 95	 flanked	 bex	 4	 6.000000	 2.000000	 flanked_bex_freq_4_amplitude_6_rep_6_b_K_2.0.png	 K	 b	 b	 n.a.	 3.826389e-01
2	 1	 96	 flanked	 bex	 4	 5.000000	 2.000000	 flanked_bex_freq_4_amplitude_5_rep_0_b_K_2.0.png	 K	 b	 b	 n.a.	 3.512077e-01
2	 1	 97	 flanked	 bex	 4	 6.000000	 2.000000	 flanked_bex_freq_4_amplitude_6_rep_8_b_N_2.0.png	 N	 b	 l	 n.a.	 3.538879e-01
2	 1	 98	 flanked	 bex	 4	 6.000000	 2.000000	 flanked_bex_freq_4_amplitude_6_rep_7_r_D_2.0.png	 D	 r	 r	 n.a.	 4.315685e-01
2	 1	 99	 flanked	 bex	 4	 6.000000	 2.000000	 flanked_bex_freq_4_amplitude_6_rep_2_r_H_2.0.png	 H	 r	 r	 n.a.	 5.462034e-01
2	 1	 100	 flanked	 bex	 4	 7.000000	 2.000000	 flanked_bex_freq_4_amplitude_7_rep_7_t_K_2.0.png	 K	 t	 l	 n.a.	 3.817908e-01
2	 1	 101	 flanked	 bex	 4	 7.000000	 2.000000	 flanked_bex_freq_4_amplitude_7_rep_4_l_H_2.0.png	 H	 l	 l	 n.a.	 4.317792e-01
2	 1	 102	 flanked	 bex	 4	 3.000000	 2.000000	 flanked_bex_freq_4_amplitude_3_rep_6_r_K_2.0.png	 K	 r	 t	 n.a.	 5.068917e-01
2	 1	 103	 flanked	 bex	 4	 3.000000	 2.000000	 flanked_bex_freq_4_amplitude_3_rep_2_t_H_2.0.png	 H	 t	 l	 n.a.	 5.175320e-01
2	 1	 104	 flanked	 bex	 4	 7.000000	 2.000000	 flanked_bex_freq_4_amplitude_7_rep_0_b_N_2.0.png	 N	 b	 b	 n.a.	 2.827736e-01
2	 1	 105	 flanked	 bex	 4	 2.000000	 2.000000	 flanked_bex_freq_4_amplitude_2_rep_2_l_H_2.0.png	 H	 l	 t	 n.a.	 4.892069e-01
2	 1	 106	 flanked	 bex	 4	 3.000000	 2.000000	 flanked_bex_freq_4_amplitude_3_rep_2_t_H_2.0.png	 H	 t	 b	 n.a.	 3.182158e-01
2	 1	 107	 flanked	 bex	 4	 1.000000	 2.000000	 flanked_bex_freq_4_amplitude_1_rep_7_r_D_2.0.png	 D	 r	 l	 n.a.	 4.158058e-01
2	 1	 108	 flanked	 bex	 4	 5.000000	 2.000000	 flanked_bex_freq_4_amplitude_5_rep_0_b_K_2.0.png	 K	 b	 b	 n.a.	 2.664759e-01
2	 1	 109	 flanked	 bex	 4	 5.000000	 2.000000	 flanked_bex_freq_4_amplitude_5_rep_8_l_D_2.0.png	 D	 l	 l	 n.a.	 4.586059e-01
2	 1	 110	 flanked	 bex	 4	 6.000000	 2.000000	 flanked_bex_freq_4_amplitude_6_rep_4_l_H_2.0.png	 H	 l	 t	 n.a.	 4.447342e-01
2	 1	 111	 flanked	 bex	 4	 7.000000	 2.000000	 flanked_bex_freq_4_amplitude_7_rep_7_t_K_2.0.png	 K	 t	 t	 n.a.	 5.540640e-01
2	 1	 112	 flanked	 bex	 4	 4.000000	 2.000000	 flanked_bex_freq_4_amplitude_4_rep_6_t_H_2.0.png	 H	 t	 b	 n.a.	 3.177163e-01
2	 1	 113	 flanked	 bex	 4	 5.000000	 2.000000	 flanked_bex_freq_4_amplitude_5_rep_3_r_D_2.0.png	 D	 r	 b	 n.a.	 5.981264e-01
2	 1	 114	 flanked	 bex	 4	 2.000000	 2.000000	 flanked_bex_freq_4_amplitude_2_rep_7_t_N_2.0.png	 N	 t	 r	 n.a.	 4.328788e-01
2	 1	 115	 flanked	 bex	 4	 7.000000	 2.000000	 flanked_bex_freq_4_amplitude_7_rep_9_t_K_2.0.png	 K	 t	 t	 n.a.	 4.785243e-01
2	 1	 116	 flanked	 bex	 4	 1.000000	 2.000000	 flanked_bex_freq_4_amplitude_1_rep_2_r_H_2.0.png	 H	 r	 b	 n.a.	 3.991039e-01
2	 1	 117	 flanked	 bex	 4	 1.000000	 2.000000	 flanked_bex_freq_4_amplitude_1_rep_9_b_N_2.0.png	 N	 b	 t	 n.a.	 4.227991e-01
2	 1	 118	 flanked	 bex	 4	 2.000000	 2.000000	 flanked_bex_freq_4_amplitude_2_rep_6_l_D_2.0.png	 D	 l	 b	 n.a.	 3.801799e-01
2	 1	 119	 flanked	 bex	 4	 3.000000	 2.000000	 flanked_bex_freq_4_amplitude_3_rep_8_r_H_2.0.png	 H	 r	 r	 n.a.	 4.054901e-01
2	 1	 120	 flanked	 bex	 4	 4.000000	 2.000000	 flanked_bex_freq_4_amplitude_4_rep_1_t_K_2.0.png	 K	 t	 t	 n.a.	 4.820744e-01
2	 1	 121	 flanked	 bex	 4	 4.000000	 2.000000	 flanked_bex_freq_4_amplitude_4_rep_6_t_H_2.0.png	 H	 t	 b	 n.a.	 3.960904e-01
2	 1	 122	 flanked	 bex	 4	 3.000000	 2.000000	 flanked_bex_freq_4_amplitude_3_rep_0_b_N_2.0.png	 N	 b	 t	 n.a.	 3.959562e-01
2	 1	 123	 flanked	 bex	 4	 2.000000	 2.000000	 flanked_bex_freq_4_amplitude_2_rep_5_t_N_2.0.png	 N	 t	 t	 n.a.	 4.404832e-01
2	 1	 124	 flanked	 bex	 4	 2.000000	 2.000000	 flanked_bex_freq_4_amplitude_2_rep_9_l_D_2.0.png	 D	 l	 t	 n.a.	 6.256935e-01
2	 1	 125	 flanked	 bex	 4	 3.000000	 2.000000	 flanked_bex_freq_4_amplitude_3_rep_6_r_K_2.0.png	 K	 r	 b	 n.a.	 3.885304e-01
2	 1	 126	 flanked	 bex	 4	 6.000000	 2.000000	 flanked_bex_freq_4_amplitude_6_rep_1_b_H_2.0.png	 H	 b	 r	 n.a.	 4.726468e-01
2	 1	 127	 flanked	 bex	 4	 5.000000	 2.000000	 flanked_bex_freq_4_amplitude_5_rep_5_l_H_2.0.png	 H	 l	 b	 n.a.	 5.481767e-01
2	 1	 128	 flanked	 bex	 4	 1.000000	 2.000000	 flanked_bex_freq_4_amplitude_1_rep_6_r_N_2.0.png	 N	 r	 t	 n.a.	 4.697534e-01
2	 1	 129	 flanked	 bex	 4	 6.000000	 2.000000	 flanked_bex_freq_4_amplitude_6_rep_8_b_N_2.0.png	 N	 b	 l	 n.a.	 3.406623e-01
2	 1	 130	 flanked	 bex	 4	 4.000000	 2.000000	 flanked_bex_freq_4_amplitude_4_rep_3_t_H_2.0.png	 H	 t	 r	 n.a.	 3.387803e-01
2	 1	 131	 flanked	 bex	 4	 7.000000	 2.000000	 flanked_bex_freq_4_amplitude_7_rep_0_b_N_2.0.png	 N	 b	 b	 n.a.	 2.411784e-01
2	 1	 132	 flanked	 bex	 4	 5.000000	 2.000000	 flanked_bex_freq_4_amplitude_5_rep_6_l_N_2.0.png	 N	 l	 l	 n.a.	 5.888067e-01
2	 1	 133	 flanked	 bex	 4	 3.000000	 2.000000	 flanked_bex_freq_4_amplitude_3_rep_2_t_H_2.0.png	 H	 t	 t	 n.a.	 6.629624e-01
2	 1	 134	 flanked	 bex	 4	 7.000000	 2.000000	 flanked_bex_freq_4_amplitude_7_rep_8_r_D_2.0.png	 D	 r	 r	 n.a.	 4.110920e-01
2	 1	 135	 flanked	 bex	 4	 1.000000	 2.000000	 flanked_bex_freq_4_amplitude_1_rep_4_l_N_2.0.png	 N	 l	 t	 n.a.	 6.822485e-01
2	 1	 136	 flanked	 bex	 4	 7.000000	 2.000000	 flanked_bex_freq_4_amplitude_7_rep_4_l_H_2.0.png	 H	 l	 l	 n.a.	 3.911567e-01
2	 1	 137	 flanked	 bex	 4	 2.000000	 2.000000	 flanked_bex_freq_4_amplitude_2_rep_2_l_H_2.0.png	 H	 l	 t	 n.a.	 4.467296e-01
2	 1	 138	 flanked	 bex	 4	 6.000000	 2.000000	 flanked_bex_freq_4_amplitude_6_rep_0_r_N_2.0.png	 N	 r	 r	 n.a.	 4.300611e-01
2	 1	 139	 flanked	 bex	 4	 5.000000	 2.000000	 flanked_bex_freq_4_amplitude_5_rep_3_r_D_2.0.png	 D	 r	 b	 n.a.	 4.238729e-01
2	 1	 140	 flanked	 bex	 4	 4.000000	 2.000000	 flanked_bex_freq_4_amplitude_4_rep_7_r_K_2.0.png	 K	 r	 t	 n.a.	 3.423582e-01
2	 1	 141	 flanked	 bex	 4	 4.000000	 2.000000	 flanked_bex_freq_4_amplitude_4_rep_2_t_K_2.0.png	 K	 t	 b	 n.a.	 7.765735e-01
2	 1	 142	 flanked	 bex	 4	 4.000000	 2.000000	 flanked_bex_freq_4_amplitude_4_rep_9_t_N_2.0.png	 N	 t	 l	 n.a.	 5.161827e-01
2	 1	 143	 flanked	 bex	 4	 5.000000	 2.000000	 flanked_bex_freq_4_amplitude_5_rep_5_l_H_2.0.png	 H	 l	 r	 n.a.	 3.016232e-01
2	 1	 144	 flanked	 bex	 4	 5.000000	 2.000000	 flanked_bex_freq_4_amplitude_5_rep_8_l_D_2.0.png	 D	 l	 l	 n.a.	 2.855948e-01
2	 1	 145	 flanked	 bex	 4	 2.000000	 2.000000	 flanked_bex_freq_4_amplitude_2_rep_3_l_K_2.0.png	 K	 l	 t	 n.a.	 3.848027e-01
2	 1	 146	 flanked	 bex	 4	 1.000000	 2.000000	 flanked_bex_freq_4_amplitude_1_rep_7_r_D_2.0.png	 D	 r	 b	 n.a.	 4.058912e-01
2	 1	 147	 flanked	 bex	 4	 5.000000	 2.000000	 flanked_bex_freq_4_amplitude_5_rep_2_t_N_2.0.png	 N	 t	 l	 n.a.	 2.444776e-01
2	 1	 148	 flanked	 bex	 4	 7.000000	 2.000000	 flanked_bex_freq_4_amplitude_7_rep_2_r_D_2.0.png	 D	 r	 r	 n.a.	 2.851365e-01
2	 1	 149	 flanked	 bex	 4	 2.000000	 2.000000	 flanked_bex_freq_4_amplitude_2_rep_4_l_D_2.0.png	 D	 l	 t	 n.a.	 7.228002e-01
2	 1	 150	 flanked	 bex	 4	 1.000000	 2.000000	 flanked_bex_freq_4_amplitude_1_rep_5_t_K_2.0.png	 K	 t	 b	 n.a.	 2.997185e-01
2	 1	 151	 flanked	 bex	 4	 4.000000	 2.000000	 flanked_bex_freq_4_amplitude_4_rep_2_t_K_2.0.png	 K	 t	 b	 n.a.	 5.593951e-01
2	 1	 152	 flanked	 bex	 4	 2.000000	 2.000000	 flanked_bex_freq_4_amplitude_2_rep_4_l_D_2.0.png	 D	 l	 r	 n.a.	 2.867305e-01
2	 1	 153	 flanked	 bex	 4	 5.000000	 2.000000	 flanked_bex_freq_4_amplitude_5_rep_0_b_K_2.0.png	 K	 b	 t	 n.a.	 2.907169e-01
2	 1	 154	 flanked	 bex	 4	 5.000000	 2.000000	 flanked_bex_freq_4_amplitude_5_rep_2_t_N_2.0.png	 N	 t	 r	 n.a.	 6.053725e-01
2	 1	 155	 flanked	 bex	 4	 4.000000	 2.000000	 flanked_bex_freq_4_amplitude_4_rep_5_t_N_2.0.png	 N	 t	 b	 n.a.	 3.174860e-01
2	 1	 156	 flanked	 bex	 4	 1.000000	 2.000000	 flanked_bex_freq_4_amplitude_1_rep_1_t_D_2.0.png	 D	 t	 l	 n.a.	 4.651001e-01
2	 1	 157	 flanked	 bex	 4	 1.000000	 2.000000	 flanked_bex_freq_4_amplitude_1_rep_6_r_N_2.0.png	 N	 r	 t	 n.a.	 3.120353e-01
2	 1	 158	 flanked	 bex	 4	 4.000000	 2.000000	 flanked_bex_freq_4_amplitude_4_rep_2_t_K_2.0.png	 K	 t	 b	 n.a.	 2.489128e-01
2	 1	 159	 flanked	 bex	 4	 3.000000	 2.000000	 flanked_bex_freq_4_amplitude_3_rep_1_l_N_2.0.png	 N	 l	 l	 n.a.	 5.382020e-01
2	 1	 160	 flanked	 bex	 4	 4.000000	 2.000000	 flanked_bex_freq_4_amplitude_4_rep_0_t_H_2.0.png	 H	 t	 l	 n.a.	 7.011425e-01
2	 1	 161	 flanked	 bex	 4	 5.000000	 2.000000	 flanked_bex_freq_4_amplitude_5_rep_7_t_N_2.0.png	 N	 t	 t	 n.a.	 4.677033e-01
2	 1	 162	 flanked	 bex	 4	 4.000000	 2.000000	 flanked_bex_freq_4_amplitude_4_rep_8_r_D_2.0.png	 D	 r	 b	 n.a.	 3.246419e-01
2	 1	 163	 flanked	 bex	 4	 3.000000	 2.000000	 flanked_bex_freq_4_amplitude_3_rep_3_r_K_2.0.png	 K	 r	 b	 n.a.	 6.014394e-01
2	 1	 164	 flanked	 bex	 4	 1.000000	 2.000000	 flanked_bex_freq_4_amplitude_1_rep_4_l_N_2.0.png	 N	 l	 r	 n.a.	 2.401612e-01
2	 1	 165	 flanked	 bex	 4	 4.000000	 2.000000	 flanked_bex_freq_4_amplitude_4_rep_1_t_K_2.0.png	 K	 t	 t	 n.a.	 3.786960e-01
2	 1	 166	 flanked	 bex	 4	 1.000000	 2.000000	 flanked_bex_freq_4_amplitude_1_rep_0_r_D_2.0.png	 D	 r	 b	 n.a.	 3.946693e-01
2	 1	 167	 flanked	 bex	 4	 6.000000	 2.000000	 flanked_bex_freq_4_amplitude_6_rep_2_r_H_2.0.png	 H	 r	 r	 n.a.	 3.740916e-01
2	 1	 168	 flanked	 bex	 4	 4.000000	 2.000000	 flanked_bex_freq_4_amplitude_4_rep_9_t_N_2.0.png	 N	 t	 t	 n.a.	 6.336580e-01
2	 1	 169	 flanked	 bex	 4	 5.000000	 2.000000	 flanked_bex_freq_4_amplitude_5_rep_1_r_D_2.0.png	 D	 r	 t	 n.a.	 5.551174e-01
2	 1	 170	 flanked	 bex	 4	 7.000000	 2.000000	 flanked_bex_freq_4_amplitude_7_rep_8_r_D_2.0.png	 D	 r	 r	 n.a.	 4.023024e-01
2	 1	 171	 flanked	 bex	 4	 2.000000	 2.000000	 flanked_bex_freq_4_amplitude_2_rep_3_l_K_2.0.png	 K	 l	 l	 n.a.	 4.819695e-01
2	 1	 172	 flanked	 bex	 4	 2.000000	 2.000000	 flanked_bex_freq_4_amplitude_2_rep_0_t_D_2.0.png	 D	 t	 b	 n.a.	 2.900875e-01
2	 1	 173	 flanked	 bex	 4	 2.000000	 2.000000	 flanked_bex_freq_4_amplitude_2_rep_1_b_N_2.0.png	 N	 b	 t	 n.a.	 5.365696e-01
2	 1	 174	 flanked	 bex	 4	 3.000000	 2.000000	 flanked_bex_freq_4_amplitude_3_rep_8_r_H_2.0.png	 H	 r	 r	 n.a.	 2.845760e-01
2	 1	 175	 flanked	 bex	 4	 4.000000	 2.000000	 flanked_bex_freq_4_amplitude_4_rep_3_t_H_2.0.png	 H	 t	 b	 n.a.	 3.957424e-01
2	 1	 176	 flanked	 bex	 4	 3.000000	 2.000000	 flanked_bex_freq_4_amplitude_3_rep_4_l_D_2.0.png	 D	 l	 t	 n.a.	 6.463551e-01
2	 1	 177	 flanked	 bex	 4	 4.000000	 2.000000	 flanked_bex_freq_4_amplitude_4_rep_5_t_N_2.0.png	 N	 t	 t	 n.a.	 6.276325e-01
2	 1	 178	 flanked	 bex	 4	 1.000000	 2.000000	 flanked_bex_freq_4_amplitude_1_rep_2_r_H_2.0.png	 H	 r	 b	 n.a.	 3.929147e-01
2	 1	 179	 flanked	 bex	 4	 7.000000	 2.000000	 flanked_bex_freq_4_amplitude_7_rep_5_r_D_2.0.png	 D	 r	 r	 n.a.	 3.765927e-01
2	 1	 180	 flanked	 bex	 4	 7.000000	 2.000000	 flanked_bex_freq_4_amplitude_7_rep_7_t_K_2.0.png	 K	 t	 l	 n.a.	 4.747095e-01
2	 1	 181	 flanked	 bex	 4	 2.000000	 2.000000	 flanked_bex_freq_4_amplitude_2_rep_3_l_K_2.0.png	 K	 l	 t	 n.a.	 4.186268e-01
2	 1	 182	 flanked	 bex	 4	 6.000000	 2.000000	 flanked_bex_freq_4_amplitude_6_rep_7_r_D_2.0.png	 D	 r	 r	 n.a.	 4.465753e-01
2	 1	 183	 flanked	 bex	 4	 4.000000	 2.000000	 flanked_bex_freq_4_amplitude_4_rep_3_t_H_2.0.png	 H	 t	 t	 n.a.	 5.337720e-01
2	 1	 184	 flanked	 bex	 4	 5.000000	 2.000000	 flanked_bex_freq_4_amplitude_5_rep_4_t_D_2.0.png	 D	 t	 t	 n.a.	 5.557562e-01
2	 1	 185	 flanked	 bex	 4	 3.000000	 2.000000	 flanked_bex_freq_4_amplitude_3_rep_5_b_K_2.0.png	 K	 b	 b	 n.a.	 3.595776e-01
2	 1	 186	 flanked	 bex	 4	 5.000000	 2.000000	 flanked_bex_freq_4_amplitude_5_rep_7_t_N_2.0.png	 N	 t	 t	 n.a.	 3.631732e-01
2	 1	 187	 flanked	 bex	 4	 4.000000	 2.000000	 flanked_bex_freq_4_amplitude_4_rep_9_t_N_2.0.png	 N	 t	 r	 n.a.	 5.916046e-01
2	 1	 188	 flanked	 bex	 4	 2.000000	 2.000000	 flanked_bex_freq_4_amplitude_2_rep_6_l_D_2.0.png	 D	 l	 b	 n.a.	 6.745062e-01
2	 1	 189	 flanked	 bex	 4	 6.000000	 2.000000	 flanked_bex_freq_4_amplitude_6_rep_1_b_H_2.0.png	 H	 b	 t	 n.a.	 6.377170e-01
2	 1	 190	 flanked	 bex	 4	 4.000000	 2.000000	 flanked_bex_freq_4_amplitude_4_rep_8_r_D_2.0.png	 D	 r	 b	 n.a.	 2.502987e-01
2	 1	 191	 flanked	 bex	 4	 2.000000	 2.000000	 flanked_bex_freq_4_amplitude_2_rep_4_l_D_2.0.png	 D	 l	 b	 n.a.	 2.822566e-01
2	 1	 192	 flanked	 bex	 4	 5.000000	 2.000000	 flanked_bex_freq_4_amplitude_5_rep_9_t_K_2.0.png	 K	 t	 t	 n.a.	 3.092485e-01
2	 1	 193	 flanked	 bex	 4	 3.000000	 2.000000	 flanked_bex_freq_4_amplitude_3_rep_9_b_K_2.0.png	 K	 b	 b	 n.a.	 2.938478e-01
2	 1	 194	 flanked	 bex	 4	 2.000000	 2.000000	 flanked_bex_freq_4_amplitude_2_rep_8_r_D_2.0.png	 D	 r	 r	 n.a.	 5.835995e-01
2	 1	 195	 flanked	 bex	 4	 5.000000	 2.000000	 flanked_bex_freq_4_amplitude_5_rep_4_t_D_2.0.png	 D	 t	 t	 n.a.	 4.582526e-01
2	 1	 196	 flanked	 bex	 4	 5.000000	 2.000000	 flanked_bex_freq_4_amplitude_5_rep_3_r_D_2.0.png	 D	 r	 t	 n.a.	 6.838113e-01
2	 1	 197	 flanked	 bex	 4	 3.000000	 2.000000	 flanked_bex_freq_4_amplitude_3_rep_6_r_K_2.0.png	 K	 r	 b	 n.a.	 2.432302e-01
2	 1	 198	 flanked	 bex	 4	 6.000000	 2.000000	 flanked_bex_freq_4_amplitude_6_rep_3_b_K_2.0.png	 K	 b	 b	 n.a.	 8.468041e-01
2	 1	 199	 flanked	 bex	 4	 7.000000	 2.000000	 flanked_bex_freq_4_amplitude_7_rep_6_l_K_2.0.png	 K	 l	 l	 n.a.	 4.550093e-01
2	 1	 200	 flanked	 bex	 4	 4.000000	 2.000000	 flanked_bex_freq_4_amplitude_4_rep_8_r_D_2.0.png	 D	 r	 b	 n.a.	 5.084592e-01
2	 1	 201	 flanked	 bex	 4	 2.000000	 2.000000	 flanked_bex_freq_4_amplitude_2_rep_5_t_N_2.0.png	 N	 t	 t	 n.a.	 3.637147e-01
2	 1	 202	 flanked	 bex	 4	 5.000000	 2.000000	 flanked_bex_freq_4_amplitude_5_rep_1_r_D_2.0.png	 D	 r	 r	 n.a.	 3.067244e-01
2	 1	 203	 flanked	 bex	 4	 3.000000	 2.000000	 flanked_bex_freq_4_amplitude_3_rep_8_r_H_2.0.png	 H	 r	 t	 n.a.	 6.705314e-01
2	 1	 204	 flanked	 bex	 4	 3.000000	 2.000000	 flanked_bex_freq_4_amplitude_3_rep_5_b_K_2.0.png	 K	 b	 b	 n.a.	 3.736677e-01
2	 1	 205	 flanked	 bex	 4	 7.000000	 2.000000	 flanked_bex_freq_4_amplitude_7_rep_5_r_D_2.0.png	 D	 r	 r	 n.a.	 3.962348e-01
2	 1	 206	 flanked	 bex	 4	 3.000000	 2.000000	 flanked_bex_freq_4_amplitude_3_rep_7_r_D_2.0.png	 D	 r	 b	 n.a.	 8.409698e-01
2	 1	 207	 flanked	 bex	 4	 5.000000	 2.000000	 flanked_bex_freq_4_amplitude_5_rep_9_t_K_2.0.png	 K	 t	 t	 n.a.	 3.682595e-01
2	 1	 208	 flanked	 bex	 4	 4.000000	 2.000000	 flanked_bex_freq_4_amplitude_4_rep_4_l_K_2.0.png	 K	 l	 b	 n.a.	 6.066856e-01
2	 1	 209	 flanked	 bex	 4	 5.000000	 2.000000	 flanked_bex_freq_4_amplitude_5_rep_6_l_N_2.0.png	 N	 l	 l	 n.a.	 3.392416e-01
2	 1	 210	 flanked	 bex	 4	 3.000000	 2.000000	 flanked_bex_freq_4_amplitude_3_rep_7_r_D_2.0.png	 D	 r	 r	 n.a.	 1.082949e+00
