subject	 session	 trial	 flanked	 distortion	 freq	 amplitude	 spacing	 im_name	 targ_letter	 targ_pos	 response	 eyemovement	 RT
2	 1	 1	 flanked	 rf	 4	 0.425000	 2.000000	 flanked_rf_freq_4_amplitude_0.425_rep_3_b_N_2.0.png	 N	 b	 r	 n.a.	 4.777692e-01
2	 1	 2	 flanked	 rf	 4	 0.425000	 2.000000	 flanked_rf_freq_4_amplitude_0.425_rep_8_r_D_2.0.png	 D	 r	 b	 n.a.	 4.256572e-01
2	 1	 3	 flanked	 rf	 4	 0.425000	 2.000000	 flanked_rf_freq_4_amplitude_0.425_rep_6_t_N_2.0.png	 N	 t	 l	 n.a.	 4.871389e-01
2	 1	 4	 flanked	 rf	 4	 0.050000	 2.000000	 flanked_rf_freq_4_amplitude_0.05_rep_4_l_H_2.0.png	 H	 l	 t	 n.a.	 2.073693e-01
2	 1	 5	 flanked	 rf	 4	 0.125000	 2.000000	 flanked_rf_freq_4_amplitude_0.125_rep_0_r_H_2.0.png	 H	 r	 b	 n.a.	 5.815857e-02
2	 1	 6	 flanked	 rf	 4	 0.050000	 2.000000	 flanked_rf_freq_4_amplitude_0.05_rep_6_t_K_2.0.png	 K	 t	 r	 n.a.	 2.506814e-01
2	 1	 7	 flanked	 rf	 4	 0.350000	 2.000000	 flanked_rf_freq_4_amplitude_0.35_rep_4_b_N_2.0.png	 N	 b	 t	 n.a.	 4.447826e-01
2	 1	 8	 flanked	 rf	 4	 0.125000	 2.000000	 flanked_rf_freq_4_amplitude_0.125_rep_2_t_D_2.0.png	 D	 t	 l	 n.a.	 3.852122e-01
2	 1	 9	 flanked	 rf	 4	 0.050000	 2.000000	 flanked_rf_freq_4_amplitude_0.05_rep_5_t_H_2.0.png	 H	 t	 b	 n.a.	 1.957455e-01
2	 1	 10	 flanked	 rf	 4	 0.275000	 2.000000	 flanked_rf_freq_4_amplitude_0.275_rep_1_r_D_2.0.png	 D	 r	 t	 n.a.	 5.227854e-01
2	 1	 11	 flanked	 rf	 4	 0.350000	 2.000000	 flanked_rf_freq_4_amplitude_0.35_rep_0_t_H_2.0.png	 H	 t	 r	 n.a.	 3.143093e-01
2	 1	 12	 flanked	 rf	 4	 0.125000	 2.000000	 flanked_rf_freq_4_amplitude_0.125_rep_6_r_N_2.0.png	 N	 r	 b	 n.a.	 3.693138e-01
2	 1	 13	 flanked	 rf	 4	 0.200000	 2.000000	 flanked_rf_freq_4_amplitude_0.2_rep_6_b_D_2.0.png	 D	 b	 b	 n.a.	 2.679835e-01
2	 1	 14	 flanked	 rf	 4	 0.425000	 2.000000	 flanked_rf_freq_4_amplitude_0.425_rep_0_b_H_2.0.png	 H	 b	 l	 n.a.	 4.151092e-01
2	 1	 15	 flanked	 rf	 4	 0.050000	 2.000000	 flanked_rf_freq_4_amplitude_0.05_rep_2_b_K_2.0.png	 K	 b	 t	 n.a.	 3.136282e-01
2	 1	 16	 flanked	 rf	 4	 0.425000	 2.000000	 flanked_rf_freq_4_amplitude_0.425_rep_4_l_D_2.0.png	 D	 l	 b	 n.a.	 2.247522e-01
2	 1	 17	 flanked	 rf	 4	 0.125000	 2.000000	 flanked_rf_freq_4_amplitude_0.125_rep_5_t_K_2.0.png	 K	 t	 l	 n.a.	 2.776637e-01
2	 1	 18	 flanked	 rf	 4	 0.350000	 2.000000	 flanked_rf_freq_4_amplitude_0.35_rep_4_b_N_2.0.png	 N	 b	 t	 n.a.	 4.394606e-01
2	 1	 19	 flanked	 rf	 4	 0.500000	 2.000000	 flanked_rf_freq_4_amplitude_0.5_rep_5_t_D_2.0.png	 D	 t	 b	 n.a.	 4.032400e-01
2	 1	 20	 flanked	 rf	 4	 0.350000	 2.000000	 flanked_rf_freq_4_amplitude_0.35_rep_2_b_D_2.0.png	 D	 b	 l	 n.a.	 5.498972e-01
2	 1	 21	 flanked	 rf	 4	 0.500000	 2.000000	 flanked_rf_freq_4_amplitude_0.5_rep_9_l_K_2.0.png	 K	 l	 l	 n.a.	 5.220053e-01
2	 1	 22	 flanked	 rf	 4	 0.125000	 2.000000	 flanked_rf_freq_4_amplitude_0.125_rep_1_l_K_2.0.png	 K	 l	 b	 n.a.	 6.476814e-01
2	 1	 23	 flanked	 rf	 4	 0.050000	 2.000000	 flanked_rf_freq_4_amplitude_0.05_rep_0_l_N_2.0.png	 N	 l	 t	 n.a.	 3.278005e-01
2	 1	 24	 flanked	 rf	 4	 0.275000	 2.000000	 flanked_rf_freq_4_amplitude_0.275_rep_4_l_H_2.0.png	 H	 l	 b	 n.a.	 7.772248e-01
2	 1	 25	 flanked	 rf	 4	 0.200000	 2.000000	 flanked_rf_freq_4_amplitude_0.2_rep_5_l_K_2.0.png	 K	 l	 t	 n.a.	 3.419315e-01
2	 1	 26	 flanked	 rf	 4	 0.350000	 2.000000	 flanked_rf_freq_4_amplitude_0.35_rep_9_t_D_2.0.png	 D	 t	 l	 n.a.	 4.267317e-01
2	 1	 27	 flanked	 rf	 4	 0.500000	 2.000000	 flanked_rf_freq_4_amplitude_0.5_rep_6_b_H_2.0.png	 H	 b	 r	 n.a.	 2.968194e-01
2	 1	 28	 flanked	 rf	 4	 0.350000	 2.000000	 flanked_rf_freq_4_amplitude_0.35_rep_0_t_H_2.0.png	 H	 t	 t	 n.a.	 3.672566e-01
2	 1	 29	 flanked	 rf	 4	 0.500000	 2.000000	 flanked_rf_freq_4_amplitude_0.5_rep_3_l_K_2.0.png	 K	 l	 l	 n.a.	 5.508762e-01
2	 1	 30	 flanked	 rf	 4	 0.350000	 2.000000	 flanked_rf_freq_4_amplitude_0.35_rep_2_b_D_2.0.png	 D	 b	 l	 n.a.	 6.581823e-01
2	 1	 31	 flanked	 rf	 4	 0.500000	 2.000000	 flanked_rf_freq_4_amplitude_0.5_rep_0_b_D_2.0.png	 D	 b	 t	 n.a.	 3.365708e-01
2	 1	 32	 flanked	 rf	 4	 0.050000	 2.000000	 flanked_rf_freq_4_amplitude_0.05_rep_2_b_K_2.0.png	 K	 b	 t	 n.a.	 4.856003e-01
2	 1	 33	 flanked	 rf	 4	 0.050000	 2.000000	 flanked_rf_freq_4_amplitude_0.05_rep_0_l_N_2.0.png	 N	 l	 b	 n.a.	 2.390489e-01
2	 1	 34	 flanked	 rf	 4	 0.275000	 2.000000	 flanked_rf_freq_4_amplitude_0.275_rep_7_t_H_2.0.png	 H	 t	 r	 n.a.	 3.248312e-01
2	 1	 35	 flanked	 rf	 4	 0.350000	 2.000000	 flanked_rf_freq_4_amplitude_0.35_rep_5_t_K_2.0.png	 K	 t	 b	 n.a.	 6.374304e-01
2	 1	 36	 flanked	 rf	 4	 0.125000	 2.000000	 flanked_rf_freq_4_amplitude_0.125_rep_8_l_K_2.0.png	 K	 l	 l	 n.a.	 8.408213e-01
2	 1	 37	 flanked	 rf	 4	 0.500000	 2.000000	 flanked_rf_freq_4_amplitude_0.5_rep_4_r_H_2.0.png	 H	 r	 l	 n.a.	 5.792556e-01
2	 1	 38	 flanked	 rf	 4	 0.050000	 2.000000	 flanked_rf_freq_4_amplitude_0.05_rep_4_l_H_2.0.png	 H	 l	 b	 n.a.	 5.036651e-01
2	 1	 39	 flanked	 rf	 4	 0.500000	 2.000000	 flanked_rf_freq_4_amplitude_0.5_rep_2_b_D_2.0.png	 D	 b	 t	 n.a.	 5.079842e-01
2	 1	 40	 flanked	 rf	 4	 0.425000	 2.000000	 flanked_rf_freq_4_amplitude_0.425_rep_0_b_H_2.0.png	 H	 b	 l	 n.a.	 4.920051e-01
2	 1	 41	 flanked	 rf	 4	 0.275000	 2.000000	 flanked_rf_freq_4_amplitude_0.275_rep_4_l_H_2.0.png	 H	 l	 b	 n.a.	 3.413875e-01
2	 1	 42	 flanked	 rf	 4	 0.275000	 2.000000	 flanked_rf_freq_4_amplitude_0.275_rep_1_r_D_2.0.png	 D	 r	 l	 n.a.	 6.016753e-01
2	 1	 43	 flanked	 rf	 4	 0.275000	 2.000000	 flanked_rf_freq_4_amplitude_0.275_rep_6_t_K_2.0.png	 K	 t	 t	 n.a.	 3.902728e-01
2	 1	 44	 flanked	 rf	 4	 0.425000	 2.000000	 flanked_rf_freq_4_amplitude_0.425_rep_2_l_N_2.0.png	 N	 l	 l	 n.a.	 4.695017e-01
2	 1	 45	 flanked	 rf	 4	 0.425000	 2.000000	 flanked_rf_freq_4_amplitude_0.425_rep_9_l_K_2.0.png	 K	 l	 l	 n.a.	 3.862106e-01
2	 1	 46	 flanked	 rf	 4	 0.275000	 2.000000	 flanked_rf_freq_4_amplitude_0.275_rep_2_l_K_2.0.png	 K	 l	 l	 n.a.	 4.079739e-01
2	 1	 47	 flanked	 rf	 4	 0.050000	 2.000000	 flanked_rf_freq_4_amplitude_0.05_rep_1_l_H_2.0.png	 H	 l	 b	 n.a.	 5.698005e-01
2	 1	 48	 flanked	 rf	 4	 0.125000	 2.000000	 flanked_rf_freq_4_amplitude_0.125_rep_5_t_K_2.0.png	 K	 t	 t	 n.a.	 4.223138e-01
2	 1	 49	 flanked	 rf	 4	 0.425000	 2.000000	 flanked_rf_freq_4_amplitude_0.425_rep_7_r_H_2.0.png	 H	 r	 r	 n.a.	 3.557169e-01
2	 1	 50	 flanked	 rf	 4	 0.500000	 2.000000	 flanked_rf_freq_4_amplitude_0.5_rep_7_r_N_2.0.png	 N	 r	 r	 n.a.	 3.481242e-01
2	 1	 51	 flanked	 rf	 4	 0.425000	 2.000000	 flanked_rf_freq_4_amplitude_0.425_rep_3_b_N_2.0.png	 N	 b	 t	 n.a.	 3.861389e-01
2	 1	 52	 flanked	 rf	 4	 0.125000	 2.000000	 flanked_rf_freq_4_amplitude_0.125_rep_7_l_N_2.0.png	 N	 l	 b	 n.a.	 3.357975e-01
2	 1	 53	 flanked	 rf	 4	 0.350000	 2.000000	 flanked_rf_freq_4_amplitude_0.35_rep_7_r_K_2.0.png	 K	 r	 r	 n.a.	 3.660895e-01
2	 1	 54	 flanked	 rf	 4	 0.500000	 2.000000	 flanked_rf_freq_4_amplitude_0.5_rep_0_b_D_2.0.png	 D	 b	 b	 n.a.	 6.862211e-01
2	 1	 55	 flanked	 rf	 4	 0.275000	 2.000000	 flanked_rf_freq_4_amplitude_0.275_rep_0_r_K_2.0.png	 K	 r	 t	 n.a.	 5.991992e-01
2	 1	 56	 flanked	 rf	 4	 0.350000	 2.000000	 flanked_rf_freq_4_amplitude_0.35_rep_3_l_H_2.0.png	 H	 l	 l	 n.a.	 4.423487e-01
2	 1	 57	 flanked	 rf	 4	 0.350000	 2.000000	 flanked_rf_freq_4_amplitude_0.35_rep_4_b_N_2.0.png	 N	 b	 t	 n.a.	 4.681131e-01
2	 1	 58	 flanked	 rf	 4	 0.425000	 2.000000	 flanked_rf_freq_4_amplitude_0.425_rep_2_l_N_2.0.png	 N	 l	 l	 n.a.	 3.972744e-01
2	 1	 59	 flanked	 rf	 4	 0.500000	 2.000000	 flanked_rf_freq_4_amplitude_0.5_rep_6_b_H_2.0.png	 H	 b	 b	 n.a.	 6.357087e-01
2	 1	 60	 flanked	 rf	 4	 0.050000	 2.000000	 flanked_rf_freq_4_amplitude_0.05_rep_5_t_H_2.0.png	 H	 t	 b	 n.a.	 4.528172e-01
2	 1	 61	 flanked	 rf	 4	 0.350000	 2.000000	 flanked_rf_freq_4_amplitude_0.35_rep_6_b_H_2.0.png	 H	 b	 t	 n.a.	 4.349523e-01
2	 1	 62	 flanked	 rf	 4	 0.350000	 2.000000	 flanked_rf_freq_4_amplitude_0.35_rep_3_l_H_2.0.png	 H	 l	 l	 n.a.	 4.013080e-01
2	 1	 63	 flanked	 rf	 4	 0.050000	 2.000000	 flanked_rf_freq_4_amplitude_0.05_rep_1_l_H_2.0.png	 H	 l	 b	 n.a.	 4.259023e-01
2	 1	 64	 flanked	 rf	 4	 0.500000	 2.000000	 flanked_rf_freq_4_amplitude_0.5_rep_1_b_H_2.0.png	 H	 b	 b	 n.a.	 4.415443e-01
2	 1	 65	 flanked	 rf	 4	 0.125000	 2.000000	 flanked_rf_freq_4_amplitude_0.125_rep_0_r_H_2.0.png	 H	 r	 b	 n.a.	 6.584507e-01
2	 1	 66	 flanked	 rf	 4	 0.275000	 2.000000	 flanked_rf_freq_4_amplitude_0.275_rep_6_t_K_2.0.png	 K	 t	 t	 n.a.	 3.465779e-01
2	 1	 67	 flanked	 rf	 4	 0.350000	 2.000000	 flanked_rf_freq_4_amplitude_0.35_rep_2_b_D_2.0.png	 D	 b	 l	 n.a.	 4.050591e-01
2	 1	 68	 flanked	 rf	 4	 0.425000	 2.000000	 flanked_rf_freq_4_amplitude_0.425_rep_8_r_D_2.0.png	 D	 r	 r	 n.a.	 4.623285e-01
2	 1	 69	 flanked	 rf	 4	 0.050000	 2.000000	 flanked_rf_freq_4_amplitude_0.05_rep_8_t_N_2.0.png	 N	 t	 b	 n.a.	 4.820791e-01
2	 1	 70	 flanked	 rf	 4	 0.200000	 2.000000	 flanked_rf_freq_4_amplitude_0.2_rep_8_t_N_2.0.png	 N	 t	 b	 n.a.	 4.291025e-01
2	 1	 71	 flanked	 rf	 4	 0.425000	 2.000000	 flanked_rf_freq_4_amplitude_0.425_rep_9_l_K_2.0.png	 K	 l	 r	 n.a.	 4.388372e-01
2	 1	 72	 flanked	 rf	 4	 0.350000	 2.000000	 flanked_rf_freq_4_amplitude_0.35_rep_7_r_K_2.0.png	 K	 r	 t	 n.a.	 5.591106e-01
2	 1	 73	 flanked	 rf	 4	 0.275000	 2.000000	 flanked_rf_freq_4_amplitude_0.275_rep_6_t_K_2.0.png	 K	 t	 b	 n.a.	 2.399958e-01
2	 1	 74	 flanked	 rf	 4	 0.425000	 2.000000	 flanked_rf_freq_4_amplitude_0.425_rep_4_l_D_2.0.png	 D	 l	 l	 n.a.	 3.594970e-01
2	 1	 75	 flanked	 rf	 4	 0.200000	 2.000000	 flanked_rf_freq_4_amplitude_0.2_rep_2_r_D_2.0.png	 D	 r	 l	 n.a.	 5.443264e-01
2	 1	 76	 flanked	 rf	 4	 0.275000	 2.000000	 flanked_rf_freq_4_amplitude_0.275_rep_7_t_H_2.0.png	 H	 t	 b	 n.a.	 4.367322e-01
2	 1	 77	 flanked	 rf	 4	 0.200000	 2.000000	 flanked_rf_freq_4_amplitude_0.2_rep_7_b_D_2.0.png	 D	 b	 t	 n.a.	 3.955457e-01
2	 1	 78	 flanked	 rf	 4	 0.275000	 2.000000	 flanked_rf_freq_4_amplitude_0.275_rep_5_r_H_2.0.png	 H	 r	 b	 n.a.	 5.695466e-01
2	 1	 79	 flanked	 rf	 4	 0.275000	 2.000000	 flanked_rf_freq_4_amplitude_0.275_rep_3_b_N_2.0.png	 N	 b	 l	 n.a.	 6.364875e-01
2	 1	 80	 flanked	 rf	 4	 0.500000	 2.000000	 flanked_rf_freq_4_amplitude_0.5_rep_8_r_D_2.0.png	 D	 r	 t	 n.a.	 4.041576e-01
2	 1	 81	 flanked	 rf	 4	 0.425000	 2.000000	 flanked_rf_freq_4_amplitude_0.425_rep_1_r_N_2.0.png	 N	 r	 r	 n.a.	 3.705288e-01
2	 1	 82	 flanked	 rf	 4	 0.350000	 2.000000	 flanked_rf_freq_4_amplitude_0.35_rep_1_l_H_2.0.png	 H	 l	 l	 n.a.	 5.538748e-01
2	 1	 83	 flanked	 rf	 4	 0.200000	 2.000000	 flanked_rf_freq_4_amplitude_0.2_rep_9_l_N_2.0.png	 N	 l	 t	 n.a.	 4.240373e-01
2	 1	 84	 flanked	 rf	 4	 0.125000	 2.000000	 flanked_rf_freq_4_amplitude_0.125_rep_8_l_K_2.0.png	 K	 l	 b	 n.a.	 3.252375e-01
2	 1	 85	 flanked	 rf	 4	 0.200000	 2.000000	 flanked_rf_freq_4_amplitude_0.2_rep_3_t_N_2.0.png	 N	 t	 l	 n.a.	 2.206331e-01
2	 1	 86	 flanked	 rf	 4	 0.275000	 2.000000	 flanked_rf_freq_4_amplitude_0.275_rep_9_t_D_2.0.png	 D	 t	 t	 n.a.	 4.443787e-01
2	 1	 87	 flanked	 rf	 4	 0.500000	 2.000000	 flanked_rf_freq_4_amplitude_0.5_rep_9_l_K_2.0.png	 K	 l	 t	 n.a.	 3.398950e-01
2	 1	 88	 flanked	 rf	 4	 0.350000	 2.000000	 flanked_rf_freq_4_amplitude_0.35_rep_0_t_H_2.0.png	 H	 t	 b	 n.a.	 2.877478e-01
2	 1	 89	 flanked	 rf	 4	 0.275000	 2.000000	 flanked_rf_freq_4_amplitude_0.275_rep_5_r_H_2.0.png	 H	 r	 b	 n.a.	 4.765685e-01
2	 1	 90	 flanked	 rf	 4	 0.125000	 2.000000	 flanked_rf_freq_4_amplitude_0.125_rep_1_l_K_2.0.png	 K	 l	 l	 n.a.	 5.754243e-01
2	 1	 91	 flanked	 rf	 4	 0.425000	 2.000000	 flanked_rf_freq_4_amplitude_0.425_rep_5_t_H_2.0.png	 H	 t	 t	 n.a.	 4.311557e-01
2	 1	 92	 flanked	 rf	 4	 0.275000	 2.000000	 flanked_rf_freq_4_amplitude_0.275_rep_8_b_H_2.0.png	 H	 b	 t	 n.a.	 3.935316e-01
2	 1	 93	 flanked	 rf	 4	 0.275000	 2.000000	 flanked_rf_freq_4_amplitude_0.275_rep_7_t_H_2.0.png	 H	 t	 b	 n.a.	 3.445723e-01
2	 1	 94	 flanked	 rf	 4	 0.200000	 2.000000	 flanked_rf_freq_4_amplitude_0.2_rep_1_r_K_2.0.png	 K	 r	 l	 n.a.	 6.629516e-01
2	 1	 95	 flanked	 rf	 4	 0.275000	 2.000000	 flanked_rf_freq_4_amplitude_0.275_rep_9_t_D_2.0.png	 D	 t	 t	 n.a.	 3.708023e-01
2	 1	 96	 flanked	 rf	 4	 0.275000	 2.000000	 flanked_rf_freq_4_amplitude_0.275_rep_8_b_H_2.0.png	 H	 b	 t	 n.a.	 3.387460e-01
2	 1	 97	 flanked	 rf	 4	 0.275000	 2.000000	 flanked_rf_freq_4_amplitude_0.275_rep_3_b_N_2.0.png	 N	 b	 t	 n.a.	 5.477841e-01
2	 1	 98	 flanked	 rf	 4	 0.350000	 2.000000	 flanked_rf_freq_4_amplitude_0.35_rep_8_b_H_2.0.png	 H	 b	 b	 n.a.	 2.613662e-01
2	 1	 99	 flanked	 rf	 4	 0.350000	 2.000000	 flanked_rf_freq_4_amplitude_0.35_rep_5_t_K_2.0.png	 K	 t	 t	 n.a.	 3.921911e-01
2	 1	 100	 flanked	 rf	 4	 0.050000	 2.000000	 flanked_rf_freq_4_amplitude_0.05_rep_7_l_D_2.0.png	 D	 l	 b	 n.a.	 5.073133e-01
2	 1	 101	 flanked	 rf	 4	 0.050000	 2.000000	 flanked_rf_freq_4_amplitude_0.05_rep_3_b_N_2.0.png	 N	 b	 l	 n.a.	 6.866682e-01
2	 1	 102	 flanked	 rf	 4	 0.350000	 2.000000	 flanked_rf_freq_4_amplitude_0.35_rep_1_l_H_2.0.png	 H	 l	 l	 n.a.	 3.859038e-01
2	 1	 103	 flanked	 rf	 4	 0.050000	 2.000000	 flanked_rf_freq_4_amplitude_0.05_rep_3_b_N_2.0.png	 N	 b	 b	 n.a.	 4.819582e-01
2	 1	 104	 flanked	 rf	 4	 0.425000	 2.000000	 flanked_rf_freq_4_amplitude_0.425_rep_8_r_D_2.0.png	 D	 r	 r	 n.a.	 3.741273e-01
2	 1	 105	 flanked	 rf	 4	 0.200000	 2.000000	 flanked_rf_freq_4_amplitude_0.2_rep_1_r_K_2.0.png	 K	 r	 b	 n.a.	 3.941025e-01
2	 1	 106	 flanked	 rf	 4	 0.200000	 2.000000	 flanked_rf_freq_4_amplitude_0.2_rep_9_l_N_2.0.png	 N	 l	 l	 n.a.	 5.650752e-01
2	 1	 107	 flanked	 rf	 4	 0.275000	 2.000000	 flanked_rf_freq_4_amplitude_0.275_rep_5_r_H_2.0.png	 H	 r	 l	 n.a.	 4.146467e-01
2	 1	 108	 flanked	 rf	 4	 0.350000	 2.000000	 flanked_rf_freq_4_amplitude_0.35_rep_8_b_H_2.0.png	 H	 b	 b	 n.a.	 3.059316e-01
2	 1	 109	 flanked	 rf	 4	 0.125000	 2.000000	 flanked_rf_freq_4_amplitude_0.125_rep_7_l_N_2.0.png	 N	 l	 l	 n.a.	 5.248668e-01
2	 1	 110	 flanked	 rf	 4	 0.200000	 2.000000	 flanked_rf_freq_4_amplitude_0.2_rep_4_l_D_2.0.png	 D	 l	 l	 n.a.	 3.909761e-01
2	 1	 111	 flanked	 rf	 4	 0.500000	 2.000000	 flanked_rf_freq_4_amplitude_0.5_rep_8_r_D_2.0.png	 D	 r	 r	 n.a.	 3.809177e-01
2	 1	 112	 flanked	 rf	 4	 0.425000	 2.000000	 flanked_rf_freq_4_amplitude_0.425_rep_0_b_H_2.0.png	 H	 b	 b	 n.a.	 3.549448e-01
2	 1	 113	 flanked	 rf	 4	 0.425000	 2.000000	 flanked_rf_freq_4_amplitude_0.425_rep_1_r_N_2.0.png	 N	 r	 t	 n.a.	 5.037166e-01
2	 1	 114	 flanked	 rf	 4	 0.500000	 2.000000	 flanked_rf_freq_4_amplitude_0.5_rep_0_b_D_2.0.png	 D	 b	 r	 n.a.	 3.726039e-01
2	 1	 115	 flanked	 rf	 4	 0.500000	 2.000000	 flanked_rf_freq_4_amplitude_0.5_rep_7_r_N_2.0.png	 N	 r	 l	 n.a.	 5.202768e-01
2	 1	 116	 flanked	 rf	 4	 0.050000	 2.000000	 flanked_rf_freq_4_amplitude_0.05_rep_9_l_N_2.0.png	 N	 l	 b	 n.a.	 3.272702e-01
2	 1	 117	 flanked	 rf	 4	 0.425000	 2.000000	 flanked_rf_freq_4_amplitude_0.425_rep_7_r_H_2.0.png	 H	 r	 r	 n.a.	 3.856375e-01
2	 1	 118	 flanked	 rf	 4	 0.125000	 2.000000	 flanked_rf_freq_4_amplitude_0.125_rep_2_t_D_2.0.png	 D	 t	 l	 n.a.	 4.610043e-01
2	 1	 119	 flanked	 rf	 4	 0.125000	 2.000000	 flanked_rf_freq_4_amplitude_0.125_rep_7_l_N_2.0.png	 N	 l	 b	 n.a.	 3.641666e-01
2	 1	 120	 flanked	 rf	 4	 0.050000	 2.000000	 flanked_rf_freq_4_amplitude_0.05_rep_1_l_H_2.0.png	 H	 l	 t	 n.a.	 3.334431e-01
2	 1	 121	 flanked	 rf	 4	 0.050000	 2.000000	 flanked_rf_freq_4_amplitude_0.05_rep_0_l_N_2.0.png	 N	 l	 r	 n.a.	 4.906706e-01
2	 1	 122	 flanked	 rf	 4	 0.050000	 2.000000	 flanked_rf_freq_4_amplitude_0.05_rep_7_l_D_2.0.png	 D	 l	 b	 n.a.	 5.608973e-01
2	 1	 123	 flanked	 rf	 4	 0.275000	 2.000000	 flanked_rf_freq_4_amplitude_0.275_rep_2_l_K_2.0.png	 K	 l	 l	 n.a.	 4.214499e-01
2	 1	 124	 flanked	 rf	 4	 0.200000	 2.000000	 flanked_rf_freq_4_amplitude_0.2_rep_6_b_D_2.0.png	 D	 b	 t	 n.a.	 5.691351e-01
2	 1	 125	 flanked	 rf	 4	 0.425000	 2.000000	 flanked_rf_freq_4_amplitude_0.425_rep_7_r_H_2.0.png	 H	 r	 r	 n.a.	 4.247523e-01
2	 1	 126	 flanked	 rf	 4	 0.275000	 2.000000	 flanked_rf_freq_4_amplitude_0.275_rep_9_t_D_2.0.png	 D	 t	 l	 n.a.	 6.338466e-01
2	 1	 127	 flanked	 rf	 4	 0.125000	 2.000000	 flanked_rf_freq_4_amplitude_0.125_rep_4_t_D_2.0.png	 D	 t	 b	 n.a.	 4.232936e-01
2	 1	 128	 flanked	 rf	 4	 0.350000	 2.000000	 flanked_rf_freq_4_amplitude_0.35_rep_1_l_H_2.0.png	 H	 l	 l	 n.a.	 4.223300e-01
2	 1	 129	 flanked	 rf	 4	 0.200000	 2.000000	 flanked_rf_freq_4_amplitude_0.2_rep_7_b_D_2.0.png	 D	 b	 b	 n.a.	 4.450093e-01
2	 1	 130	 flanked	 rf	 4	 0.050000	 2.000000	 flanked_rf_freq_4_amplitude_0.05_rep_3_b_N_2.0.png	 N	 b	 l	 n.a.	 5.537901e-01
2	 1	 131	 flanked	 rf	 4	 0.350000	 2.000000	 flanked_rf_freq_4_amplitude_0.35_rep_9_t_D_2.0.png	 D	 t	 t	 n.a.	 5.102046e-01
2	 1	 132	 flanked	 rf	 4	 0.350000	 2.000000	 flanked_rf_freq_4_amplitude_0.35_rep_5_t_K_2.0.png	 K	 t	 b	 n.a.	 3.671116e-01
2	 1	 133	 flanked	 rf	 4	 0.500000	 2.000000	 flanked_rf_freq_4_amplitude_0.5_rep_3_l_K_2.0.png	 K	 l	 l	 n.a.	 3.465268e-01
2	 1	 134	 flanked	 rf	 4	 0.275000	 2.000000	 flanked_rf_freq_4_amplitude_0.275_rep_1_r_D_2.0.png	 D	 r	 l	 n.a.	 4.547204e-01
2	 1	 135	 flanked	 rf	 4	 0.200000	 2.000000	 flanked_rf_freq_4_amplitude_0.2_rep_4_l_D_2.0.png	 D	 l	 t	 n.a.	 4.897060e-01
2	 1	 136	 flanked	 rf	 4	 0.125000	 2.000000	 flanked_rf_freq_4_amplitude_0.125_rep_8_l_K_2.0.png	 K	 l	 l	 n.a.	 4.098833e-01
2	 1	 137	 flanked	 rf	 4	 0.125000	 2.000000	 flanked_rf_freq_4_amplitude_0.125_rep_3_r_N_2.0.png	 N	 r	 b	 n.a.	 4.377170e-01
2	 1	 138	 flanked	 rf	 4	 0.200000	 2.000000	 flanked_rf_freq_4_amplitude_0.2_rep_0_l_N_2.0.png	 N	 l	 t	 n.a.	 6.620212e-01
2	 1	 139	 flanked	 rf	 4	 0.200000	 2.000000	 flanked_rf_freq_4_amplitude_0.2_rep_6_b_D_2.0.png	 D	 b	 t	 n.a.	 5.916491e-01
2	 1	 140	 flanked	 rf	 4	 0.200000	 2.000000	 flanked_rf_freq_4_amplitude_0.2_rep_9_l_N_2.0.png	 N	 l	 r	 n.a.	 6.151248e-01
2	 1	 141	 flanked	 rf	 4	 0.500000	 2.000000	 flanked_rf_freq_4_amplitude_0.5_rep_4_r_H_2.0.png	 H	 r	 l	 n.a.	 7.745219e-01
2	 1	 142	 flanked	 rf	 4	 0.500000	 2.000000	 flanked_rf_freq_4_amplitude_0.5_rep_3_l_K_2.0.png	 K	 l	 t	 n.a.	 6.136825e-01
2	 1	 143	 flanked	 rf	 4	 0.200000	 2.000000	 flanked_rf_freq_4_amplitude_0.2_rep_3_t_N_2.0.png	 N	 t	 b	 n.a.	 4.053713e-01
2	 1	 144	 flanked	 rf	 4	 0.350000	 2.000000	 flanked_rf_freq_4_amplitude_0.35_rep_3_l_H_2.0.png	 H	 l	 l	 n.a.	 5.051078e-01
2	 1	 145	 flanked	 rf	 4	 0.500000	 2.000000	 flanked_rf_freq_4_amplitude_0.5_rep_2_b_D_2.0.png	 D	 b	 r	 n.a.	 3.818602e-01
2	 1	 146	 flanked	 rf	 4	 0.425000	 2.000000	 flanked_rf_freq_4_amplitude_0.425_rep_6_t_N_2.0.png	 N	 t	 b	 n.a.	 4.359090e-01
2	 1	 147	 flanked	 rf	 4	 0.425000	 2.000000	 flanked_rf_freq_4_amplitude_0.425_rep_2_l_N_2.0.png	 N	 l	 t	 n.a.	 3.265540e-01
2	 1	 148	 flanked	 rf	 4	 0.125000	 2.000000	 flanked_rf_freq_4_amplitude_0.125_rep_3_r_N_2.0.png	 N	 r	 l	 n.a.	 6.124941e-01
2	 1	 149	 flanked	 rf	 4	 0.500000	 2.000000	 flanked_rf_freq_4_amplitude_0.5_rep_5_t_D_2.0.png	 D	 t	 r	 n.a.	 3.980524e-01
2	 1	 150	 flanked	 rf	 4	 0.200000	 2.000000	 flanked_rf_freq_4_amplitude_0.2_rep_1_r_K_2.0.png	 K	 r	 b	 n.a.	 6.616769e-01
2	 1	 151	 flanked	 rf	 4	 0.200000	 2.000000	 flanked_rf_freq_4_amplitude_0.2_rep_3_t_N_2.0.png	 N	 t	 l	 n.a.	 3.659625e-01
2	 1	 152	 flanked	 rf	 4	 0.125000	 2.000000	 flanked_rf_freq_4_amplitude_0.125_rep_6_r_N_2.0.png	 N	 r	 b	 n.a.	 3.454788e-01
2	 1	 153	 flanked	 rf	 4	 0.125000	 2.000000	 flanked_rf_freq_4_amplitude_0.125_rep_3_r_N_2.0.png	 N	 r	 t	 n.a.	 3.385776e-01
2	 1	 154	 flanked	 rf	 4	 0.050000	 2.000000	 flanked_rf_freq_4_amplitude_0.05_rep_2_b_K_2.0.png	 K	 b	 b	 n.a.	 4.532175e-01
2	 1	 155	 flanked	 rf	 4	 0.125000	 2.000000	 flanked_rf_freq_4_amplitude_0.125_rep_1_l_K_2.0.png	 K	 l	 b	 n.a.	 3.725534e-01
2	 1	 156	 flanked	 rf	 4	 0.200000	 2.000000	 flanked_rf_freq_4_amplitude_0.2_rep_8_t_N_2.0.png	 N	 t	 r	 n.a.	 4.819646e-01
2	 1	 157	 flanked	 rf	 4	 0.125000	 2.000000	 flanked_rf_freq_4_amplitude_0.125_rep_9_l_K_2.0.png	 K	 l	 l	 n.a.	 3.562783e-01
2	 1	 158	 flanked	 rf	 4	 0.050000	 2.000000	 flanked_rf_freq_4_amplitude_0.05_rep_4_l_H_2.0.png	 H	 l	 b	 n.a.	 3.940266e-01
2	 1	 159	 flanked	 rf	 4	 0.425000	 2.000000	 flanked_rf_freq_4_amplitude_0.425_rep_5_t_H_2.0.png	 H	 t	 t	 n.a.	 3.795980e-01
2	 1	 160	 flanked	 rf	 4	 0.500000	 2.000000	 flanked_rf_freq_4_amplitude_0.5_rep_9_l_K_2.0.png	 K	 l	 t	 n.a.	 4.865033e-01
2	 1	 161	 flanked	 rf	 4	 0.125000	 2.000000	 flanked_rf_freq_4_amplitude_0.125_rep_2_t_D_2.0.png	 D	 t	 l	 n.a.	 5.566084e-01
2	 1	 162	 flanked	 rf	 4	 0.425000	 2.000000	 flanked_rf_freq_4_amplitude_0.425_rep_1_r_N_2.0.png	 N	 r	 b	 n.a.	 3.850929e-01
2	 1	 163	 flanked	 rf	 4	 0.275000	 2.000000	 flanked_rf_freq_4_amplitude_0.275_rep_3_b_N_2.0.png	 N	 b	 r	 n.a.	 5.165641e-01
2	 1	 164	 flanked	 rf	 4	 0.200000	 2.000000	 flanked_rf_freq_4_amplitude_0.2_rep_0_l_N_2.0.png	 N	 l	 l	 n.a.	 4.468204e-01
2	 1	 165	 flanked	 rf	 4	 0.200000	 2.000000	 flanked_rf_freq_4_amplitude_0.2_rep_2_r_D_2.0.png	 D	 r	 l	 n.a.	 6.129940e-01
2	 1	 166	 flanked	 rf	 4	 0.350000	 2.000000	 flanked_rf_freq_4_amplitude_0.35_rep_9_t_D_2.0.png	 D	 t	 l	 n.a.	 6.029621e-01
2	 1	 167	 flanked	 rf	 4	 0.425000	 2.000000	 flanked_rf_freq_4_amplitude_0.425_rep_9_l_K_2.0.png	 K	 l	 t	 n.a.	 6.064530e-01
2	 1	 168	 flanked	 rf	 4	 0.500000	 2.000000	 flanked_rf_freq_4_amplitude_0.5_rep_4_r_H_2.0.png	 H	 r	 r	 n.a.	 4.144489e-01
2	 1	 169	 flanked	 rf	 4	 0.500000	 2.000000	 flanked_rf_freq_4_amplitude_0.5_rep_1_b_H_2.0.png	 H	 b	 l	 n.a.	 6.509221e-01
2	 1	 170	 flanked	 rf	 4	 0.500000	 2.000000	 flanked_rf_freq_4_amplitude_0.5_rep_2_b_D_2.0.png	 D	 b	 t	 n.a.	 4.166355e-01
2	 1	 171	 flanked	 rf	 4	 0.050000	 2.000000	 flanked_rf_freq_4_amplitude_0.05_rep_9_l_N_2.0.png	 N	 l	 b	 n.a.	 3.367306e-01
2	 1	 172	 flanked	 rf	 4	 0.125000	 2.000000	 flanked_rf_freq_4_amplitude_0.125_rep_4_t_D_2.0.png	 D	 t	 r	 n.a.	 4.210371e-01
2	 1	 173	 flanked	 rf	 4	 0.050000	 2.000000	 flanked_rf_freq_4_amplitude_0.05_rep_5_t_H_2.0.png	 H	 t	 b	 n.a.	 3.382189e-01
2	 1	 174	 flanked	 rf	 4	 0.125000	 2.000000	 flanked_rf_freq_4_amplitude_0.125_rep_6_r_N_2.0.png	 N	 r	 b	 n.a.	 4.042911e-01
2	 1	 175	 flanked	 rf	 4	 0.425000	 2.000000	 flanked_rf_freq_4_amplitude_0.425_rep_3_b_N_2.0.png	 N	 b	 b	 n.a.	 3.930386e-01
2	 1	 176	 flanked	 rf	 4	 0.350000	 2.000000	 flanked_rf_freq_4_amplitude_0.35_rep_6_b_H_2.0.png	 H	 b	 t	 n.a.	 3.814813e-01
2	 1	 177	 flanked	 rf	 4	 0.350000	 2.000000	 flanked_rf_freq_4_amplitude_0.35_rep_8_b_H_2.0.png	 H	 b	 b	 n.a.	 3.581294e-01
2	 1	 178	 flanked	 rf	 4	 0.275000	 2.000000	 flanked_rf_freq_4_amplitude_0.275_rep_8_b_H_2.0.png	 H	 b	 t	 n.a.	 5.074505e-01
2	 1	 179	 flanked	 rf	 4	 0.425000	 2.000000	 flanked_rf_freq_4_amplitude_0.425_rep_4_l_D_2.0.png	 D	 l	 r	 n.a.	 3.891759e-01
2	 1	 180	 flanked	 rf	 4	 0.125000	 2.000000	 flanked_rf_freq_4_amplitude_0.125_rep_4_t_D_2.0.png	 D	 t	 l	 n.a.	 3.720955e-01
2	 1	 181	 flanked	 rf	 4	 0.200000	 2.000000	 flanked_rf_freq_4_amplitude_0.2_rep_5_l_K_2.0.png	 K	 l	 b	 n.a.	 3.629952e-01
2	 1	 182	 flanked	 rf	 4	 0.425000	 2.000000	 flanked_rf_freq_4_amplitude_0.425_rep_6_t_N_2.0.png	 N	 t	 t	 n.a.	 4.546918e-01
2	 1	 183	 flanked	 rf	 4	 0.050000	 2.000000	 flanked_rf_freq_4_amplitude_0.05_rep_6_t_K_2.0.png	 K	 t	 l	 n.a.	 4.894713e-01
2	 1	 184	 flanked	 rf	 4	 0.200000	 2.000000	 flanked_rf_freq_4_amplitude_0.2_rep_8_t_N_2.0.png	 N	 t	 b	 n.a.	 3.161454e-01
2	 1	 185	 flanked	 rf	 4	 0.200000	 2.000000	 flanked_rf_freq_4_amplitude_0.2_rep_0_l_N_2.0.png	 N	 l	 l	 n.a.	 4.432186e-01
2	 1	 186	 flanked	 rf	 4	 0.500000	 2.000000	 flanked_rf_freq_4_amplitude_0.5_rep_7_r_N_2.0.png	 N	 r	 r	 n.a.	 3.787416e-01
2	 1	 187	 flanked	 rf	 4	 0.275000	 2.000000	 flanked_rf_freq_4_amplitude_0.275_rep_2_l_K_2.0.png	 K	 l	 l	 n.a.	 4.515960e-01
2	 1	 188	 flanked	 rf	 4	 0.125000	 2.000000	 flanked_rf_freq_4_amplitude_0.125_rep_9_l_K_2.0.png	 K	 l	 r	 n.a.	 4.879811e-01
2	 1	 189	 flanked	 rf	 4	 0.500000	 2.000000	 flanked_rf_freq_4_amplitude_0.5_rep_5_t_D_2.0.png	 D	 t	 t	 n.a.	 4.507976e-01
2	 1	 190	 flanked	 rf	 4	 0.275000	 2.000000	 flanked_rf_freq_4_amplitude_0.275_rep_0_r_K_2.0.png	 K	 r	 b	 n.a.	 1.146189e+00
2	 1	 191	 flanked	 rf	 4	 0.125000	 2.000000	 flanked_rf_freq_4_amplitude_0.125_rep_0_r_H_2.0.png	 H	 r	 t	 n.a.	 5.170074e-01
2	 1	 192	 flanked	 rf	 4	 0.200000	 2.000000	 flanked_rf_freq_4_amplitude_0.2_rep_5_l_K_2.0.png	 K	 l	 b	 n.a.	 3.371440e-01
2	 1	 193	 flanked	 rf	 4	 0.200000	 2.000000	 flanked_rf_freq_4_amplitude_0.2_rep_4_l_D_2.0.png	 D	 l	 l	 n.a.	 4.069411e-01
2	 1	 194	 flanked	 rf	 4	 0.500000	 2.000000	 flanked_rf_freq_4_amplitude_0.5_rep_8_r_D_2.0.png	 D	 r	 r	 n.a.	 5.167041e-01
2	 1	 195	 flanked	 rf	 4	 0.050000	 2.000000	 flanked_rf_freq_4_amplitude_0.05_rep_7_l_D_2.0.png	 D	 l	 b	 n.a.	 4.343418e-01
2	 1	 196	 flanked	 rf	 4	 0.275000	 2.000000	 flanked_rf_freq_4_amplitude_0.275_rep_4_l_H_2.0.png	 H	 l	 b	 n.a.	 4.561323e-01
2	 1	 197	 flanked	 rf	 4	 0.350000	 2.000000	 flanked_rf_freq_4_amplitude_0.35_rep_7_r_K_2.0.png	 K	 r	 t	 n.a.	 4.464680e-01
2	 1	 198	 flanked	 rf	 4	 0.125000	 2.000000	 flanked_rf_freq_4_amplitude_0.125_rep_9_l_K_2.0.png	 K	 l	 r	 n.a.	 4.541984e-01
2	 1	 199	 flanked	 rf	 4	 0.500000	 2.000000	 flanked_rf_freq_4_amplitude_0.5_rep_6_b_H_2.0.png	 H	 b	 t	 n.a.	 4.402678e-01
2	 1	 200	 flanked	 rf	 4	 0.200000	 2.000000	 flanked_rf_freq_4_amplitude_0.2_rep_2_r_D_2.0.png	 D	 r	 l	 n.a.	 4.189488e-01
2	 1	 201	 flanked	 rf	 4	 0.050000	 2.000000	 flanked_rf_freq_4_amplitude_0.05_rep_9_l_N_2.0.png	 N	 l	 b	 n.a.	 2.801300e-01
2	 1	 202	 flanked	 rf	 4	 0.050000	 2.000000	 flanked_rf_freq_4_amplitude_0.05_rep_6_t_K_2.0.png	 K	 t	 b	 n.a.	 4.255145e-01
2	 1	 203	 flanked	 rf	 4	 0.350000	 2.000000	 flanked_rf_freq_4_amplitude_0.35_rep_6_b_H_2.0.png	 H	 b	 b	 n.a.	 4.110038e-01
2	 1	 204	 flanked	 rf	 4	 0.500000	 2.000000	 flanked_rf_freq_4_amplitude_0.5_rep_1_b_H_2.0.png	 H	 b	 t	 n.a.	 7.619911e-01
2	 1	 205	 flanked	 rf	 4	 0.050000	 2.000000	 flanked_rf_freq_4_amplitude_0.05_rep_8_t_N_2.0.png	 N	 t	 b	 n.a.	 5.041058e-01
2	 1	 206	 flanked	 rf	 4	 0.275000	 2.000000	 flanked_rf_freq_4_amplitude_0.275_rep_0_r_K_2.0.png	 K	 r	 b	 n.a.	 5.597920e-01
2	 1	 207	 flanked	 rf	 4	 0.425000	 2.000000	 flanked_rf_freq_4_amplitude_0.425_rep_5_t_H_2.0.png	 H	 t	 t	 n.a.	 5.091442e-01
2	 1	 208	 flanked	 rf	 4	 0.125000	 2.000000	 flanked_rf_freq_4_amplitude_0.125_rep_5_t_K_2.0.png	 K	 t	 t	 n.a.	 6.795281e-01
2	 1	 209	 flanked	 rf	 4	 0.200000	 2.000000	 flanked_rf_freq_4_amplitude_0.2_rep_7_b_D_2.0.png	 D	 b	 b	 n.a.	 4.248007e-01
2	 1	 210	 flanked	 rf	 4	 0.050000	 2.000000	 flanked_rf_freq_4_amplitude_0.05_rep_8_t_N_2.0.png	 N	 t	 b	 n.a.	 4.800153e-01
