subject	 session	 trial	 flanked	 distortion	 freq	 amplitude	 spacing	 im_name	 targ_letter	 targ_pos	 response	 eyemovement	 RT
5	 2	 1	 flanked	 rf	 4	 0.275000	 2.000000	 flanked_rf_freq_4_amplitude_0.275_rep_8_b_H_2.0.png	 H	 b	 r	 n.a.	 5.928414e-01
5	 2	 2	 flanked	 rf	 4	 0.200000	 2.000000	 flanked_rf_freq_4_amplitude_0.2_rep_6_b_D_2.0.png	 D	 b	 t	 n.a.	 5.276985e-01
5	 2	 3	 flanked	 rf	 4	 0.275000	 2.000000	 flanked_rf_freq_4_amplitude_0.275_rep_7_t_H_2.0.png	 H	 t	 r	 n.a.	 1.261977e+00
5	 2	 4	 flanked	 rf	 4	 0.500000	 2.000000	 flanked_rf_freq_4_amplitude_0.5_rep_9_l_K_2.0.png	 K	 l	 b	 n.a.	 7.294165e-01
5	 2	 5	 flanked	 rf	 4	 0.425000	 2.000000	 flanked_rf_freq_4_amplitude_0.425_rep_3_b_N_2.0.png	 N	 b	 r	 n.a.	 5.574958e-01
5	 2	 6	 flanked	 rf	 4	 0.050000	 2.000000	 flanked_rf_freq_4_amplitude_0.05_rep_0_l_N_2.0.png	 N	 l	 r	 n.a.	 8.580738e-01
5	 2	 7	 flanked	 rf	 4	 0.200000	 2.000000	 flanked_rf_freq_4_amplitude_0.2_rep_0_l_N_2.0.png	 N	 l	 b	 n.a.	 8.178909e-01
5	 2	 8	 flanked	 rf	 4	 0.050000	 2.000000	 flanked_rf_freq_4_amplitude_0.05_rep_7_l_D_2.0.png	 D	 l	 r	 n.a.	 5.615876e-01
5	 2	 9	 flanked	 rf	 4	 0.200000	 2.000000	 flanked_rf_freq_4_amplitude_0.2_rep_9_l_N_2.0.png	 N	 l	 r	 n.a.	 9.878889e-01
5	 2	 10	 flanked	 rf	 4	 0.050000	 2.000000	 flanked_rf_freq_4_amplitude_0.05_rep_4_l_H_2.0.png	 H	 l	 t	 n.a.	 1.003483e+00
5	 2	 11	 flanked	 rf	 4	 0.425000	 2.000000	 flanked_rf_freq_4_amplitude_0.425_rep_4_l_D_2.0.png	 D	 l	 l	 n.a.	 5.633388e-01
5	 2	 12	 flanked	 rf	 4	 0.275000	 2.000000	 flanked_rf_freq_4_amplitude_0.275_rep_1_r_D_2.0.png	 D	 r	 b	 n.a.	 6.779996e-01
5	 2	 13	 flanked	 rf	 4	 0.500000	 2.000000	 flanked_rf_freq_4_amplitude_0.5_rep_2_b_D_2.0.png	 D	 b	 r	 n.a.	 1.077363e+00
5	 2	 14	 flanked	 rf	 4	 0.200000	 2.000000	 flanked_rf_freq_4_amplitude_0.2_rep_2_r_D_2.0.png	 D	 r	 r	 n.a.	 6.183552e-01
5	 2	 15	 flanked	 rf	 4	 0.500000	 2.000000	 flanked_rf_freq_4_amplitude_0.5_rep_0_b_D_2.0.png	 D	 b	 t	 n.a.	 1.065646e+00
5	 2	 16	 flanked	 rf	 4	 0.275000	 2.000000	 flanked_rf_freq_4_amplitude_0.275_rep_0_r_K_2.0.png	 K	 r	 r	 n.a.	 6.584232e-01
5	 2	 17	 flanked	 rf	 4	 0.050000	 2.000000	 flanked_rf_freq_4_amplitude_0.05_rep_1_l_H_2.0.png	 H	 l	 b	 n.a.	 1.005095e+00
5	 2	 18	 flanked	 rf	 4	 0.350000	 2.000000	 flanked_rf_freq_4_amplitude_0.35_rep_4_b_N_2.0.png	 N	 b	 t	 n.a.	 7.773042e-01
5	 2	 19	 flanked	 rf	 4	 0.125000	 2.000000	 flanked_rf_freq_4_amplitude_0.125_rep_7_l_N_2.0.png	 N	 l	 b	 n.a.	 7.571731e-01
5	 2	 20	 flanked	 rf	 4	 0.200000	 2.000000	 flanked_rf_freq_4_amplitude_0.2_rep_4_l_D_2.0.png	 D	 l	 t	 n.a.	 9.398392e-01
5	 2	 21	 flanked	 rf	 4	 0.125000	 2.000000	 flanked_rf_freq_4_amplitude_0.125_rep_1_l_K_2.0.png	 K	 l	 l	 n.a.	 1.074880e+00
5	 2	 22	 flanked	 rf	 4	 0.425000	 2.000000	 flanked_rf_freq_4_amplitude_0.425_rep_4_l_D_2.0.png	 D	 l	 l	 n.a.	 7.638972e-01
5	 2	 23	 flanked	 rf	 4	 0.425000	 2.000000	 flanked_rf_freq_4_amplitude_0.425_rep_7_r_H_2.0.png	 H	 r	 r	 n.a.	 1.041221e+00
5	 2	 24	 flanked	 rf	 4	 0.200000	 2.000000	 flanked_rf_freq_4_amplitude_0.2_rep_3_t_N_2.0.png	 N	 t	 t	 n.a.	 9.083774e-01
5	 2	 25	 flanked	 rf	 4	 0.350000	 2.000000	 flanked_rf_freq_4_amplitude_0.35_rep_8_b_H_2.0.png	 H	 b	 b	 n.a.	 7.831831e-01
5	 2	 26	 flanked	 rf	 4	 0.200000	 2.000000	 flanked_rf_freq_4_amplitude_0.2_rep_8_t_N_2.0.png	 N	 t	 r	 n.a.	 9.551568e-01
5	 2	 27	 flanked	 rf	 4	 0.050000	 2.000000	 flanked_rf_freq_4_amplitude_0.05_rep_5_t_H_2.0.png	 H	 t	 b	 n.a.	 4.298472e-01
5	 2	 28	 flanked	 rf	 4	 0.200000	 2.000000	 flanked_rf_freq_4_amplitude_0.2_rep_9_l_N_2.0.png	 N	 l	 r	 n.a.	 5.137433e-01
5	 2	 29	 flanked	 rf	 4	 0.050000	 2.000000	 flanked_rf_freq_4_amplitude_0.05_rep_3_b_N_2.0.png	 N	 b	 b	 n.a.	 7.096688e-01
5	 2	 30	 flanked	 rf	 4	 0.125000	 2.000000	 flanked_rf_freq_4_amplitude_0.125_rep_8_l_K_2.0.png	 K	 l	 l	 n.a.	 4.440096e-01
5	 2	 31	 flanked	 rf	 4	 0.350000	 2.000000	 flanked_rf_freq_4_amplitude_0.35_rep_7_r_K_2.0.png	 K	 r	 r	 n.a.	 7.471628e-01
5	 2	 32	 flanked	 rf	 4	 0.500000	 2.000000	 flanked_rf_freq_4_amplitude_0.5_rep_1_b_H_2.0.png	 H	 b	 t	 n.a.	 6.941536e-01
5	 2	 33	 flanked	 rf	 4	 0.350000	 2.000000	 flanked_rf_freq_4_amplitude_0.35_rep_2_b_D_2.0.png	 D	 b	 b	 n.a.	 8.534679e-01
5	 2	 34	 flanked	 rf	 4	 0.200000	 2.000000	 flanked_rf_freq_4_amplitude_0.2_rep_2_r_D_2.0.png	 D	 r	 r	 n.a.	 1.586292e+00
5	 2	 35	 flanked	 rf	 4	 0.275000	 2.000000	 flanked_rf_freq_4_amplitude_0.275_rep_9_t_D_2.0.png	 D	 t	 r	 n.a.	 7.081571e-01
5	 2	 36	 flanked	 rf	 4	 0.200000	 2.000000	 flanked_rf_freq_4_amplitude_0.2_rep_3_t_N_2.0.png	 N	 t	 t	 n.a.	 5.326297e-01
5	 2	 37	 flanked	 rf	 4	 0.050000	 2.000000	 flanked_rf_freq_4_amplitude_0.05_rep_8_t_N_2.0.png	 N	 t	 b	 n.a.	 7.361637e-01
5	 2	 38	 flanked	 rf	 4	 0.200000	 2.000000	 flanked_rf_freq_4_amplitude_0.2_rep_3_t_N_2.0.png	 N	 t	 t	 n.a.	 5.850448e-01
5	 2	 39	 flanked	 rf	 4	 0.350000	 2.000000	 flanked_rf_freq_4_amplitude_0.35_rep_5_t_K_2.0.png	 K	 t	 t	 n.a.	 7.419578e-01
5	 2	 40	 flanked	 rf	 4	 0.200000	 2.000000	 flanked_rf_freq_4_amplitude_0.2_rep_6_b_D_2.0.png	 D	 b	 l	 n.a.	 9.221152e-01
5	 2	 41	 flanked	 rf	 4	 0.350000	 2.000000	 flanked_rf_freq_4_amplitude_0.35_rep_6_b_H_2.0.png	 H	 b	 r	 n.a.	 8.331252e-01
5	 2	 42	 flanked	 rf	 4	 0.350000	 2.000000	 flanked_rf_freq_4_amplitude_0.35_rep_6_b_H_2.0.png	 H	 b	 b	 n.a.	 7.763668e-01
5	 2	 43	 flanked	 rf	 4	 0.050000	 2.000000	 flanked_rf_freq_4_amplitude_0.05_rep_5_t_H_2.0.png	 H	 t	 b	 n.a.	 1.063800e+00
5	 2	 44	 flanked	 rf	 4	 0.425000	 2.000000	 flanked_rf_freq_4_amplitude_0.425_rep_6_t_N_2.0.png	 N	 t	 t	 n.a.	 4.826468e-01
5	 2	 45	 flanked	 rf	 4	 0.125000	 2.000000	 flanked_rf_freq_4_amplitude_0.125_rep_8_l_K_2.0.png	 K	 l	 b	 n.a.	 9.120441e-01
5	 2	 46	 flanked	 rf	 4	 0.500000	 2.000000	 flanked_rf_freq_4_amplitude_0.5_rep_3_l_K_2.0.png	 K	 l	 l	 n.a.	 9.954540e-01
5	 2	 47	 flanked	 rf	 4	 0.350000	 2.000000	 flanked_rf_freq_4_amplitude_0.35_rep_3_l_H_2.0.png	 H	 l	 l	 n.a.	 8.545992e-01
5	 2	 48	 flanked	 rf	 4	 0.125000	 2.000000	 flanked_rf_freq_4_amplitude_0.125_rep_2_t_D_2.0.png	 D	 t	 r	 n.a.	 7.850107e-01
5	 2	 49	 flanked	 rf	 4	 0.200000	 2.000000	 flanked_rf_freq_4_amplitude_0.2_rep_6_b_D_2.0.png	 D	 b	 t	 n.a.	 6.090646e-01
5	 2	 50	 flanked	 rf	 4	 0.125000	 2.000000	 flanked_rf_freq_4_amplitude_0.125_rep_4_t_D_2.0.png	 D	 t	 b	 n.a.	 6.440510e-01
5	 2	 51	 flanked	 rf	 4	 0.125000	 2.000000	 flanked_rf_freq_4_amplitude_0.125_rep_7_l_N_2.0.png	 N	 l	 b	 n.a.	 7.352123e-01
5	 2	 52	 flanked	 rf	 4	 0.425000	 2.000000	 flanked_rf_freq_4_amplitude_0.425_rep_3_b_N_2.0.png	 N	 b	 r	 n.a.	 1.371314e+00
5	 2	 53	 flanked	 rf	 4	 0.275000	 2.000000	 flanked_rf_freq_4_amplitude_0.275_rep_6_t_K_2.0.png	 K	 t	 t	 n.a.	 4.120035e-01
5	 2	 54	 flanked	 rf	 4	 0.050000	 2.000000	 flanked_rf_freq_4_amplitude_0.05_rep_9_l_N_2.0.png	 N	 l	 b	 n.a.	 5.686494e-01
5	 2	 55	 flanked	 rf	 4	 0.500000	 2.000000	 flanked_rf_freq_4_amplitude_0.5_rep_6_b_H_2.0.png	 H	 b	 t	 n.a.	 5.896883e-01
5	 2	 56	 flanked	 rf	 4	 0.125000	 2.000000	 flanked_rf_freq_4_amplitude_0.125_rep_5_t_K_2.0.png	 K	 t	 b	 n.a.	 5.677229e-01
5	 2	 57	 flanked	 rf	 4	 0.125000	 2.000000	 flanked_rf_freq_4_amplitude_0.125_rep_9_l_K_2.0.png	 K	 l	 b	 n.a.	 6.438632e-01
5	 2	 58	 flanked	 rf	 4	 0.425000	 2.000000	 flanked_rf_freq_4_amplitude_0.425_rep_9_l_K_2.0.png	 K	 l	 t	 n.a.	 7.346333e-01
5	 2	 59	 flanked	 rf	 4	 0.425000	 2.000000	 flanked_rf_freq_4_amplitude_0.425_rep_9_l_K_2.0.png	 K	 l	 l	 n.a.	 5.133012e-01
5	 2	 60	 flanked	 rf	 4	 0.350000	 2.000000	 flanked_rf_freq_4_amplitude_0.35_rep_3_l_H_2.0.png	 H	 l	 l	 n.a.	 7.450772e-01
5	 2	 61	 flanked	 rf	 4	 0.350000	 2.000000	 flanked_rf_freq_4_amplitude_0.35_rep_5_t_K_2.0.png	 K	 t	 t	 n.a.	 6.848128e-01
5	 2	 62	 flanked	 rf	 4	 0.200000	 2.000000	 flanked_rf_freq_4_amplitude_0.2_rep_7_b_D_2.0.png	 D	 b	 l	 n.a.	 8.171195e-01
5	 2	 63	 flanked	 rf	 4	 0.425000	 2.000000	 flanked_rf_freq_4_amplitude_0.425_rep_3_b_N_2.0.png	 N	 b	 r	 n.a.	 7.200957e-01
5	 2	 64	 flanked	 rf	 4	 0.125000	 2.000000	 flanked_rf_freq_4_amplitude_0.125_rep_0_r_H_2.0.png	 H	 r	 b	 n.a.	 8.021521e-01
5	 2	 65	 flanked	 rf	 4	 0.200000	 2.000000	 flanked_rf_freq_4_amplitude_0.2_rep_5_l_K_2.0.png	 K	 l	 l	 n.a.	 4.025779e-01
5	 2	 66	 flanked	 rf	 4	 0.500000	 2.000000	 flanked_rf_freq_4_amplitude_0.5_rep_1_b_H_2.0.png	 H	 b	 r	 n.a.	 7.881668e-01
5	 2	 67	 flanked	 rf	 4	 0.350000	 2.000000	 flanked_rf_freq_4_amplitude_0.35_rep_6_b_H_2.0.png	 H	 b	 b	 n.a.	 3.920775e-01
5	 2	 68	 flanked	 rf	 4	 0.050000	 2.000000	 flanked_rf_freq_4_amplitude_0.05_rep_6_t_K_2.0.png	 K	 t	 r	 n.a.	 5.357474e-01
5	 2	 69	 flanked	 rf	 4	 0.200000	 2.000000	 flanked_rf_freq_4_amplitude_0.2_rep_1_r_K_2.0.png	 K	 r	 r	 n.a.	 6.685227e-01
5	 2	 70	 flanked	 rf	 4	 0.125000	 2.000000	 flanked_rf_freq_4_amplitude_0.125_rep_6_r_N_2.0.png	 N	 r	 r	 n.a.	 5.498710e-01
5	 2	 71	 flanked	 rf	 4	 0.125000	 2.000000	 flanked_rf_freq_4_amplitude_0.125_rep_9_l_K_2.0.png	 K	 l	 b	 n.a.	 6.521428e-01
5	 2	 72	 flanked	 rf	 4	 0.050000	 2.000000	 flanked_rf_freq_4_amplitude_0.05_rep_4_l_H_2.0.png	 H	 l	 r	 n.a.	 5.967698e-01
5	 2	 73	 flanked	 rf	 4	 0.125000	 2.000000	 flanked_rf_freq_4_amplitude_0.125_rep_6_r_N_2.0.png	 N	 r	 r	 n.a.	 4.954672e-01
5	 2	 74	 flanked	 rf	 4	 0.350000	 2.000000	 flanked_rf_freq_4_amplitude_0.35_rep_2_b_D_2.0.png	 D	 b	 t	 n.a.	 1.217496e+00
5	 2	 75	 flanked	 rf	 4	 0.050000	 2.000000	 flanked_rf_freq_4_amplitude_0.05_rep_8_t_N_2.0.png	 N	 t	 b	 n.a.	 3.991204e-01
5	 2	 76	 flanked	 rf	 4	 0.050000	 2.000000	 flanked_rf_freq_4_amplitude_0.05_rep_0_l_N_2.0.png	 N	 l	 r	 n.a.	 4.111727e-01
5	 2	 77	 flanked	 rf	 4	 0.500000	 2.000000	 flanked_rf_freq_4_amplitude_0.5_rep_7_r_N_2.0.png	 N	 r	 r	 n.a.	 6.371887e-01
5	 2	 78	 flanked	 rf	 4	 0.125000	 2.000000	 flanked_rf_freq_4_amplitude_0.125_rep_3_r_N_2.0.png	 N	 r	 b	 n.a.	 7.381966e-01
5	 2	 79	 flanked	 rf	 4	 0.125000	 2.000000	 flanked_rf_freq_4_amplitude_0.125_rep_4_t_D_2.0.png	 D	 t	 r	 n.a.	 5.359497e-01
5	 2	 80	 flanked	 rf	 4	 0.500000	 2.000000	 flanked_rf_freq_4_amplitude_0.5_rep_6_b_H_2.0.png	 H	 b	 r	 n.a.	 1.057263e+00
5	 2	 81	 flanked	 rf	 4	 0.350000	 2.000000	 flanked_rf_freq_4_amplitude_0.35_rep_0_t_H_2.0.png	 H	 t	 t	 n.a.	 4.190667e-01
5	 2	 82	 flanked	 rf	 4	 0.350000	 2.000000	 flanked_rf_freq_4_amplitude_0.35_rep_1_l_H_2.0.png	 H	 l	 r	 n.a.	 8.897309e-01
5	 2	 83	 flanked	 rf	 4	 0.425000	 2.000000	 flanked_rf_freq_4_amplitude_0.425_rep_6_t_N_2.0.png	 N	 t	 b	 n.a.	 5.169830e-01
5	 2	 84	 flanked	 rf	 4	 0.275000	 2.000000	 flanked_rf_freq_4_amplitude_0.275_rep_2_l_K_2.0.png	 K	 l	 r	 n.a.	 5.589739e-01
5	 2	 85	 flanked	 rf	 4	 0.500000	 2.000000	 flanked_rf_freq_4_amplitude_0.5_rep_0_b_D_2.0.png	 D	 b	 t	 n.a.	 6.852483e-01
5	 2	 86	 flanked	 rf	 4	 0.350000	 2.000000	 flanked_rf_freq_4_amplitude_0.35_rep_5_t_K_2.0.png	 K	 t	 r	 n.a.	 6.830620e-01
5	 2	 87	 flanked	 rf	 4	 0.200000	 2.000000	 flanked_rf_freq_4_amplitude_0.2_rep_8_t_N_2.0.png	 N	 t	 t	 n.a.	 6.073500e-01
5	 2	 88	 flanked	 rf	 4	 0.050000	 2.000000	 flanked_rf_freq_4_amplitude_0.05_rep_2_b_K_2.0.png	 K	 b	 b	 n.a.	 4.991428e-01
5	 2	 89	 flanked	 rf	 4	 0.500000	 2.000000	 flanked_rf_freq_4_amplitude_0.5_rep_5_t_D_2.0.png	 D	 t	 r	 n.a.	 7.094014e-01
5	 2	 90	 flanked	 rf	 4	 0.350000	 2.000000	 flanked_rf_freq_4_amplitude_0.35_rep_8_b_H_2.0.png	 H	 b	 b	 n.a.	 3.718549e-01
5	 2	 91	 flanked	 rf	 4	 0.275000	 2.000000	 flanked_rf_freq_4_amplitude_0.275_rep_2_l_K_2.0.png	 K	 l	 l	 n.a.	 6.225053e-01
5	 2	 92	 flanked	 rf	 4	 0.125000	 2.000000	 flanked_rf_freq_4_amplitude_0.125_rep_7_l_N_2.0.png	 N	 l	 b	 n.a.	 6.119523e-01
5	 2	 93	 flanked	 rf	 4	 0.425000	 2.000000	 flanked_rf_freq_4_amplitude_0.425_rep_1_r_N_2.0.png	 N	 r	 r	 n.a.	 6.106761e-01
5	 2	 94	 flanked	 rf	 4	 0.200000	 2.000000	 flanked_rf_freq_4_amplitude_0.2_rep_4_l_D_2.0.png	 D	 l	 t	 n.a.	 6.482561e-01
5	 2	 95	 flanked	 rf	 4	 0.275000	 2.000000	 flanked_rf_freq_4_amplitude_0.275_rep_2_l_K_2.0.png	 K	 l	 l	 n.a.	 6.445508e-01
5	 2	 96	 flanked	 rf	 4	 0.425000	 2.000000	 flanked_rf_freq_4_amplitude_0.425_rep_0_b_H_2.0.png	 H	 b	 b	 n.a.	 3.766297e-01
5	 2	 97	 flanked	 rf	 4	 0.050000	 2.000000	 flanked_rf_freq_4_amplitude_0.05_rep_3_b_N_2.0.png	 N	 b	 b	 n.a.	 5.139510e-01
5	 2	 98	 flanked	 rf	 4	 0.125000	 2.000000	 flanked_rf_freq_4_amplitude_0.125_rep_8_l_K_2.0.png	 K	 l	 r	 n.a.	 5.350184e-01
5	 2	 99	 flanked	 rf	 4	 0.125000	 2.000000	 flanked_rf_freq_4_amplitude_0.125_rep_9_l_K_2.0.png	 K	 l	 b	 n.a.	 3.710966e-01
5	 2	 100	 flanked	 rf	 4	 0.275000	 2.000000	 flanked_rf_freq_4_amplitude_0.275_rep_6_t_K_2.0.png	 K	 t	 t	 n.a.	 4.122067e-01
5	 2	 101	 flanked	 rf	 4	 0.275000	 2.000000	 flanked_rf_freq_4_amplitude_0.275_rep_1_r_D_2.0.png	 D	 r	 b	 n.a.	 6.742969e-01
5	 2	 102	 flanked	 rf	 4	 0.350000	 2.000000	 flanked_rf_freq_4_amplitude_0.35_rep_2_b_D_2.0.png	 D	 b	 r	 n.a.	 5.844397e-01
5	 2	 103	 flanked	 rf	 4	 0.125000	 2.000000	 flanked_rf_freq_4_amplitude_0.125_rep_5_t_K_2.0.png	 K	 t	 t	 n.a.	 5.354349e-01
5	 2	 104	 flanked	 rf	 4	 0.050000	 2.000000	 flanked_rf_freq_4_amplitude_0.05_rep_2_b_K_2.0.png	 K	 b	 b	 n.a.	 4.704082e-01
5	 2	 105	 flanked	 rf	 4	 0.275000	 2.000000	 flanked_rf_freq_4_amplitude_0.275_rep_3_b_N_2.0.png	 N	 b	 l	 n.a.	 6.962646e-01
5	 2	 106	 flanked	 rf	 4	 0.050000	 2.000000	 flanked_rf_freq_4_amplitude_0.05_rep_6_t_K_2.0.png	 K	 t	 r	 n.a.	 7.123094e-01
5	 2	 107	 flanked	 rf	 4	 0.275000	 2.000000	 flanked_rf_freq_4_amplitude_0.275_rep_6_t_K_2.0.png	 K	 t	 t	 n.a.	 6.098575e-01
5	 2	 108	 flanked	 rf	 4	 0.200000	 2.000000	 flanked_rf_freq_4_amplitude_0.2_rep_7_b_D_2.0.png	 D	 b	 r	 n.a.	 4.537766e-01
5	 2	 109	 flanked	 rf	 4	 0.425000	 2.000000	 flanked_rf_freq_4_amplitude_0.425_rep_5_t_H_2.0.png	 H	 t	 t	 n.a.	 6.083003e-01
5	 2	 110	 flanked	 rf	 4	 0.125000	 2.000000	 flanked_rf_freq_4_amplitude_0.125_rep_2_t_D_2.0.png	 D	 t	 b	 n.a.	 4.523790e-01
5	 2	 111	 flanked	 rf	 4	 0.275000	 2.000000	 flanked_rf_freq_4_amplitude_0.275_rep_3_b_N_2.0.png	 N	 b	 r	 n.a.	 2.914857e-01
5	 2	 112	 flanked	 rf	 4	 0.275000	 2.000000	 flanked_rf_freq_4_amplitude_0.275_rep_7_t_H_2.0.png	 H	 t	 t	 n.a.	 5.342944e-01
5	 2	 113	 flanked	 rf	 4	 0.050000	 2.000000	 flanked_rf_freq_4_amplitude_0.05_rep_1_l_H_2.0.png	 H	 l	 b	 n.a.	 5.900130e-01
5	 2	 114	 flanked	 rf	 4	 0.275000	 2.000000	 flanked_rf_freq_4_amplitude_0.275_rep_4_l_H_2.0.png	 H	 l	 b	 n.a.	 1.039080e+00
5	 2	 115	 flanked	 rf	 4	 0.500000	 2.000000	 flanked_rf_freq_4_amplitude_0.5_rep_4_r_H_2.0.png	 H	 r	 r	 n.a.	 1.125909e+00
5	 2	 116	 flanked	 rf	 4	 0.425000	 2.000000	 flanked_rf_freq_4_amplitude_0.425_rep_2_l_N_2.0.png	 N	 l	 t	 n.a.	 6.396046e-01
5	 2	 117	 flanked	 rf	 4	 0.200000	 2.000000	 flanked_rf_freq_4_amplitude_0.2_rep_1_r_K_2.0.png	 K	 r	 r	 n.a.	 4.584764e-01
5	 2	 118	 flanked	 rf	 4	 0.200000	 2.000000	 flanked_rf_freq_4_amplitude_0.2_rep_0_l_N_2.0.png	 N	 l	 l	 n.a.	 5.599439e-01
5	 2	 119	 flanked	 rf	 4	 0.200000	 2.000000	 flanked_rf_freq_4_amplitude_0.2_rep_5_l_K_2.0.png	 K	 l	 r	 n.a.	 6.202643e-01
5	 2	 120	 flanked	 rf	 4	 0.275000	 2.000000	 flanked_rf_freq_4_amplitude_0.275_rep_9_t_D_2.0.png	 D	 t	 r	 n.a.	 4.411763e-01
5	 2	 121	 flanked	 rf	 4	 0.275000	 2.000000	 flanked_rf_freq_4_amplitude_0.275_rep_1_r_D_2.0.png	 D	 r	 r	 n.a.	 4.683225e-01
5	 2	 122	 flanked	 rf	 4	 0.425000	 2.000000	 flanked_rf_freq_4_amplitude_0.425_rep_8_r_D_2.0.png	 D	 r	 b	 n.a.	 5.614895e-01
5	 2	 123	 flanked	 rf	 4	 0.275000	 2.000000	 flanked_rf_freq_4_amplitude_0.275_rep_9_t_D_2.0.png	 D	 t	 r	 n.a.	 9.951716e-01
5	 2	 124	 flanked	 rf	 4	 0.275000	 2.000000	 flanked_rf_freq_4_amplitude_0.275_rep_0_r_K_2.0.png	 K	 r	 r	 n.a.	 7.074196e-01
5	 2	 125	 flanked	 rf	 4	 0.500000	 2.000000	 flanked_rf_freq_4_amplitude_0.5_rep_7_r_N_2.0.png	 N	 r	 r	 n.a.	 8.999448e-01
5	 2	 126	 flanked	 rf	 4	 0.350000	 2.000000	 flanked_rf_freq_4_amplitude_0.35_rep_4_b_N_2.0.png	 N	 b	 t	 n.a.	 5.116687e-01
5	 2	 127	 flanked	 rf	 4	 0.200000	 2.000000	 flanked_rf_freq_4_amplitude_0.2_rep_2_r_D_2.0.png	 D	 r	 r	 n.a.	 8.503975e-01
5	 2	 128	 flanked	 rf	 4	 0.500000	 2.000000	 flanked_rf_freq_4_amplitude_0.5_rep_8_r_D_2.0.png	 D	 r	 b	 n.a.	 9.926033e-01
5	 2	 129	 flanked	 rf	 4	 0.425000	 2.000000	 flanked_rf_freq_4_amplitude_0.425_rep_1_r_N_2.0.png	 N	 r	 r	 n.a.	 7.374889e-01
5	 2	 130	 flanked	 rf	 4	 0.050000	 2.000000	 flanked_rf_freq_4_amplitude_0.05_rep_9_l_N_2.0.png	 N	 l	 l	 n.a.	 5.928416e-01
5	 2	 131	 flanked	 rf	 4	 0.350000	 2.000000	 flanked_rf_freq_4_amplitude_0.35_rep_3_l_H_2.0.png	 H	 l	 l	 n.a.	 6.439604e-01
5	 2	 132	 flanked	 rf	 4	 0.425000	 2.000000	 flanked_rf_freq_4_amplitude_0.425_rep_5_t_H_2.0.png	 H	 t	 t	 n.a.	 7.869662e-01
5	 2	 133	 flanked	 rf	 4	 0.275000	 2.000000	 flanked_rf_freq_4_amplitude_0.275_rep_5_r_H_2.0.png	 H	 r	 r	 n.a.	 5.940817e-01
5	 2	 134	 flanked	 rf	 4	 0.050000	 2.000000	 flanked_rf_freq_4_amplitude_0.05_rep_2_b_K_2.0.png	 K	 b	 b	 n.a.	 7.621471e-01
5	 2	 135	 flanked	 rf	 4	 0.200000	 2.000000	 flanked_rf_freq_4_amplitude_0.2_rep_1_r_K_2.0.png	 K	 r	 r	 n.a.	 6.229023e-01
5	 2	 136	 flanked	 rf	 4	 0.350000	 2.000000	 flanked_rf_freq_4_amplitude_0.35_rep_4_b_N_2.0.png	 N	 b	 t	 n.a.	 6.566746e-01
5	 2	 137	 flanked	 rf	 4	 0.350000	 2.000000	 flanked_rf_freq_4_amplitude_0.35_rep_9_t_D_2.0.png	 D	 t	 t	 n.a.	 4.372695e-01
5	 2	 138	 flanked	 rf	 4	 0.125000	 2.000000	 flanked_rf_freq_4_amplitude_0.125_rep_3_r_N_2.0.png	 N	 r	 l	 n.a.	 8.951100e-01
5	 2	 139	 flanked	 rf	 4	 0.500000	 2.000000	 flanked_rf_freq_4_amplitude_0.5_rep_3_l_K_2.0.png	 K	 l	 l	 n.a.	 6.324697e-01
5	 2	 140	 flanked	 rf	 4	 0.425000	 2.000000	 flanked_rf_freq_4_amplitude_0.425_rep_7_r_H_2.0.png	 H	 r	 r	 n.a.	 5.659565e-01
5	 2	 141	 flanked	 rf	 4	 0.350000	 2.000000	 flanked_rf_freq_4_amplitude_0.35_rep_1_l_H_2.0.png	 H	 l	 r	 n.a.	 6.944506e-01
5	 2	 142	 flanked	 rf	 4	 0.350000	 2.000000	 flanked_rf_freq_4_amplitude_0.35_rep_9_t_D_2.0.png	 D	 t	 r	 n.a.	 7.413935e-01
5	 2	 143	 flanked	 rf	 4	 0.425000	 2.000000	 flanked_rf_freq_4_amplitude_0.425_rep_2_l_N_2.0.png	 N	 l	 r	 n.a.	 6.929694e-01
5	 2	 144	 flanked	 rf	 4	 0.050000	 2.000000	 flanked_rf_freq_4_amplitude_0.05_rep_9_l_N_2.0.png	 N	 l	 b	 n.a.	 3.527938e-01
5	 2	 145	 flanked	 rf	 4	 0.125000	 2.000000	 flanked_rf_freq_4_amplitude_0.125_rep_0_r_H_2.0.png	 H	 r	 r	 n.a.	 6.529380e-01
5	 2	 146	 flanked	 rf	 4	 0.500000	 2.000000	 flanked_rf_freq_4_amplitude_0.5_rep_3_l_K_2.0.png	 K	 l	 t	 n.a.	 8.566969e-01
5	 2	 147	 flanked	 rf	 4	 0.125000	 2.000000	 flanked_rf_freq_4_amplitude_0.125_rep_2_t_D_2.0.png	 D	 t	 l	 n.a.	 7.826634e-01
5	 2	 148	 flanked	 rf	 4	 0.200000	 2.000000	 flanked_rf_freq_4_amplitude_0.2_rep_4_l_D_2.0.png	 D	 l	 t	 n.a.	 7.643536e-01
5	 2	 149	 flanked	 rf	 4	 0.500000	 2.000000	 flanked_rf_freq_4_amplitude_0.5_rep_8_r_D_2.0.png	 D	 r	 r	 n.a.	 7.777971e-01
5	 2	 150	 flanked	 rf	 4	 0.500000	 2.000000	 flanked_rf_freq_4_amplitude_0.5_rep_9_l_K_2.0.png	 K	 l	 t	 n.a.	 4.935931e-01
5	 2	 151	 flanked	 rf	 4	 0.350000	 2.000000	 flanked_rf_freq_4_amplitude_0.35_rep_1_l_H_2.0.png	 H	 l	 l	 n.a.	 6.238971e-01
5	 2	 152	 flanked	 rf	 4	 0.350000	 2.000000	 flanked_rf_freq_4_amplitude_0.35_rep_8_b_H_2.0.png	 H	 b	 b	 n.a.	 4.048430e-01
5	 2	 153	 flanked	 rf	 4	 0.425000	 2.000000	 flanked_rf_freq_4_amplitude_0.425_rep_2_l_N_2.0.png	 N	 l	 l	 n.a.	 6.145125e-01
5	 2	 154	 flanked	 rf	 4	 0.125000	 2.000000	 flanked_rf_freq_4_amplitude_0.125_rep_1_l_K_2.0.png	 K	 l	 r	 n.a.	 1.538161e+00
5	 2	 155	 flanked	 rf	 4	 0.125000	 2.000000	 flanked_rf_freq_4_amplitude_0.125_rep_4_t_D_2.0.png	 D	 t	 b	 n.a.	 4.616787e-01
5	 2	 156	 flanked	 rf	 4	 0.275000	 2.000000	 flanked_rf_freq_4_amplitude_0.275_rep_0_r_K_2.0.png	 K	 r	 r	 n.a.	 4.888615e-01
5	 2	 157	 flanked	 rf	 4	 0.275000	 2.000000	 flanked_rf_freq_4_amplitude_0.275_rep_8_b_H_2.0.png	 H	 b	 b	 n.a.	 5.673612e-01
5	 2	 158	 flanked	 rf	 4	 0.350000	 2.000000	 flanked_rf_freq_4_amplitude_0.35_rep_0_t_H_2.0.png	 H	 t	 b	 n.a.	 9.522331e-01
5	 2	 159	 flanked	 rf	 4	 0.200000	 2.000000	 flanked_rf_freq_4_amplitude_0.2_rep_0_l_N_2.0.png	 N	 l	 l	 n.a.	 7.010473e-01
5	 2	 160	 flanked	 rf	 4	 0.500000	 2.000000	 flanked_rf_freq_4_amplitude_0.5_rep_8_r_D_2.0.png	 D	 r	 r	 n.a.	 1.029299e+00
5	 2	 161	 flanked	 rf	 4	 0.500000	 2.000000	 flanked_rf_freq_4_amplitude_0.5_rep_4_r_H_2.0.png	 H	 r	 r	 n.a.	 9.343156e-01
5	 2	 162	 flanked	 rf	 4	 0.050000	 2.000000	 flanked_rf_freq_4_amplitude_0.05_rep_5_t_H_2.0.png	 H	 t	 t	 n.a.	 8.640540e-01
5	 2	 163	 flanked	 rf	 4	 0.500000	 2.000000	 flanked_rf_freq_4_amplitude_0.5_rep_2_b_D_2.0.png	 D	 b	 r	 n.a.	 1.091843e+00
5	 2	 164	 flanked	 rf	 4	 0.050000	 2.000000	 flanked_rf_freq_4_amplitude_0.05_rep_0_l_N_2.0.png	 N	 l	 b	 n.a.	 8.651035e-01
5	 2	 165	 flanked	 rf	 4	 0.500000	 2.000000	 flanked_rf_freq_4_amplitude_0.5_rep_2_b_D_2.0.png	 D	 b	 t	 n.a.	 8.206688e-01
5	 2	 166	 flanked	 rf	 4	 0.125000	 2.000000	 flanked_rf_freq_4_amplitude_0.125_rep_1_l_K_2.0.png	 K	 l	 l	 n.a.	 5.457094e-01
5	 2	 167	 flanked	 rf	 4	 0.500000	 2.000000	 flanked_rf_freq_4_amplitude_0.5_rep_5_t_D_2.0.png	 D	 t	 t	 n.a.	 5.958246e-01
5	 2	 168	 flanked	 rf	 4	 0.350000	 2.000000	 flanked_rf_freq_4_amplitude_0.35_rep_7_r_K_2.0.png	 K	 r	 r	 n.a.	 4.808716e-01
5	 2	 169	 flanked	 rf	 4	 0.050000	 2.000000	 flanked_rf_freq_4_amplitude_0.05_rep_4_l_H_2.0.png	 H	 l	 t	 n.a.	 1.060792e+00
5	 2	 170	 flanked	 rf	 4	 0.050000	 2.000000	 flanked_rf_freq_4_amplitude_0.05_rep_7_l_D_2.0.png	 D	 l	 r	 n.a.	 5.541961e-01
5	 2	 171	 flanked	 rf	 4	 0.275000	 2.000000	 flanked_rf_freq_4_amplitude_0.275_rep_5_r_H_2.0.png	 H	 r	 b	 n.a.	 4.963816e-01
5	 2	 172	 flanked	 rf	 4	 0.425000	 2.000000	 flanked_rf_freq_4_amplitude_0.425_rep_1_r_N_2.0.png	 N	 r	 r	 n.a.	 4.699250e-01
5	 2	 173	 flanked	 rf	 4	 0.500000	 2.000000	 flanked_rf_freq_4_amplitude_0.5_rep_6_b_H_2.0.png	 H	 b	 b	 n.a.	 5.858958e-01
5	 2	 174	 flanked	 rf	 4	 0.275000	 2.000000	 flanked_rf_freq_4_amplitude_0.275_rep_3_b_N_2.0.png	 N	 b	 r	 n.a.	 4.483372e-01
5	 2	 175	 flanked	 rf	 4	 0.125000	 2.000000	 flanked_rf_freq_4_amplitude_0.125_rep_3_r_N_2.0.png	 N	 r	 l	 n.a.	 8.908761e-01
5	 2	 176	 flanked	 rf	 4	 0.050000	 2.000000	 flanked_rf_freq_4_amplitude_0.05_rep_8_t_N_2.0.png	 N	 t	 b	 n.a.	 6.738626e-01
5	 2	 177	 flanked	 rf	 4	 0.200000	 2.000000	 flanked_rf_freq_4_amplitude_0.2_rep_5_l_K_2.0.png	 K	 l	 r	 n.a.	 1.211407e+00
5	 2	 178	 flanked	 rf	 4	 0.050000	 2.000000	 flanked_rf_freq_4_amplitude_0.05_rep_7_l_D_2.0.png	 D	 l	 l	 n.a.	 8.572289e-01
5	 2	 179	 flanked	 rf	 4	 0.500000	 2.000000	 flanked_rf_freq_4_amplitude_0.5_rep_1_b_H_2.0.png	 H	 b	 t	 n.a.	 6.072207e-01
5	 2	 180	 flanked	 rf	 4	 0.425000	 2.000000	 flanked_rf_freq_4_amplitude_0.425_rep_5_t_H_2.0.png	 H	 t	 t	 n.a.	 4.698745e-01
5	 2	 181	 flanked	 rf	 4	 0.275000	 2.000000	 flanked_rf_freq_4_amplitude_0.275_rep_4_l_H_2.0.png	 H	 l	 b	 n.a.	 6.011404e-01
5	 2	 182	 flanked	 rf	 4	 0.425000	 2.000000	 flanked_rf_freq_4_amplitude_0.425_rep_7_r_H_2.0.png	 H	 r	 r	 n.a.	 4.553908e-01
5	 2	 183	 flanked	 rf	 4	 0.050000	 2.000000	 flanked_rf_freq_4_amplitude_0.05_rep_1_l_H_2.0.png	 H	 l	 b	 n.a.	 6.316904e-01
5	 2	 184	 flanked	 rf	 4	 0.350000	 2.000000	 flanked_rf_freq_4_amplitude_0.35_rep_7_r_K_2.0.png	 K	 r	 t	 n.a.	 1.014501e+00
5	 2	 185	 flanked	 rf	 4	 0.200000	 2.000000	 flanked_rf_freq_4_amplitude_0.2_rep_9_l_N_2.0.png	 N	 l	 l	 n.a.	 6.392034e-01
5	 2	 186	 flanked	 rf	 4	 0.050000	 2.000000	 flanked_rf_freq_4_amplitude_0.05_rep_3_b_N_2.0.png	 N	 b	 b	 n.a.	 6.873720e-01
5	 2	 187	 flanked	 rf	 4	 0.125000	 2.000000	 flanked_rf_freq_4_amplitude_0.125_rep_0_r_H_2.0.png	 H	 r	 r	 n.a.	 8.416913e-01
5	 2	 188	 flanked	 rf	 4	 0.275000	 2.000000	 flanked_rf_freq_4_amplitude_0.275_rep_4_l_H_2.0.png	 H	 l	 b	 n.a.	 6.569433e-01
5	 2	 189	 flanked	 rf	 4	 0.425000	 2.000000	 flanked_rf_freq_4_amplitude_0.425_rep_0_b_H_2.0.png	 H	 b	 b	 n.a.	 6.356301e-01
5	 2	 190	 flanked	 rf	 4	 0.425000	 2.000000	 flanked_rf_freq_4_amplitude_0.425_rep_8_r_D_2.0.png	 D	 r	 r	 n.a.	 4.762830e-01
5	 2	 191	 flanked	 rf	 4	 0.350000	 2.000000	 flanked_rf_freq_4_amplitude_0.35_rep_9_t_D_2.0.png	 D	 t	 t	 n.a.	 9.213285e-01
5	 2	 192	 flanked	 rf	 4	 0.500000	 2.000000	 flanked_rf_freq_4_amplitude_0.5_rep_7_r_N_2.0.png	 N	 r	 r	 n.a.	 5.753602e-01
5	 2	 193	 flanked	 rf	 4	 0.350000	 2.000000	 flanked_rf_freq_4_amplitude_0.35_rep_0_t_H_2.0.png	 H	 t	 b	 n.a.	 5.579689e-01
5	 2	 194	 flanked	 rf	 4	 0.275000	 2.000000	 flanked_rf_freq_4_amplitude_0.275_rep_7_t_H_2.0.png	 H	 t	 b	 n.a.	 4.284369e-01
5	 2	 195	 flanked	 rf	 4	 0.275000	 2.000000	 flanked_rf_freq_4_amplitude_0.275_rep_5_r_H_2.0.png	 H	 r	 r	 n.a.	 7.741245e-01
5	 2	 196	 flanked	 rf	 4	 0.200000	 2.000000	 flanked_rf_freq_4_amplitude_0.2_rep_7_b_D_2.0.png	 D	 b	 r	 n.a.	 4.525297e-01
5	 2	 197	 flanked	 rf	 4	 0.275000	 2.000000	 flanked_rf_freq_4_amplitude_0.275_rep_8_b_H_2.0.png	 H	 b	 t	 n.a.	 7.173881e-01
5	 2	 198	 flanked	 rf	 4	 0.425000	 2.000000	 flanked_rf_freq_4_amplitude_0.425_rep_0_b_H_2.0.png	 H	 b	 b	 n.a.	 5.880857e-01
5	 2	 199	 flanked	 rf	 4	 0.500000	 2.000000	 flanked_rf_freq_4_amplitude_0.5_rep_5_t_D_2.0.png	 D	 t	 r	 n.a.	 4.969499e-01
5	 2	 200	 flanked	 rf	 4	 0.425000	 2.000000	 flanked_rf_freq_4_amplitude_0.425_rep_8_r_D_2.0.png	 D	 r	 r	 n.a.	 5.978003e-01
5	 2	 201	 flanked	 rf	 4	 0.125000	 2.000000	 flanked_rf_freq_4_amplitude_0.125_rep_6_r_N_2.0.png	 N	 r	 t	 n.a.	 7.634484e-01
5	 2	 202	 flanked	 rf	 4	 0.200000	 2.000000	 flanked_rf_freq_4_amplitude_0.2_rep_8_t_N_2.0.png	 N	 t	 r	 n.a.	 8.547280e-01
5	 2	 203	 flanked	 rf	 4	 0.125000	 2.000000	 flanked_rf_freq_4_amplitude_0.125_rep_5_t_K_2.0.png	 K	 t	 b	 n.a.	 5.309011e-01
5	 2	 204	 flanked	 rf	 4	 0.425000	 2.000000	 flanked_rf_freq_4_amplitude_0.425_rep_4_l_D_2.0.png	 D	 l	 b	 n.a.	 6.568212e-01
5	 2	 205	 flanked	 rf	 4	 0.425000	 2.000000	 flanked_rf_freq_4_amplitude_0.425_rep_6_t_N_2.0.png	 N	 t	 t	 n.a.	 5.802834e-01
5	 2	 206	 flanked	 rf	 4	 0.500000	 2.000000	 flanked_rf_freq_4_amplitude_0.5_rep_4_r_H_2.0.png	 H	 r	 l	 n.a.	 1.012502e+00
5	 2	 207	 flanked	 rf	 4	 0.425000	 2.000000	 flanked_rf_freq_4_amplitude_0.425_rep_9_l_K_2.0.png	 K	 l	 l	 n.a.	 6.269187e-01
5	 2	 208	 flanked	 rf	 4	 0.050000	 2.000000	 flanked_rf_freq_4_amplitude_0.05_rep_6_t_K_2.0.png	 K	 t	 r	 n.a.	 6.157071e-01
5	 2	 209	 flanked	 rf	 4	 0.500000	 2.000000	 flanked_rf_freq_4_amplitude_0.5_rep_9_l_K_2.0.png	 K	 l	 t	 n.a.	 6.220824e-01
5	 2	 210	 flanked	 rf	 4	 0.500000	 2.000000	 flanked_rf_freq_4_amplitude_0.5_rep_0_b_D_2.0.png	 D	 b	 t	 n.a.	 8.585972e-01
