subject	 session	 trial	 flanked	 distortion	 freq	 amplitude	 spacing	 im_name	 targ_letter	 targ_pos	 response	 eyemovement	 RT
7	 1	 1	 flanked	 rf	 4	 0.500000	 2.000000	 flanked_rf_freq_4_amplitude_0.5_rep_6_b_H_2.0.png	 H	 b	 r	 n.a.	 5.013393e-01
7	 1	 2	 flanked	 rf	 4	 0.125000	 2.000000	 flanked_rf_freq_4_amplitude_0.125_rep_1_l_K_2.0.png	 K	 l	 b	 n.a.	 5.138212e-01
7	 1	 3	 flanked	 rf	 4	 0.350000	 2.000000	 flanked_rf_freq_4_amplitude_0.35_rep_3_l_H_2.0.png	 H	 l	 l	 n.a.	 3.421561e-01
7	 1	 4	 flanked	 rf	 4	 0.500000	 2.000000	 flanked_rf_freq_4_amplitude_0.5_rep_8_r_D_2.0.png	 D	 r	 t	 n.a.	 4.164245e-01
7	 1	 5	 flanked	 rf	 4	 0.350000	 2.000000	 flanked_rf_freq_4_amplitude_0.35_rep_9_t_D_2.0.png	 D	 t	 r	 n.a.	 3.369663e-01
7	 1	 6	 flanked	 rf	 4	 0.500000	 2.000000	 flanked_rf_freq_4_amplitude_0.5_rep_4_r_H_2.0.png	 H	 r	 r	 n.a.	 4.812358e-01
7	 1	 7	 flanked	 rf	 4	 0.050000	 2.000000	 flanked_rf_freq_4_amplitude_0.05_rep_6_t_K_2.0.png	 K	 t	 b	 n.a.	 5.729614e-01
7	 1	 8	 flanked	 rf	 4	 0.275000	 2.000000	 flanked_rf_freq_4_amplitude_0.275_rep_2_l_K_2.0.png	 K	 l	 l	 n.a.	 5.054944e-01
7	 1	 9	 flanked	 rf	 4	 0.500000	 2.000000	 flanked_rf_freq_4_amplitude_0.5_rep_9_l_K_2.0.png	 K	 l	 b	 n.a.	 8.509566e-01
7	 1	 10	 flanked	 rf	 4	 0.125000	 2.000000	 flanked_rf_freq_4_amplitude_0.125_rep_0_r_H_2.0.png	 H	 r	 r	 n.a.	 6.153957e-01
7	 1	 11	 flanked	 rf	 4	 0.275000	 2.000000	 flanked_rf_freq_4_amplitude_0.275_rep_2_l_K_2.0.png	 K	 l	 l	 n.a.	 8.049890e-01
7	 1	 12	 flanked	 rf	 4	 0.200000	 2.000000	 flanked_rf_freq_4_amplitude_0.2_rep_5_l_K_2.0.png	 K	 l	 r	 n.a.	 6.931296e-01
7	 1	 13	 flanked	 rf	 4	 0.125000	 2.000000	 flanked_rf_freq_4_amplitude_0.125_rep_3_r_N_2.0.png	 N	 r	 b	 n.a.	 6.968393e-01
7	 1	 14	 flanked	 rf	 4	 0.200000	 2.000000	 flanked_rf_freq_4_amplitude_0.2_rep_9_l_N_2.0.png	 N	 l	 l	 n.a.	 6.130799e-01
7	 1	 15	 flanked	 rf	 4	 0.350000	 2.000000	 flanked_rf_freq_4_amplitude_0.35_rep_2_b_D_2.0.png	 D	 b	 r	 n.a.	 6.298192e-01
7	 1	 16	 flanked	 rf	 4	 0.275000	 2.000000	 flanked_rf_freq_4_amplitude_0.275_rep_1_r_D_2.0.png	 D	 r	 l	 n.a.	 5.770016e-01
7	 1	 17	 flanked	 rf	 4	 0.125000	 2.000000	 flanked_rf_freq_4_amplitude_0.125_rep_5_t_K_2.0.png	 K	 t	 b	 n.a.	 6.517953e-01
7	 1	 18	 flanked	 rf	 4	 0.200000	 2.000000	 flanked_rf_freq_4_amplitude_0.2_rep_1_r_K_2.0.png	 K	 r	 l	 n.a.	 6.998747e-01
7	 1	 19	 flanked	 rf	 4	 0.200000	 2.000000	 flanked_rf_freq_4_amplitude_0.2_rep_5_l_K_2.0.png	 K	 l	 t	 n.a.	 1.043443e+00
7	 1	 20	 flanked	 rf	 4	 0.500000	 2.000000	 flanked_rf_freq_4_amplitude_0.5_rep_3_l_K_2.0.png	 K	 l	 l	 n.a.	 6.968077e-01
7	 1	 21	 flanked	 rf	 4	 0.125000	 2.000000	 flanked_rf_freq_4_amplitude_0.125_rep_1_l_K_2.0.png	 K	 l	 l	 n.a.	 7.237208e-01
7	 1	 22	 flanked	 rf	 4	 0.275000	 2.000000	 flanked_rf_freq_4_amplitude_0.275_rep_1_r_D_2.0.png	 D	 r	 l	 n.a.	 6.984348e-01
7	 1	 23	 flanked	 rf	 4	 0.200000	 2.000000	 flanked_rf_freq_4_amplitude_0.2_rep_8_t_N_2.0.png	 N	 t	 r	 n.a.	 6.831071e-01
7	 1	 24	 flanked	 rf	 4	 0.050000	 2.000000	 flanked_rf_freq_4_amplitude_0.05_rep_0_l_N_2.0.png	 N	 l	 b	 n.a.	 7.774591e-01
7	 1	 25	 flanked	 rf	 4	 0.200000	 2.000000	 flanked_rf_freq_4_amplitude_0.2_rep_7_b_D_2.0.png	 D	 b	 r	 n.a.	 5.460082e-01
7	 1	 26	 flanked	 rf	 4	 0.425000	 2.000000	 flanked_rf_freq_4_amplitude_0.425_rep_1_r_N_2.0.png	 N	 r	 t	 n.a.	 4.449687e-01
7	 1	 27	 flanked	 rf	 4	 0.500000	 2.000000	 flanked_rf_freq_4_amplitude_0.5_rep_4_r_H_2.0.png	 H	 r	 l	 n.a.	 3.600512e-01
7	 1	 28	 flanked	 rf	 4	 0.275000	 2.000000	 flanked_rf_freq_4_amplitude_0.275_rep_4_l_H_2.0.png	 H	 l	 r	 n.a.	 3.556012e-01
7	 1	 29	 flanked	 rf	 4	 0.275000	 2.000000	 flanked_rf_freq_4_amplitude_0.275_rep_0_r_K_2.0.png	 K	 r	 b	 n.a.	 4.256705e-01
7	 1	 30	 flanked	 rf	 4	 0.275000	 2.000000	 flanked_rf_freq_4_amplitude_0.275_rep_0_r_K_2.0.png	 K	 r	 b	 n.a.	 4.944908e-01
7	 1	 31	 flanked	 rf	 4	 0.275000	 2.000000	 flanked_rf_freq_4_amplitude_0.275_rep_6_t_K_2.0.png	 K	 t	 b	 n.a.	 5.366664e-01
7	 1	 32	 flanked	 rf	 4	 0.125000	 2.000000	 flanked_rf_freq_4_amplitude_0.125_rep_4_t_D_2.0.png	 D	 t	 b	 n.a.	 5.709885e-01
7	 1	 33	 flanked	 rf	 4	 0.050000	 2.000000	 flanked_rf_freq_4_amplitude_0.05_rep_9_l_N_2.0.png	 N	 l	 r	 n.a.	 7.986756e-01
7	 1	 34	 flanked	 rf	 4	 0.125000	 2.000000	 flanked_rf_freq_4_amplitude_0.125_rep_9_l_K_2.0.png	 K	 l	 b	 n.a.	 6.283286e-01
7	 1	 35	 flanked	 rf	 4	 0.200000	 2.000000	 flanked_rf_freq_4_amplitude_0.2_rep_2_r_D_2.0.png	 D	 r	 r	 n.a.	 4.352175e-01
7	 1	 36	 flanked	 rf	 4	 0.125000	 2.000000	 flanked_rf_freq_4_amplitude_0.125_rep_1_l_K_2.0.png	 K	 l	 l	 n.a.	 7.716280e-01
7	 1	 37	 flanked	 rf	 4	 0.125000	 2.000000	 flanked_rf_freq_4_amplitude_0.125_rep_8_l_K_2.0.png	 K	 l	 l	 n.a.	 7.344400e-01
7	 1	 38	 flanked	 rf	 4	 0.200000	 2.000000	 flanked_rf_freq_4_amplitude_0.2_rep_0_l_N_2.0.png	 N	 l	 b	 n.a.	 8.476001e-01
7	 1	 39	 flanked	 rf	 4	 0.425000	 2.000000	 flanked_rf_freq_4_amplitude_0.425_rep_2_l_N_2.0.png	 N	 l	 l	 n.a.	 6.327834e-01
7	 1	 40	 flanked	 rf	 4	 0.500000	 2.000000	 flanked_rf_freq_4_amplitude_0.5_rep_6_b_H_2.0.png	 H	 b	 t	 n.a.	 7.813443e-01
7	 1	 41	 flanked	 rf	 4	 0.500000	 2.000000	 flanked_rf_freq_4_amplitude_0.5_rep_3_l_K_2.0.png	 K	 l	 l	 n.a.	 7.709285e-01
7	 1	 42	 flanked	 rf	 4	 0.275000	 2.000000	 flanked_rf_freq_4_amplitude_0.275_rep_2_l_K_2.0.png	 K	 l	 l	 n.a.	 7.373652e-01
7	 1	 43	 flanked	 rf	 4	 0.050000	 2.000000	 flanked_rf_freq_4_amplitude_0.05_rep_4_l_H_2.0.png	 H	 l	 t	 n.a.	 8.385766e-01
7	 1	 44	 flanked	 rf	 4	 0.125000	 2.000000	 flanked_rf_freq_4_amplitude_0.125_rep_2_t_D_2.0.png	 D	 t	 l	 n.a.	 8.230425e-01
7	 1	 45	 flanked	 rf	 4	 0.500000	 2.000000	 flanked_rf_freq_4_amplitude_0.5_rep_7_r_N_2.0.png	 N	 r	 r	 n.a.	 7.420744e-01
7	 1	 46	 flanked	 rf	 4	 0.350000	 2.000000	 flanked_rf_freq_4_amplitude_0.35_rep_2_b_D_2.0.png	 D	 b	 t	 n.a.	 8.448737e-01
7	 1	 47	 flanked	 rf	 4	 0.125000	 2.000000	 flanked_rf_freq_4_amplitude_0.125_rep_0_r_H_2.0.png	 H	 r	 b	 n.a.	 7.804139e-01
7	 1	 48	 flanked	 rf	 4	 0.275000	 2.000000	 flanked_rf_freq_4_amplitude_0.275_rep_7_t_H_2.0.png	 H	 t	 b	 n.a.	 8.040237e-01
7	 1	 49	 flanked	 rf	 4	 0.425000	 2.000000	 flanked_rf_freq_4_amplitude_0.425_rep_4_l_D_2.0.png	 D	 l	 b	 n.a.	 6.749789e-01
7	 1	 50	 flanked	 rf	 4	 0.200000	 2.000000	 flanked_rf_freq_4_amplitude_0.2_rep_6_b_D_2.0.png	 D	 b	 b	 n.a.	 5.054713e-01
7	 1	 51	 flanked	 rf	 4	 0.350000	 2.000000	 flanked_rf_freq_4_amplitude_0.35_rep_7_r_K_2.0.png	 K	 r	 r	 n.a.	 4.725463e-01
7	 1	 52	 flanked	 rf	 4	 0.200000	 2.000000	 flanked_rf_freq_4_amplitude_0.2_rep_2_r_D_2.0.png	 D	 r	 b	 n.a.	 4.568526e-01
7	 1	 53	 flanked	 rf	 4	 0.350000	 2.000000	 flanked_rf_freq_4_amplitude_0.35_rep_9_t_D_2.0.png	 D	 t	 l	 n.a.	 4.083955e-01
7	 1	 54	 flanked	 rf	 4	 0.050000	 2.000000	 flanked_rf_freq_4_amplitude_0.05_rep_1_l_H_2.0.png	 H	 l	 b	 n.a.	 5.392081e-01
7	 1	 55	 flanked	 rf	 4	 0.200000	 2.000000	 flanked_rf_freq_4_amplitude_0.2_rep_8_t_N_2.0.png	 N	 t	 r	 n.a.	 3.284208e-01
7	 1	 56	 flanked	 rf	 4	 0.125000	 2.000000	 flanked_rf_freq_4_amplitude_0.125_rep_6_r_N_2.0.png	 N	 r	 b	 n.a.	 5.781415e-01
7	 1	 57	 flanked	 rf	 4	 0.275000	 2.000000	 flanked_rf_freq_4_amplitude_0.275_rep_7_t_H_2.0.png	 H	 t	 r	 n.a.	 3.251115e-01
7	 1	 58	 flanked	 rf	 4	 0.125000	 2.000000	 flanked_rf_freq_4_amplitude_0.125_rep_7_l_N_2.0.png	 N	 l	 b	 n.a.	 3.646642e-01
7	 1	 59	 flanked	 rf	 4	 0.125000	 2.000000	 flanked_rf_freq_4_amplitude_0.125_rep_6_r_N_2.0.png	 N	 r	 b	 n.a.	 5.196612e-01
7	 1	 60	 flanked	 rf	 4	 0.425000	 2.000000	 flanked_rf_freq_4_amplitude_0.425_rep_4_l_D_2.0.png	 D	 l	 b	 n.a.	 4.074727e-01
7	 1	 61	 flanked	 rf	 4	 0.500000	 2.000000	 flanked_rf_freq_4_amplitude_0.5_rep_8_r_D_2.0.png	 D	 r	 r	 n.a.	 3.614442e-01
7	 1	 62	 flanked	 rf	 4	 0.350000	 2.000000	 flanked_rf_freq_4_amplitude_0.35_rep_4_b_N_2.0.png	 N	 b	 b	 n.a.	 6.715715e-01
7	 1	 63	 flanked	 rf	 4	 0.125000	 2.000000	 flanked_rf_freq_4_amplitude_0.125_rep_2_t_D_2.0.png	 D	 t	 l	 n.a.	 5.003493e-01
7	 1	 64	 flanked	 rf	 4	 0.050000	 2.000000	 flanked_rf_freq_4_amplitude_0.05_rep_0_l_N_2.0.png	 N	 l	 t	 n.a.	 4.617702e-01
7	 1	 65	 flanked	 rf	 4	 0.275000	 2.000000	 flanked_rf_freq_4_amplitude_0.275_rep_9_t_D_2.0.png	 D	 t	 b	 n.a.	 5.405231e-01
7	 1	 66	 flanked	 rf	 4	 0.200000	 2.000000	 flanked_rf_freq_4_amplitude_0.2_rep_4_l_D_2.0.png	 D	 l	 l	 n.a.	 5.095283e-01
7	 1	 67	 flanked	 rf	 4	 0.350000	 2.000000	 flanked_rf_freq_4_amplitude_0.35_rep_1_l_H_2.0.png	 H	 l	 l	 n.a.	 4.921452e-01
7	 1	 68	 flanked	 rf	 4	 0.425000	 2.000000	 flanked_rf_freq_4_amplitude_0.425_rep_9_l_K_2.0.png	 K	 l	 r	 n.a.	 4.065725e-01
7	 1	 69	 flanked	 rf	 4	 0.425000	 2.000000	 flanked_rf_freq_4_amplitude_0.425_rep_6_t_N_2.0.png	 N	 t	 b	 n.a.	 3.805613e-01
7	 1	 70	 flanked	 rf	 4	 0.425000	 2.000000	 flanked_rf_freq_4_amplitude_0.425_rep_7_r_H_2.0.png	 H	 r	 r	 n.a.	 4.789716e-01
7	 1	 71	 flanked	 rf	 4	 0.050000	 2.000000	 flanked_rf_freq_4_amplitude_0.05_rep_1_l_H_2.0.png	 H	 l	 b	 n.a.	 3.494721e-01
7	 1	 72	 flanked	 rf	 4	 0.200000	 2.000000	 flanked_rf_freq_4_amplitude_0.2_rep_4_l_D_2.0.png	 D	 l	 l	 n.a.	 2.874830e-01
7	 1	 73	 flanked	 rf	 4	 0.200000	 2.000000	 flanked_rf_freq_4_amplitude_0.2_rep_3_t_N_2.0.png	 N	 t	 t	 n.a.	 3.576210e-01
7	 1	 74	 flanked	 rf	 4	 0.125000	 2.000000	 flanked_rf_freq_4_amplitude_0.125_rep_3_r_N_2.0.png	 N	 r	 b	 n.a.	 3.071343e-01
7	 1	 75	 flanked	 rf	 4	 0.425000	 2.000000	 flanked_rf_freq_4_amplitude_0.425_rep_3_b_N_2.0.png	 N	 b	 r	 n.a.	 2.973927e-01
7	 1	 76	 flanked	 rf	 4	 0.275000	 2.000000	 flanked_rf_freq_4_amplitude_0.275_rep_8_b_H_2.0.png	 H	 b	 b	 n.a.	 4.013409e-01
7	 1	 77	 flanked	 rf	 4	 0.125000	 2.000000	 flanked_rf_freq_4_amplitude_0.125_rep_5_t_K_2.0.png	 K	 t	 b	 n.a.	 3.911837e-01
7	 1	 78	 flanked	 rf	 4	 0.275000	 2.000000	 flanked_rf_freq_4_amplitude_0.275_rep_3_b_N_2.0.png	 N	 b	 l	 n.a.	 2.928327e-01
7	 1	 79	 flanked	 rf	 4	 0.350000	 2.000000	 flanked_rf_freq_4_amplitude_0.35_rep_3_l_H_2.0.png	 H	 l	 r	 n.a.	 3.862492e-01
7	 1	 80	 flanked	 rf	 4	 0.125000	 2.000000	 flanked_rf_freq_4_amplitude_0.125_rep_4_t_D_2.0.png	 D	 t	 t	 n.a.	 5.405145e-01
7	 1	 81	 flanked	 rf	 4	 0.200000	 2.000000	 flanked_rf_freq_4_amplitude_0.2_rep_3_t_N_2.0.png	 N	 t	 b	 n.a.	 4.744036e-01
7	 1	 82	 flanked	 rf	 4	 0.050000	 2.000000	 flanked_rf_freq_4_amplitude_0.05_rep_4_l_H_2.0.png	 H	 l	 r	 n.a.	 3.270740e-01
7	 1	 83	 flanked	 rf	 4	 0.425000	 2.000000	 flanked_rf_freq_4_amplitude_0.425_rep_2_l_N_2.0.png	 N	 l	 l	 n.a.	 3.385686e-01
7	 1	 84	 flanked	 rf	 4	 0.500000	 2.000000	 flanked_rf_freq_4_amplitude_0.5_rep_8_r_D_2.0.png	 D	 r	 r	 n.a.	 3.478766e-01
7	 1	 85	 flanked	 rf	 4	 0.050000	 2.000000	 flanked_rf_freq_4_amplitude_0.05_rep_1_l_H_2.0.png	 H	 l	 b	 n.a.	 4.158103e-01
7	 1	 86	 flanked	 rf	 4	 0.275000	 2.000000	 flanked_rf_freq_4_amplitude_0.275_rep_9_t_D_2.0.png	 D	 t	 r	 n.a.	 3.778800e-01
7	 1	 87	 flanked	 rf	 4	 0.125000	 2.000000	 flanked_rf_freq_4_amplitude_0.125_rep_8_l_K_2.0.png	 K	 l	 l	 n.a.	 2.872028e-01
7	 1	 88	 flanked	 rf	 4	 0.500000	 2.000000	 flanked_rf_freq_4_amplitude_0.5_rep_2_b_D_2.0.png	 D	 b	 t	 n.a.	 4.452117e-01
7	 1	 89	 flanked	 rf	 4	 0.200000	 2.000000	 flanked_rf_freq_4_amplitude_0.2_rep_9_l_N_2.0.png	 N	 l	 b	 n.a.	 4.985470e-01
7	 1	 90	 flanked	 rf	 4	 0.200000	 2.000000	 flanked_rf_freq_4_amplitude_0.2_rep_4_l_D_2.0.png	 D	 l	 r	 n.a.	 5.244492e-01
7	 1	 91	 flanked	 rf	 4	 0.275000	 2.000000	 flanked_rf_freq_4_amplitude_0.275_rep_5_r_H_2.0.png	 H	 r	 r	 n.a.	 5.679354e-01
7	 1	 92	 flanked	 rf	 4	 0.350000	 2.000000	 flanked_rf_freq_4_amplitude_0.35_rep_4_b_N_2.0.png	 N	 b	 b	 n.a.	 3.322977e-01
7	 1	 93	 flanked	 rf	 4	 0.125000	 2.000000	 flanked_rf_freq_4_amplitude_0.125_rep_3_r_N_2.0.png	 N	 r	 r	 n.a.	 4.918655e-01
7	 1	 94	 flanked	 rf	 4	 0.050000	 2.000000	 flanked_rf_freq_4_amplitude_0.05_rep_8_t_N_2.0.png	 N	 t	 b	 n.a.	 4.837530e-01
7	 1	 95	 flanked	 rf	 4	 0.500000	 2.000000	 flanked_rf_freq_4_amplitude_0.5_rep_0_b_D_2.0.png	 D	 b	 t	 n.a.	 5.070516e-01
7	 1	 96	 flanked	 rf	 4	 0.350000	 2.000000	 flanked_rf_freq_4_amplitude_0.35_rep_5_t_K_2.0.png	 K	 t	 t	 n.a.	 5.066043e-01
7	 1	 97	 flanked	 rf	 4	 0.050000	 2.000000	 flanked_rf_freq_4_amplitude_0.05_rep_6_t_K_2.0.png	 K	 t	 r	 n.a.	 5.069803e-01
7	 1	 98	 flanked	 rf	 4	 0.350000	 2.000000	 flanked_rf_freq_4_amplitude_0.35_rep_5_t_K_2.0.png	 K	 t	 t	 n.a.	 4.342208e-01
7	 1	 99	 flanked	 rf	 4	 0.350000	 2.000000	 flanked_rf_freq_4_amplitude_0.35_rep_4_b_N_2.0.png	 N	 b	 t	 n.a.	 5.349653e-01
7	 1	 100	 flanked	 rf	 4	 0.350000	 2.000000	 flanked_rf_freq_4_amplitude_0.35_rep_0_t_H_2.0.png	 H	 t	 t	 n.a.	 5.745544e-01
7	 1	 101	 flanked	 rf	 4	 0.125000	 2.000000	 flanked_rf_freq_4_amplitude_0.125_rep_8_l_K_2.0.png	 K	 l	 l	 n.a.	 4.061974e-01
7	 1	 102	 flanked	 rf	 4	 0.275000	 2.000000	 flanked_rf_freq_4_amplitude_0.275_rep_1_r_D_2.0.png	 D	 r	 r	 n.a.	 4.433079e-01
7	 1	 103	 flanked	 rf	 4	 0.125000	 2.000000	 flanked_rf_freq_4_amplitude_0.125_rep_9_l_K_2.0.png	 K	 l	 b	 n.a.	 5.075518e-01
7	 1	 104	 flanked	 rf	 4	 0.125000	 2.000000	 flanked_rf_freq_4_amplitude_0.125_rep_6_r_N_2.0.png	 N	 r	 b	 n.a.	 5.850495e-01
7	 1	 105	 flanked	 rf	 4	 0.425000	 2.000000	 flanked_rf_freq_4_amplitude_0.425_rep_4_l_D_2.0.png	 D	 l	 r	 n.a.	 4.185979e-01
7	 1	 106	 flanked	 rf	 4	 0.425000	 2.000000	 flanked_rf_freq_4_amplitude_0.425_rep_0_b_H_2.0.png	 H	 b	 t	 n.a.	 3.879591e-01
7	 1	 107	 flanked	 rf	 4	 0.425000	 2.000000	 flanked_rf_freq_4_amplitude_0.425_rep_5_t_H_2.0.png	 H	 t	 t	 n.a.	 4.799533e-01
7	 1	 108	 flanked	 rf	 4	 0.500000	 2.000000	 flanked_rf_freq_4_amplitude_0.5_rep_5_t_D_2.0.png	 D	 t	 r	 n.a.	 4.362096e-01
7	 1	 109	 flanked	 rf	 4	 0.050000	 2.000000	 flanked_rf_freq_4_amplitude_0.05_rep_0_l_N_2.0.png	 N	 l	 t	 n.a.	 7.269150e-01
7	 1	 110	 flanked	 rf	 4	 0.200000	 2.000000	 flanked_rf_freq_4_amplitude_0.2_rep_1_r_K_2.0.png	 K	 r	 l	 n.a.	 4.886570e-01
7	 1	 111	 flanked	 rf	 4	 0.350000	 2.000000	 flanked_rf_freq_4_amplitude_0.35_rep_7_r_K_2.0.png	 K	 r	 b	 n.a.	 7.345923e-01
7	 1	 112	 flanked	 rf	 4	 0.200000	 2.000000	 flanked_rf_freq_4_amplitude_0.2_rep_5_l_K_2.0.png	 K	 l	 b	 n.a.	 6.658442e-01
7	 1	 113	 flanked	 rf	 4	 0.500000	 2.000000	 flanked_rf_freq_4_amplitude_0.5_rep_9_l_K_2.0.png	 K	 l	 r	 n.a.	 3.671995e-01
7	 1	 114	 flanked	 rf	 4	 0.050000	 2.000000	 flanked_rf_freq_4_amplitude_0.05_rep_5_t_H_2.0.png	 H	 t	 b	 n.a.	 5.579885e-01
7	 1	 115	 flanked	 rf	 4	 0.425000	 2.000000	 flanked_rf_freq_4_amplitude_0.425_rep_8_r_D_2.0.png	 D	 r	 r	 n.a.	 3.429948e-01
7	 1	 116	 flanked	 rf	 4	 0.350000	 2.000000	 flanked_rf_freq_4_amplitude_0.35_rep_9_t_D_2.0.png	 D	 t	 b	 n.a.	 5.539805e-01
7	 1	 117	 flanked	 rf	 4	 0.050000	 2.000000	 flanked_rf_freq_4_amplitude_0.05_rep_7_l_D_2.0.png	 D	 l	 t	 n.a.	 8.380285e-01
7	 1	 118	 flanked	 rf	 4	 0.200000	 2.000000	 flanked_rf_freq_4_amplitude_0.2_rep_0_l_N_2.0.png	 N	 l	 l	 n.a.	 6.685659e-01
7	 1	 119	 flanked	 rf	 4	 0.050000	 2.000000	 flanked_rf_freq_4_amplitude_0.05_rep_8_t_N_2.0.png	 N	 t	 b	 n.a.	 6.079880e-01
7	 1	 120	 flanked	 rf	 4	 0.050000	 2.000000	 flanked_rf_freq_4_amplitude_0.05_rep_2_b_K_2.0.png	 K	 b	 b	 n.a.	 7.877511e-01
7	 1	 121	 flanked	 rf	 4	 0.200000	 2.000000	 flanked_rf_freq_4_amplitude_0.2_rep_0_l_N_2.0.png	 N	 l	 b	 n.a.	 6.277548e-01
7	 1	 122	 flanked	 rf	 4	 0.500000	 2.000000	 flanked_rf_freq_4_amplitude_0.5_rep_4_r_H_2.0.png	 H	 r	 r	 n.a.	 3.746931e-01
7	 1	 123	 flanked	 rf	 4	 0.425000	 2.000000	 flanked_rf_freq_4_amplitude_0.425_rep_6_t_N_2.0.png	 N	 t	 t	 n.a.	 6.751306e-01
7	 1	 124	 flanked	 rf	 4	 0.275000	 2.000000	 flanked_rf_freq_4_amplitude_0.275_rep_3_b_N_2.0.png	 N	 b	 l	 n.a.	 5.209147e-01
7	 1	 125	 flanked	 rf	 4	 0.500000	 2.000000	 flanked_rf_freq_4_amplitude_0.5_rep_7_r_N_2.0.png	 N	 r	 r	 n.a.	 3.916911e-01
7	 1	 126	 flanked	 rf	 4	 0.425000	 2.000000	 flanked_rf_freq_4_amplitude_0.425_rep_8_r_D_2.0.png	 D	 r	 r	 n.a.	 5.194211e-01
7	 1	 127	 flanked	 rf	 4	 0.275000	 2.000000	 flanked_rf_freq_4_amplitude_0.275_rep_9_t_D_2.0.png	 D	 t	 r	 n.a.	 5.324100e-01
7	 1	 128	 flanked	 rf	 4	 0.350000	 2.000000	 flanked_rf_freq_4_amplitude_0.35_rep_8_b_H_2.0.png	 H	 b	 b	 n.a.	 4.058378e-01
7	 1	 129	 flanked	 rf	 4	 0.350000	 2.000000	 flanked_rf_freq_4_amplitude_0.35_rep_0_t_H_2.0.png	 H	 t	 b	 n.a.	 5.593206e-01
7	 1	 130	 flanked	 rf	 4	 0.350000	 2.000000	 flanked_rf_freq_4_amplitude_0.35_rep_0_t_H_2.0.png	 H	 t	 t	 n.a.	 5.440306e-01
7	 1	 131	 flanked	 rf	 4	 0.125000	 2.000000	 flanked_rf_freq_4_amplitude_0.125_rep_9_l_K_2.0.png	 K	 l	 b	 n.a.	 7.446737e-01
7	 1	 132	 flanked	 rf	 4	 0.200000	 2.000000	 flanked_rf_freq_4_amplitude_0.2_rep_2_r_D_2.0.png	 D	 r	 r	 n.a.	 3.581813e-01
7	 1	 133	 flanked	 rf	 4	 0.425000	 2.000000	 flanked_rf_freq_4_amplitude_0.425_rep_7_r_H_2.0.png	 H	 r	 r	 n.a.	 5.379638e-01
7	 1	 134	 flanked	 rf	 4	 0.125000	 2.000000	 flanked_rf_freq_4_amplitude_0.125_rep_4_t_D_2.0.png	 D	 t	 l	 n.a.	 4.469172e-01
7	 1	 135	 flanked	 rf	 4	 0.500000	 2.000000	 flanked_rf_freq_4_amplitude_0.5_rep_0_b_D_2.0.png	 D	 b	 b	 n.a.	 4.722151e-01
7	 1	 136	 flanked	 rf	 4	 0.050000	 2.000000	 flanked_rf_freq_4_amplitude_0.05_rep_2_b_K_2.0.png	 K	 b	 b	 n.a.	 4.678712e-01
7	 1	 137	 flanked	 rf	 4	 0.425000	 2.000000	 flanked_rf_freq_4_amplitude_0.425_rep_3_b_N_2.0.png	 N	 b	 l	 n.a.	 5.677158e-01
7	 1	 138	 flanked	 rf	 4	 0.500000	 2.000000	 flanked_rf_freq_4_amplitude_0.5_rep_5_t_D_2.0.png	 D	 t	 r	 n.a.	 4.790012e-01
7	 1	 139	 flanked	 rf	 4	 0.350000	 2.000000	 flanked_rf_freq_4_amplitude_0.35_rep_6_b_H_2.0.png	 H	 b	 b	 n.a.	 3.483892e-01
7	 1	 140	 flanked	 rf	 4	 0.350000	 2.000000	 flanked_rf_freq_4_amplitude_0.35_rep_3_l_H_2.0.png	 H	 l	 r	 n.a.	 5.132865e-01
7	 1	 141	 flanked	 rf	 4	 0.500000	 2.000000	 flanked_rf_freq_4_amplitude_0.5_rep_1_b_H_2.0.png	 H	 b	 r	 n.a.	 4.173401e-01
7	 1	 142	 flanked	 rf	 4	 0.275000	 2.000000	 flanked_rf_freq_4_amplitude_0.275_rep_0_r_K_2.0.png	 K	 r	 t	 n.a.	 4.942111e-01
7	 1	 143	 flanked	 rf	 4	 0.350000	 2.000000	 flanked_rf_freq_4_amplitude_0.35_rep_5_t_K_2.0.png	 K	 t	 b	 n.a.	 4.659094e-01
7	 1	 144	 flanked	 rf	 4	 0.500000	 2.000000	 flanked_rf_freq_4_amplitude_0.5_rep_7_r_N_2.0.png	 N	 r	 r	 n.a.	 3.552554e-01
7	 1	 145	 flanked	 rf	 4	 0.275000	 2.000000	 flanked_rf_freq_4_amplitude_0.275_rep_3_b_N_2.0.png	 N	 b	 r	 n.a.	 6.501110e-01
7	 1	 146	 flanked	 rf	 4	 0.200000	 2.000000	 flanked_rf_freq_4_amplitude_0.2_rep_3_t_N_2.0.png	 N	 t	 b	 n.a.	 4.721154e-01
7	 1	 147	 flanked	 rf	 4	 0.050000	 2.000000	 flanked_rf_freq_4_amplitude_0.05_rep_8_t_N_2.0.png	 N	 t	 t	 n.a.	 6.899174e-01
7	 1	 148	 flanked	 rf	 4	 0.275000	 2.000000	 flanked_rf_freq_4_amplitude_0.275_rep_8_b_H_2.0.png	 H	 b	 t	 n.a.	 6.747818e-01
7	 1	 149	 flanked	 rf	 4	 0.050000	 2.000000	 flanked_rf_freq_4_amplitude_0.05_rep_3_b_N_2.0.png	 N	 b	 l	 n.a.	 6.595059e-01
7	 1	 150	 flanked	 rf	 4	 0.350000	 2.000000	 flanked_rf_freq_4_amplitude_0.35_rep_6_b_H_2.0.png	 H	 b	 b	 n.a.	 4.720666e-01
7	 1	 151	 flanked	 rf	 4	 0.200000	 2.000000	 flanked_rf_freq_4_amplitude_0.2_rep_9_l_N_2.0.png	 N	 l	 t	 n.a.	 6.068580e-01
7	 1	 152	 flanked	 rf	 4	 0.500000	 2.000000	 flanked_rf_freq_4_amplitude_0.5_rep_9_l_K_2.0.png	 K	 l	 l	 n.a.	 4.490273e-01
7	 1	 153	 flanked	 rf	 4	 0.425000	 2.000000	 flanked_rf_freq_4_amplitude_0.425_rep_9_l_K_2.0.png	 K	 l	 r	 n.a.	 6.285521e-01
7	 1	 154	 flanked	 rf	 4	 0.500000	 2.000000	 flanked_rf_freq_4_amplitude_0.5_rep_1_b_H_2.0.png	 H	 b	 b	 n.a.	 5.945412e-01
7	 1	 155	 flanked	 rf	 4	 0.425000	 2.000000	 flanked_rf_freq_4_amplitude_0.425_rep_2_l_N_2.0.png	 N	 l	 l	 n.a.	 5.173553e-01
7	 1	 156	 flanked	 rf	 4	 0.500000	 2.000000	 flanked_rf_freq_4_amplitude_0.5_rep_6_b_H_2.0.png	 H	 b	 r	 n.a.	 5.402456e-01
7	 1	 157	 flanked	 rf	 4	 0.275000	 2.000000	 flanked_rf_freq_4_amplitude_0.275_rep_4_l_H_2.0.png	 H	 l	 l	 n.a.	 3.433990e-01
7	 1	 158	 flanked	 rf	 4	 0.425000	 2.000000	 flanked_rf_freq_4_amplitude_0.425_rep_6_t_N_2.0.png	 N	 t	 b	 n.a.	 5.444177e-01
7	 1	 159	 flanked	 rf	 4	 0.125000	 2.000000	 flanked_rf_freq_4_amplitude_0.125_rep_2_t_D_2.0.png	 D	 t	 l	 n.a.	 4.648441e-01
7	 1	 160	 flanked	 rf	 4	 0.500000	 2.000000	 flanked_rf_freq_4_amplitude_0.5_rep_0_b_D_2.0.png	 D	 b	 r	 n.a.	 3.906693e-01
7	 1	 161	 flanked	 rf	 4	 0.200000	 2.000000	 flanked_rf_freq_4_amplitude_0.2_rep_1_r_K_2.0.png	 K	 r	 l	 n.a.	 5.560862e-01
7	 1	 162	 flanked	 rf	 4	 0.050000	 2.000000	 flanked_rf_freq_4_amplitude_0.05_rep_2_b_K_2.0.png	 K	 b	 b	 n.a.	 5.494232e-01
7	 1	 163	 flanked	 rf	 4	 0.275000	 2.000000	 flanked_rf_freq_4_amplitude_0.275_rep_6_t_K_2.0.png	 K	 t	 t	 n.a.	 4.801618e-01
7	 1	 164	 flanked	 rf	 4	 0.500000	 2.000000	 flanked_rf_freq_4_amplitude_0.5_rep_5_t_D_2.0.png	 D	 t	 r	 n.a.	 4.776275e-01
7	 1	 165	 flanked	 rf	 4	 0.050000	 2.000000	 flanked_rf_freq_4_amplitude_0.05_rep_7_l_D_2.0.png	 D	 l	 b	 n.a.	 6.324840e-01
7	 1	 166	 flanked	 rf	 4	 0.200000	 2.000000	 flanked_rf_freq_4_amplitude_0.2_rep_6_b_D_2.0.png	 D	 b	 b	 n.a.	 6.670317e-01
7	 1	 167	 flanked	 rf	 4	 0.125000	 2.000000	 flanked_rf_freq_4_amplitude_0.125_rep_0_r_H_2.0.png	 H	 r	 t	 n.a.	 8.484813e-01
7	 1	 168	 flanked	 rf	 4	 0.350000	 2.000000	 flanked_rf_freq_4_amplitude_0.35_rep_1_l_H_2.0.png	 H	 l	 l	 n.a.	 4.330622e-01
7	 1	 169	 flanked	 rf	 4	 0.050000	 2.000000	 flanked_rf_freq_4_amplitude_0.05_rep_4_l_H_2.0.png	 H	 l	 t	 n.a.	 7.978758e-01
7	 1	 170	 flanked	 rf	 4	 0.425000	 2.000000	 flanked_rf_freq_4_amplitude_0.425_rep_0_b_H_2.0.png	 H	 b	 r	 n.a.	 6.310109e-01
7	 1	 171	 flanked	 rf	 4	 0.350000	 2.000000	 flanked_rf_freq_4_amplitude_0.35_rep_6_b_H_2.0.png	 H	 b	 b	 n.a.	 3.986490e-01
7	 1	 172	 flanked	 rf	 4	 0.425000	 2.000000	 flanked_rf_freq_4_amplitude_0.425_rep_7_r_H_2.0.png	 H	 r	 r	 n.a.	 4.874042e-01
7	 1	 173	 flanked	 rf	 4	 0.200000	 2.000000	 flanked_rf_freq_4_amplitude_0.2_rep_6_b_D_2.0.png	 D	 b	 b	 n.a.	 6.687578e-01
7	 1	 174	 flanked	 rf	 4	 0.425000	 2.000000	 flanked_rf_freq_4_amplitude_0.425_rep_1_r_N_2.0.png	 N	 r	 r	 n.a.	 5.524784e-01
7	 1	 175	 flanked	 rf	 4	 0.425000	 2.000000	 flanked_rf_freq_4_amplitude_0.425_rep_8_r_D_2.0.png	 D	 r	 r	 n.a.	 5.247182e-01
7	 1	 176	 flanked	 rf	 4	 0.275000	 2.000000	 flanked_rf_freq_4_amplitude_0.275_rep_4_l_H_2.0.png	 H	 l	 b	 n.a.	 7.008065e-01
7	 1	 177	 flanked	 rf	 4	 0.050000	 2.000000	 flanked_rf_freq_4_amplitude_0.05_rep_9_l_N_2.0.png	 N	 l	 r	 n.a.	 6.029160e-01
7	 1	 178	 flanked	 rf	 4	 0.050000	 2.000000	 flanked_rf_freq_4_amplitude_0.05_rep_3_b_N_2.0.png	 N	 b	 b	 n.a.	 8.078614e-01
7	 1	 179	 flanked	 rf	 4	 0.500000	 2.000000	 flanked_rf_freq_4_amplitude_0.5_rep_2_b_D_2.0.png	 D	 b	 r	 n.a.	 6.581308e-01
7	 1	 180	 flanked	 rf	 4	 0.500000	 2.000000	 flanked_rf_freq_4_amplitude_0.5_rep_3_l_K_2.0.png	 K	 l	 l	 n.a.	 5.774749e-01
7	 1	 181	 flanked	 rf	 4	 0.425000	 2.000000	 flanked_rf_freq_4_amplitude_0.425_rep_1_r_N_2.0.png	 N	 r	 r	 n.a.	 6.729862e-01
7	 1	 182	 flanked	 rf	 4	 0.200000	 2.000000	 flanked_rf_freq_4_amplitude_0.2_rep_8_t_N_2.0.png	 N	 t	 l	 n.a.	 6.318088e-01
7	 1	 183	 flanked	 rf	 4	 0.275000	 2.000000	 flanked_rf_freq_4_amplitude_0.275_rep_5_r_H_2.0.png	 H	 r	 r	 n.a.	 5.057828e-01
7	 1	 184	 flanked	 rf	 4	 0.500000	 2.000000	 flanked_rf_freq_4_amplitude_0.5_rep_1_b_H_2.0.png	 H	 b	 b	 n.a.	 5.446966e-01
7	 1	 185	 flanked	 rf	 4	 0.425000	 2.000000	 flanked_rf_freq_4_amplitude_0.425_rep_5_t_H_2.0.png	 H	 t	 t	 n.a.	 4.816323e-01
7	 1	 186	 flanked	 rf	 4	 0.125000	 2.000000	 flanked_rf_freq_4_amplitude_0.125_rep_7_l_N_2.0.png	 N	 l	 b	 n.a.	 4.892894e-01
7	 1	 187	 flanked	 rf	 4	 0.050000	 2.000000	 flanked_rf_freq_4_amplitude_0.05_rep_7_l_D_2.0.png	 D	 l	 r	 n.a.	 3.685996e-01
7	 1	 188	 flanked	 rf	 4	 0.275000	 2.000000	 flanked_rf_freq_4_amplitude_0.275_rep_7_t_H_2.0.png	 H	 t	 t	 n.a.	 5.609811e-01
7	 1	 189	 flanked	 rf	 4	 0.125000	 2.000000	 flanked_rf_freq_4_amplitude_0.125_rep_5_t_K_2.0.png	 K	 t	 b	 n.a.	 5.109812e-01
7	 1	 190	 flanked	 rf	 4	 0.350000	 2.000000	 flanked_rf_freq_4_amplitude_0.35_rep_8_b_H_2.0.png	 H	 b	 b	 n.a.	 4.705385e-01
7	 1	 191	 flanked	 rf	 4	 0.275000	 2.000000	 flanked_rf_freq_4_amplitude_0.275_rep_6_t_K_2.0.png	 K	 t	 t	 n.a.	 4.701961e-01
7	 1	 192	 flanked	 rf	 4	 0.350000	 2.000000	 flanked_rf_freq_4_amplitude_0.35_rep_1_l_H_2.0.png	 H	 l	 l	 n.a.	 3.701894e-01
7	 1	 193	 flanked	 rf	 4	 0.350000	 2.000000	 flanked_rf_freq_4_amplitude_0.35_rep_8_b_H_2.0.png	 H	 b	 b	 n.a.	 4.580697e-01
7	 1	 194	 flanked	 rf	 4	 0.425000	 2.000000	 flanked_rf_freq_4_amplitude_0.425_rep_0_b_H_2.0.png	 H	 b	 l	 n.a.	 4.718806e-01
7	 1	 195	 flanked	 rf	 4	 0.500000	 2.000000	 flanked_rf_freq_4_amplitude_0.5_rep_2_b_D_2.0.png	 D	 b	 t	 n.a.	 4.271331e-01
7	 1	 196	 flanked	 rf	 4	 0.050000	 2.000000	 flanked_rf_freq_4_amplitude_0.05_rep_3_b_N_2.0.png	 N	 b	 b	 n.a.	 5.011144e-01
7	 1	 197	 flanked	 rf	 4	 0.050000	 2.000000	 flanked_rf_freq_4_amplitude_0.05_rep_5_t_H_2.0.png	 H	 t	 l	 n.a.	 6.341673e-01
7	 1	 198	 flanked	 rf	 4	 0.425000	 2.000000	 flanked_rf_freq_4_amplitude_0.425_rep_9_l_K_2.0.png	 K	 l	 l	 n.a.	 5.759944e-01
7	 1	 199	 flanked	 rf	 4	 0.050000	 2.000000	 flanked_rf_freq_4_amplitude_0.05_rep_6_t_K_2.0.png	 K	 t	 b	 n.a.	 6.878575e-01
7	 1	 200	 flanked	 rf	 4	 0.350000	 2.000000	 flanked_rf_freq_4_amplitude_0.35_rep_7_r_K_2.0.png	 K	 r	 r	 n.a.	 4.488637e-01
7	 1	 201	 flanked	 rf	 4	 0.275000	 2.000000	 flanked_rf_freq_4_amplitude_0.275_rep_5_r_H_2.0.png	 H	 r	 r	 n.a.	 6.070333e-01
7	 1	 202	 flanked	 rf	 4	 0.200000	 2.000000	 flanked_rf_freq_4_amplitude_0.2_rep_7_b_D_2.0.png	 D	 b	 t	 n.a.	 6.566406e-01
7	 1	 203	 flanked	 rf	 4	 0.050000	 2.000000	 flanked_rf_freq_4_amplitude_0.05_rep_9_l_N_2.0.png	 N	 l	 b	 n.a.	 5.037255e-01
7	 1	 204	 flanked	 rf	 4	 0.425000	 2.000000	 flanked_rf_freq_4_amplitude_0.425_rep_3_b_N_2.0.png	 N	 b	 r	 n.a.	 4.220004e-01
7	 1	 205	 flanked	 rf	 4	 0.125000	 2.000000	 flanked_rf_freq_4_amplitude_0.125_rep_7_l_N_2.0.png	 N	 l	 l	 n.a.	 5.988775e-01
7	 1	 206	 flanked	 rf	 4	 0.275000	 2.000000	 flanked_rf_freq_4_amplitude_0.275_rep_8_b_H_2.0.png	 H	 b	 b	 n.a.	 5.976650e-01
7	 1	 207	 flanked	 rf	 4	 0.350000	 2.000000	 flanked_rf_freq_4_amplitude_0.35_rep_2_b_D_2.0.png	 D	 b	 t	 n.a.	 5.881850e-01
7	 1	 208	 flanked	 rf	 4	 0.050000	 2.000000	 flanked_rf_freq_4_amplitude_0.05_rep_5_t_H_2.0.png	 H	 t	 b	 n.a.	 5.098149e-01
7	 1	 209	 flanked	 rf	 4	 0.425000	 2.000000	 flanked_rf_freq_4_amplitude_0.425_rep_5_t_H_2.0.png	 H	 t	 r	 n.a.	 5.498646e-01
7	 1	 210	 flanked	 rf	 4	 0.200000	 2.000000	 flanked_rf_freq_4_amplitude_0.2_rep_7_b_D_2.0.png	 D	 b	 b	 n.a.	 5.607773e-01
