subject	 session	 trial	 flanked	 distortion	 freq	 amplitude	 spacing	 im_name	 targ_letter	 targ_pos	 response	 eyemovement	 RT
5	 2	 1	 flanked	 bex	 4	 6.000000	 2.000000	 flanked_bex_freq_4_amplitude_6_rep_9_b_H_2.0.png	 H	 b	 r	 n.a.	 8.615336e-01
5	 2	 2	 flanked	 bex	 4	 7.000000	 2.000000	 flanked_bex_freq_4_amplitude_7_rep_4_b_D_2.0.png	 D	 b	 t	 n.a.	 8.643993e-01
5	 2	 3	 flanked	 bex	 4	 7.000000	 2.000000	 flanked_bex_freq_4_amplitude_7_rep_2_r_H_2.0.png	 H	 r	 r	 n.a.	 6.800287e-01
5	 2	 4	 flanked	 bex	 4	 2.000000	 2.000000	 flanked_bex_freq_4_amplitude_2_rep_0_t_H_2.0.png	 H	 t	 t	 n.a.	 8.842009e-01
5	 2	 5	 flanked	 bex	 4	 2.000000	 2.000000	 flanked_bex_freq_4_amplitude_2_rep_6_b_D_2.0.png	 D	 b	 l	 n.a.	 9.106086e-01
5	 2	 6	 flanked	 bex	 4	 2.000000	 2.000000	 flanked_bex_freq_4_amplitude_2_rep_2_t_N_2.0.png	 N	 t	 t	 n.a.	 6.943407e-01
5	 2	 7	 flanked	 bex	 4	 6.000000	 2.000000	 flanked_bex_freq_4_amplitude_6_rep_0_t_K_2.0.png	 K	 t	 t	 n.a.	 5.455077e-01
5	 2	 8	 flanked	 bex	 4	 2.000000	 2.000000	 flanked_bex_freq_4_amplitude_2_rep_8_l_H_2.0.png	 H	 l	 t	 n.a.	 6.195462e-01
5	 2	 9	 flanked	 bex	 4	 2.000000	 2.000000	 flanked_bex_freq_4_amplitude_2_rep_1_l_D_2.0.png	 D	 l	 l	 n.a.	 9.496216e-01
5	 2	 10	 flanked	 bex	 4	 4.000000	 2.000000	 flanked_bex_freq_4_amplitude_4_rep_7_t_K_2.0.png	 K	 t	 t	 n.a.	 8.674970e-01
5	 2	 11	 flanked	 bex	 4	 5.000000	 2.000000	 flanked_bex_freq_4_amplitude_5_rep_6_l_N_2.0.png	 N	 l	 l	 n.a.	 3.724558e-01
5	 2	 12	 flanked	 bex	 4	 3.000000	 2.000000	 flanked_bex_freq_4_amplitude_3_rep_2_l_H_2.0.png	 H	 l	 r	 n.a.	 6.851994e-01
5	 2	 13	 flanked	 bex	 4	 4.000000	 2.000000	 flanked_bex_freq_4_amplitude_4_rep_2_l_H_2.0.png	 H	 l	 t	 n.a.	 7.459832e-01
5	 2	 14	 flanked	 bex	 4	 6.000000	 2.000000	 flanked_bex_freq_4_amplitude_6_rep_6_t_H_2.0.png	 H	 t	 t	 n.a.	 6.257828e-01
5	 2	 15	 flanked	 bex	 4	 1.000000	 2.000000	 flanked_bex_freq_4_amplitude_1_rep_8_b_K_2.0.png	 K	 b	 r	 n.a.	 8.245198e-01
5	 2	 16	 flanked	 bex	 4	 7.000000	 2.000000	 flanked_bex_freq_4_amplitude_7_rep_0_t_D_2.0.png	 D	 t	 t	 n.a.	 7.217563e-01
5	 2	 17	 flanked	 bex	 4	 3.000000	 2.000000	 flanked_bex_freq_4_amplitude_3_rep_1_l_K_2.0.png	 K	 l	 b	 n.a.	 6.383805e-01
5	 2	 18	 flanked	 bex	 4	 6.000000	 2.000000	 flanked_bex_freq_4_amplitude_6_rep_0_t_K_2.0.png	 K	 t	 t	 n.a.	 4.983048e-01
5	 2	 19	 flanked	 bex	 4	 5.000000	 2.000000	 flanked_bex_freq_4_amplitude_5_rep_8_b_H_2.0.png	 H	 b	 t	 n.a.	 8.897325e-01
5	 2	 20	 flanked	 bex	 4	 1.000000	 2.000000	 flanked_bex_freq_4_amplitude_1_rep_5_t_N_2.0.png	 N	 t	 r	 n.a.	 4.686056e-01
5	 2	 21	 flanked	 bex	 4	 1.000000	 2.000000	 flanked_bex_freq_4_amplitude_1_rep_4_t_H_2.0.png	 H	 t	 b	 n.a.	 4.848258e-01
5	 2	 22	 flanked	 bex	 4	 2.000000	 2.000000	 flanked_bex_freq_4_amplitude_2_rep_7_t_D_2.0.png	 D	 t	 t	 n.a.	 7.489883e-01
5	 2	 23	 flanked	 bex	 4	 1.000000	 2.000000	 flanked_bex_freq_4_amplitude_1_rep_6_l_H_2.0.png	 H	 l	 r	 n.a.	 6.644161e-01
5	 2	 24	 flanked	 bex	 4	 5.000000	 2.000000	 flanked_bex_freq_4_amplitude_5_rep_0_r_N_2.0.png	 N	 r	 r	 n.a.	 1.058500e+00
5	 2	 25	 flanked	 bex	 4	 4.000000	 2.000000	 flanked_bex_freq_4_amplitude_4_rep_1_t_N_2.0.png	 N	 t	 t	 n.a.	 4.093356e-01
5	 2	 26	 flanked	 bex	 4	 6.000000	 2.000000	 flanked_bex_freq_4_amplitude_6_rep_5_t_D_2.0.png	 D	 t	 t	 n.a.	 5.975928e-01
5	 2	 27	 flanked	 bex	 4	 1.000000	 2.000000	 flanked_bex_freq_4_amplitude_1_rep_2_b_H_2.0.png	 H	 b	 b	 n.a.	 8.087298e-01
5	 2	 28	 flanked	 bex	 4	 5.000000	 2.000000	 flanked_bex_freq_4_amplitude_5_rep_6_l_N_2.0.png	 N	 l	 l	 n.a.	 3.360181e-01
5	 2	 29	 flanked	 bex	 4	 7.000000	 2.000000	 flanked_bex_freq_4_amplitude_7_rep_9_r_H_2.0.png	 H	 r	 t	 n.a.	 8.117095e-01
5	 2	 30	 flanked	 bex	 4	 5.000000	 2.000000	 flanked_bex_freq_4_amplitude_5_rep_8_b_H_2.0.png	 H	 b	 t	 n.a.	 4.251817e-01
5	 2	 31	 flanked	 bex	 4	 7.000000	 2.000000	 flanked_bex_freq_4_amplitude_7_rep_6_t_K_2.0.png	 K	 t	 t	 n.a.	 4.940547e-01
5	 2	 32	 flanked	 bex	 4	 1.000000	 2.000000	 flanked_bex_freq_4_amplitude_1_rep_8_b_K_2.0.png	 K	 b	 b	 n.a.	 5.601438e-01
5	 2	 33	 flanked	 bex	 4	 1.000000	 2.000000	 flanked_bex_freq_4_amplitude_1_rep_6_l_H_2.0.png	 H	 l	 r	 n.a.	 6.925513e-01
5	 2	 34	 flanked	 bex	 4	 5.000000	 2.000000	 flanked_bex_freq_4_amplitude_5_rep_3_l_D_2.0.png	 D	 l	 l	 n.a.	 7.051199e-01
5	 2	 35	 flanked	 bex	 4	 6.000000	 2.000000	 flanked_bex_freq_4_amplitude_6_rep_1_l_D_2.0.png	 D	 l	 t	 n.a.	 5.400212e-01
5	 2	 36	 flanked	 bex	 4	 3.000000	 2.000000	 flanked_bex_freq_4_amplitude_3_rep_4_t_N_2.0.png	 N	 t	 t	 n.a.	 4.856660e-01
5	 2	 37	 flanked	 bex	 4	 2.000000	 2.000000	 flanked_bex_freq_4_amplitude_2_rep_0_t_H_2.0.png	 H	 t	 b	 n.a.	 5.526099e-01
5	 2	 38	 flanked	 bex	 4	 7.000000	 2.000000	 flanked_bex_freq_4_amplitude_7_rep_8_l_K_2.0.png	 K	 l	 t	 n.a.	 5.178838e-01
5	 2	 39	 flanked	 bex	 4	 6.000000	 2.000000	 flanked_bex_freq_4_amplitude_6_rep_6_t_H_2.0.png	 H	 t	 t	 n.a.	 1.002938e+00
5	 2	 40	 flanked	 bex	 4	 5.000000	 2.000000	 flanked_bex_freq_4_amplitude_5_rep_0_r_N_2.0.png	 N	 r	 t	 n.a.	 8.106529e-01
5	 2	 41	 flanked	 bex	 4	 4.000000	 2.000000	 flanked_bex_freq_4_amplitude_4_rep_7_t_K_2.0.png	 K	 t	 t	 n.a.	 3.931790e-01
5	 2	 42	 flanked	 bex	 4	 5.000000	 2.000000	 flanked_bex_freq_4_amplitude_5_rep_2_t_D_2.0.png	 D	 t	 t	 n.a.	 5.143815e-01
5	 2	 43	 flanked	 bex	 4	 6.000000	 2.000000	 flanked_bex_freq_4_amplitude_6_rep_8_t_D_2.0.png	 D	 t	 t	 n.a.	 7.429157e-01
5	 2	 44	 flanked	 bex	 4	 7.000000	 2.000000	 flanked_bex_freq_4_amplitude_7_rep_5_t_D_2.0.png	 D	 t	 t	 n.a.	 5.552117e-01
5	 2	 45	 flanked	 bex	 4	 4.000000	 2.000000	 flanked_bex_freq_4_amplitude_4_rep_8_b_D_2.0.png	 D	 b	 b	 n.a.	 7.759418e-01
5	 2	 46	 flanked	 bex	 4	 1.000000	 2.000000	 flanked_bex_freq_4_amplitude_1_rep_7_t_H_2.0.png	 H	 t	 r	 n.a.	 5.838705e-01
5	 2	 47	 flanked	 bex	 4	 3.000000	 2.000000	 flanked_bex_freq_4_amplitude_3_rep_1_l_K_2.0.png	 K	 l	 l	 n.a.	 7.513711e-01
5	 2	 48	 flanked	 bex	 4	 7.000000	 2.000000	 flanked_bex_freq_4_amplitude_7_rep_3_b_N_2.0.png	 N	 b	 t	 n.a.	 6.080716e-01
5	 2	 49	 flanked	 bex	 4	 1.000000	 2.000000	 flanked_bex_freq_4_amplitude_1_rep_3_t_H_2.0.png	 H	 t	 r	 n.a.	 6.603585e-01
5	 2	 50	 flanked	 bex	 4	 6.000000	 2.000000	 flanked_bex_freq_4_amplitude_6_rep_9_b_H_2.0.png	 H	 b	 b	 n.a.	 1.139929e+00
5	 2	 51	 flanked	 bex	 4	 3.000000	 2.000000	 flanked_bex_freq_4_amplitude_3_rep_3_l_N_2.0.png	 N	 l	 t	 n.a.	 6.948765e-01
5	 2	 52	 flanked	 bex	 4	 6.000000	 2.000000	 flanked_bex_freq_4_amplitude_6_rep_3_t_N_2.0.png	 N	 t	 t	 n.a.	 5.221501e-01
5	 2	 53	 flanked	 bex	 4	 7.000000	 2.000000	 flanked_bex_freq_4_amplitude_7_rep_6_t_K_2.0.png	 K	 t	 t	 n.a.	 4.111749e-01
5	 2	 54	 flanked	 bex	 4	 4.000000	 2.000000	 flanked_bex_freq_4_amplitude_4_rep_6_l_K_2.0.png	 K	 l	 l	 n.a.	 5.570548e-01
5	 2	 55	 flanked	 bex	 4	 5.000000	 2.000000	 flanked_bex_freq_4_amplitude_5_rep_9_r_H_2.0.png	 H	 r	 r	 n.a.	 8.819584e-01
5	 2	 56	 flanked	 bex	 4	 6.000000	 2.000000	 flanked_bex_freq_4_amplitude_6_rep_0_t_K_2.0.png	 K	 t	 t	 n.a.	 5.729569e-01
5	 2	 57	 flanked	 bex	 4	 6.000000	 2.000000	 flanked_bex_freq_4_amplitude_6_rep_8_t_D_2.0.png	 D	 t	 t	 n.a.	 7.555007e-01
5	 2	 58	 flanked	 bex	 4	 2.000000	 2.000000	 flanked_bex_freq_4_amplitude_2_rep_1_l_D_2.0.png	 D	 l	 b	 n.a.	 6.796385e-01
5	 2	 59	 flanked	 bex	 4	 6.000000	 2.000000	 flanked_bex_freq_4_amplitude_6_rep_2_l_D_2.0.png	 D	 l	 r	 n.a.	 7.231797e-01
5	 2	 60	 flanked	 bex	 4	 5.000000	 2.000000	 flanked_bex_freq_4_amplitude_5_rep_9_r_H_2.0.png	 H	 r	 t	 n.a.	 4.060543e-01
5	 2	 61	 flanked	 bex	 4	 1.000000	 2.000000	 flanked_bex_freq_4_amplitude_1_rep_7_t_H_2.0.png	 H	 t	 r	 n.a.	 4.320310e-01
5	 2	 62	 flanked	 bex	 4	 7.000000	 2.000000	 flanked_bex_freq_4_amplitude_7_rep_7_l_K_2.0.png	 K	 l	 t	 n.a.	 3.820300e-01
5	 2	 63	 flanked	 bex	 4	 2.000000	 2.000000	 flanked_bex_freq_4_amplitude_2_rep_6_b_D_2.0.png	 D	 b	 l	 n.a.	 5.978472e-01
5	 2	 64	 flanked	 bex	 4	 5.000000	 2.000000	 flanked_bex_freq_4_amplitude_5_rep_2_t_D_2.0.png	 D	 t	 t	 n.a.	 3.850974e-01
5	 2	 65	 flanked	 bex	 4	 5.000000	 2.000000	 flanked_bex_freq_4_amplitude_5_rep_8_b_H_2.0.png	 H	 b	 t	 n.a.	 3.653640e-01
5	 2	 66	 flanked	 bex	 4	 7.000000	 2.000000	 flanked_bex_freq_4_amplitude_7_rep_4_b_D_2.0.png	 D	 b	 t	 n.a.	 4.575885e-01
5	 2	 67	 flanked	 bex	 4	 2.000000	 2.000000	 flanked_bex_freq_4_amplitude_2_rep_4_r_K_2.0.png	 K	 r	 r	 n.a.	 4.496584e-01
5	 2	 68	 flanked	 bex	 4	 4.000000	 2.000000	 flanked_bex_freq_4_amplitude_4_rep_4_r_N_2.0.png	 N	 r	 r	 n.a.	 5.532779e-01
5	 2	 69	 flanked	 bex	 4	 7.000000	 2.000000	 flanked_bex_freq_4_amplitude_7_rep_5_t_D_2.0.png	 D	 t	 t	 n.a.	 5.018397e-01
5	 2	 70	 flanked	 bex	 4	 6.000000	 2.000000	 flanked_bex_freq_4_amplitude_6_rep_3_t_N_2.0.png	 N	 t	 t	 n.a.	 4.029526e-01
5	 2	 71	 flanked	 bex	 4	 5.000000	 2.000000	 flanked_bex_freq_4_amplitude_5_rep_2_t_D_2.0.png	 D	 t	 t	 n.a.	 3.754604e-01
5	 2	 72	 flanked	 bex	 4	 7.000000	 2.000000	 flanked_bex_freq_4_amplitude_7_rep_0_t_D_2.0.png	 D	 t	 t	 n.a.	 4.002290e-01
5	 2	 73	 flanked	 bex	 4	 3.000000	 2.000000	 flanked_bex_freq_4_amplitude_3_rep_8_t_H_2.0.png	 H	 t	 r	 n.a.	 4.921363e-01
5	 2	 74	 flanked	 bex	 4	 5.000000	 2.000000	 flanked_bex_freq_4_amplitude_5_rep_3_l_D_2.0.png	 D	 l	 l	 n.a.	 1.179274e+00
5	 2	 75	 flanked	 bex	 4	 4.000000	 2.000000	 flanked_bex_freq_4_amplitude_4_rep_3_r_D_2.0.png	 D	 r	 r	 n.a.	 3.389486e-01
5	 2	 76	 flanked	 bex	 4	 5.000000	 2.000000	 flanked_bex_freq_4_amplitude_5_rep_1_b_K_2.0.png	 K	 b	 b	 n.a.	 4.470225e-01
5	 2	 77	 flanked	 bex	 4	 4.000000	 2.000000	 flanked_bex_freq_4_amplitude_4_rep_9_r_D_2.0.png	 D	 r	 r	 n.a.	 3.581846e-01
5	 2	 78	 flanked	 bex	 4	 1.000000	 2.000000	 flanked_bex_freq_4_amplitude_1_rep_4_t_H_2.0.png	 H	 t	 b	 n.a.	 6.138956e-01
5	 2	 79	 flanked	 bex	 4	 6.000000	 2.000000	 flanked_bex_freq_4_amplitude_6_rep_7_b_D_2.0.png	 D	 b	 t	 n.a.	 4.359397e-01
5	 2	 80	 flanked	 bex	 4	 5.000000	 2.000000	 flanked_bex_freq_4_amplitude_5_rep_7_r_N_2.0.png	 N	 r	 r	 n.a.	 3.986919e-01
5	 2	 81	 flanked	 bex	 4	 4.000000	 2.000000	 flanked_bex_freq_4_amplitude_4_rep_5_r_D_2.0.png	 D	 r	 l	 n.a.	 7.925544e-01
5	 2	 82	 flanked	 bex	 4	 3.000000	 2.000000	 flanked_bex_freq_4_amplitude_3_rep_4_t_N_2.0.png	 N	 t	 t	 n.a.	 4.878263e-01
5	 2	 83	 flanked	 bex	 4	 3.000000	 2.000000	 flanked_bex_freq_4_amplitude_3_rep_9_t_K_2.0.png	 K	 t	 t	 n.a.	 5.448378e-01
5	 2	 84	 flanked	 bex	 4	 5.000000	 2.000000	 flanked_bex_freq_4_amplitude_5_rep_5_r_N_2.0.png	 N	 r	 t	 n.a.	 4.243954e-01
5	 2	 85	 flanked	 bex	 4	 1.000000	 2.000000	 flanked_bex_freq_4_amplitude_1_rep_5_t_N_2.0.png	 N	 t	 r	 n.a.	 3.750794e-01
5	 2	 86	 flanked	 bex	 4	 5.000000	 2.000000	 flanked_bex_freq_4_amplitude_5_rep_6_l_N_2.0.png	 N	 l	 l	 n.a.	 3.686830e-01
5	 2	 87	 flanked	 bex	 4	 5.000000	 2.000000	 flanked_bex_freq_4_amplitude_5_rep_1_b_K_2.0.png	 K	 b	 r	 n.a.	 7.615345e-01
5	 2	 88	 flanked	 bex	 4	 2.000000	 2.000000	 flanked_bex_freq_4_amplitude_2_rep_7_t_D_2.0.png	 D	 t	 t	 n.a.	 9.877225e-01
5	 2	 89	 flanked	 bex	 4	 7.000000	 2.000000	 flanked_bex_freq_4_amplitude_7_rep_1_r_H_2.0.png	 H	 r	 b	 n.a.	 6.507086e-01
5	 2	 90	 flanked	 bex	 4	 5.000000	 2.000000	 flanked_bex_freq_4_amplitude_5_rep_4_r_N_2.0.png	 N	 r	 r	 n.a.	 2.830497e-01
5	 2	 91	 flanked	 bex	 4	 5.000000	 2.000000	 flanked_bex_freq_4_amplitude_5_rep_3_l_D_2.0.png	 D	 l	 l	 n.a.	 3.897268e-01
5	 2	 92	 flanked	 bex	 4	 3.000000	 2.000000	 flanked_bex_freq_4_amplitude_3_rep_7_b_N_2.0.png	 N	 b	 r	 n.a.	 2.933507e-01
5	 2	 93	 flanked	 bex	 4	 5.000000	 2.000000	 flanked_bex_freq_4_amplitude_5_rep_5_r_N_2.0.png	 N	 r	 t	 n.a.	 5.288478e-01
5	 2	 94	 flanked	 bex	 4	 5.000000	 2.000000	 flanked_bex_freq_4_amplitude_5_rep_4_r_N_2.0.png	 N	 r	 r	 n.a.	 3.086787e-01
5	 2	 95	 flanked	 bex	 4	 4.000000	 2.000000	 flanked_bex_freq_4_amplitude_4_rep_9_r_D_2.0.png	 D	 r	 r	 n.a.	 4.030262e-01
5	 2	 96	 flanked	 bex	 4	 6.000000	 2.000000	 flanked_bex_freq_4_amplitude_6_rep_4_r_N_2.0.png	 N	 r	 r	 n.a.	 7.249823e-01
5	 2	 97	 flanked	 bex	 4	 6.000000	 2.000000	 flanked_bex_freq_4_amplitude_6_rep_1_l_D_2.0.png	 D	 l	 t	 n.a.	 6.514282e-01
5	 2	 98	 flanked	 bex	 4	 2.000000	 2.000000	 flanked_bex_freq_4_amplitude_2_rep_3_l_H_2.0.png	 H	 l	 r	 n.a.	 3.900131e-01
5	 2	 99	 flanked	 bex	 4	 1.000000	 2.000000	 flanked_bex_freq_4_amplitude_1_rep_9_r_N_2.0.png	 N	 r	 r	 n.a.	 1.007331e+00
5	 2	 100	 flanked	 bex	 4	 5.000000	 2.000000	 flanked_bex_freq_4_amplitude_5_rep_7_r_N_2.0.png	 N	 r	 r	 n.a.	 4.591646e-01
5	 2	 101	 flanked	 bex	 4	 1.000000	 2.000000	 flanked_bex_freq_4_amplitude_1_rep_9_r_N_2.0.png	 N	 r	 b	 n.a.	 4.560807e-01
5	 2	 102	 flanked	 bex	 4	 7.000000	 2.000000	 flanked_bex_freq_4_amplitude_7_rep_4_b_D_2.0.png	 D	 b	 t	 n.a.	 1.021977e+00
5	 2	 103	 flanked	 bex	 4	 3.000000	 2.000000	 flanked_bex_freq_4_amplitude_3_rep_7_b_N_2.0.png	 N	 b	 l	 n.a.	 7.294492e-01
5	 2	 104	 flanked	 bex	 4	 4.000000	 2.000000	 flanked_bex_freq_4_amplitude_4_rep_5_r_D_2.0.png	 D	 r	 r	 n.a.	 4.943062e-01
5	 2	 105	 flanked	 bex	 4	 5.000000	 2.000000	 flanked_bex_freq_4_amplitude_5_rep_1_b_K_2.0.png	 K	 b	 b	 n.a.	 4.186335e-01
5	 2	 106	 flanked	 bex	 4	 6.000000	 2.000000	 flanked_bex_freq_4_amplitude_6_rep_4_r_N_2.0.png	 N	 r	 r	 n.a.	 8.233915e-01
5	 2	 107	 flanked	 bex	 4	 3.000000	 2.000000	 flanked_bex_freq_4_amplitude_3_rep_3_l_N_2.0.png	 N	 l	 l	 n.a.	 4.291966e-01
5	 2	 108	 flanked	 bex	 4	 4.000000	 2.000000	 flanked_bex_freq_4_amplitude_4_rep_0_l_H_2.0.png	 H	 l	 b	 n.a.	 8.528513e-01
5	 2	 109	 flanked	 bex	 4	 1.000000	 2.000000	 flanked_bex_freq_4_amplitude_1_rep_4_t_H_2.0.png	 H	 t	 t	 n.a.	 5.236483e-01
5	 2	 110	 flanked	 bex	 4	 6.000000	 2.000000	 flanked_bex_freq_4_amplitude_6_rep_6_t_H_2.0.png	 H	 t	 t	 n.a.	 9.716596e-01
5	 2	 111	 flanked	 bex	 4	 6.000000	 2.000000	 flanked_bex_freq_4_amplitude_6_rep_7_b_D_2.0.png	 D	 b	 t	 n.a.	 5.588017e-01
5	 2	 112	 flanked	 bex	 4	 7.000000	 2.000000	 flanked_bex_freq_4_amplitude_7_rep_6_t_K_2.0.png	 K	 t	 t	 n.a.	 4.667985e-01
5	 2	 113	 flanked	 bex	 4	 1.000000	 2.000000	 flanked_bex_freq_4_amplitude_1_rep_3_t_H_2.0.png	 H	 t	 b	 n.a.	 1.050342e+00
5	 2	 114	 flanked	 bex	 4	 2.000000	 2.000000	 flanked_bex_freq_4_amplitude_2_rep_5_t_H_2.0.png	 H	 t	 r	 n.a.	 8.134061e-01
5	 2	 115	 flanked	 bex	 4	 7.000000	 2.000000	 flanked_bex_freq_4_amplitude_7_rep_3_b_N_2.0.png	 N	 b	 t	 n.a.	 7.228613e-01
5	 2	 116	 flanked	 bex	 4	 2.000000	 2.000000	 flanked_bex_freq_4_amplitude_2_rep_8_l_H_2.0.png	 H	 l	 r	 n.a.	 6.928409e-01
5	 2	 117	 flanked	 bex	 4	 3.000000	 2.000000	 flanked_bex_freq_4_amplitude_3_rep_3_l_N_2.0.png	 N	 l	 l	 n.a.	 4.525143e-01
5	 2	 118	 flanked	 bex	 4	 1.000000	 2.000000	 flanked_bex_freq_4_amplitude_1_rep_7_t_H_2.0.png	 H	 t	 l	 n.a.	 1.263231e+00
5	 2	 119	 flanked	 bex	 4	 1.000000	 2.000000	 flanked_bex_freq_4_amplitude_1_rep_2_b_H_2.0.png	 H	 b	 r	 n.a.	 5.484996e-01
5	 2	 120	 flanked	 bex	 4	 1.000000	 2.000000	 flanked_bex_freq_4_amplitude_1_rep_6_l_H_2.0.png	 H	 l	 b	 n.a.	 6.436450e-01
5	 2	 121	 flanked	 bex	 4	 2.000000	 2.000000	 flanked_bex_freq_4_amplitude_2_rep_3_l_H_2.0.png	 H	 l	 l	 n.a.	 4.363757e-01
5	 2	 122	 flanked	 bex	 4	 4.000000	 2.000000	 flanked_bex_freq_4_amplitude_4_rep_8_b_D_2.0.png	 D	 b	 r	 n.a.	 7.827342e-01
5	 2	 123	 flanked	 bex	 4	 4.000000	 2.000000	 flanked_bex_freq_4_amplitude_4_rep_2_l_H_2.0.png	 H	 l	 t	 n.a.	 7.251251e-01
5	 2	 124	 flanked	 bex	 4	 7.000000	 2.000000	 flanked_bex_freq_4_amplitude_7_rep_3_b_N_2.0.png	 N	 b	 t	 n.a.	 6.186130e-01
5	 2	 125	 flanked	 bex	 4	 5.000000	 2.000000	 flanked_bex_freq_4_amplitude_5_rep_5_r_N_2.0.png	 N	 r	 r	 n.a.	 8.539853e-01
5	 2	 126	 flanked	 bex	 4	 3.000000	 2.000000	 flanked_bex_freq_4_amplitude_3_rep_0_r_K_2.0.png	 K	 r	 r	 n.a.	 4.347316e-01
5	 2	 127	 flanked	 bex	 4	 5.000000	 2.000000	 flanked_bex_freq_4_amplitude_5_rep_7_r_N_2.0.png	 N	 r	 r	 n.a.	 4.542209e-01
5	 2	 128	 flanked	 bex	 4	 4.000000	 2.000000	 flanked_bex_freq_4_amplitude_4_rep_3_r_D_2.0.png	 D	 r	 r	 n.a.	 4.894209e-01
5	 2	 129	 flanked	 bex	 4	 1.000000	 2.000000	 flanked_bex_freq_4_amplitude_1_rep_9_r_N_2.0.png	 N	 r	 r	 n.a.	 7.352222e-01
5	 2	 130	 flanked	 bex	 4	 6.000000	 2.000000	 flanked_bex_freq_4_amplitude_6_rep_5_t_D_2.0.png	 D	 t	 t	 n.a.	 4.883176e-01
5	 2	 131	 flanked	 bex	 4	 6.000000	 2.000000	 flanked_bex_freq_4_amplitude_6_rep_1_l_D_2.0.png	 D	 l	 l	 n.a.	 1.315026e+00
5	 2	 132	 flanked	 bex	 4	 7.000000	 2.000000	 flanked_bex_freq_4_amplitude_7_rep_9_r_H_2.0.png	 H	 r	 r	 n.a.	 5.512353e-01
5	 2	 133	 flanked	 bex	 4	 4.000000	 2.000000	 flanked_bex_freq_4_amplitude_4_rep_7_t_K_2.0.png	 K	 t	 t	 n.a.	 4.607750e-01
5	 2	 134	 flanked	 bex	 4	 4.000000	 2.000000	 flanked_bex_freq_4_amplitude_4_rep_0_l_H_2.0.png	 H	 l	 r	 n.a.	 7.321988e-01
5	 2	 135	 flanked	 bex	 4	 3.000000	 2.000000	 flanked_bex_freq_4_amplitude_3_rep_4_t_N_2.0.png	 N	 t	 t	 n.a.	 5.035975e-01
5	 2	 136	 flanked	 bex	 4	 2.000000	 2.000000	 flanked_bex_freq_4_amplitude_2_rep_9_b_N_2.0.png	 N	 b	 b	 n.a.	 1.127201e+00
5	 2	 137	 flanked	 bex	 4	 3.000000	 2.000000	 flanked_bex_freq_4_amplitude_3_rep_6_t_H_2.0.png	 H	 t	 t	 n.a.	 4.868646e-01
5	 2	 138	 flanked	 bex	 4	 4.000000	 2.000000	 flanked_bex_freq_4_amplitude_4_rep_2_l_H_2.0.png	 H	 l	 l	 n.a.	 5.194787e-01
5	 2	 139	 flanked	 bex	 4	 4.000000	 2.000000	 flanked_bex_freq_4_amplitude_4_rep_5_r_D_2.0.png	 D	 r	 r	 n.a.	 8.821236e-01
5	 2	 140	 flanked	 bex	 4	 1.000000	 2.000000	 flanked_bex_freq_4_amplitude_1_rep_0_b_H_2.0.png	 H	 b	 r	 n.a.	 1.143865e+00
5	 2	 141	 flanked	 bex	 4	 7.000000	 2.000000	 flanked_bex_freq_4_amplitude_7_rep_9_r_H_2.0.png	 H	 r	 t	 n.a.	 6.043191e-01
5	 2	 142	 flanked	 bex	 4	 3.000000	 2.000000	 flanked_bex_freq_4_amplitude_3_rep_9_t_K_2.0.png	 K	 t	 t	 n.a.	 5.322510e-01
5	 2	 143	 flanked	 bex	 4	 5.000000	 2.000000	 flanked_bex_freq_4_amplitude_5_rep_9_r_H_2.0.png	 H	 r	 r	 n.a.	 5.460535e-01
5	 2	 144	 flanked	 bex	 4	 1.000000	 2.000000	 flanked_bex_freq_4_amplitude_1_rep_1_b_H_2.0.png	 H	 b	 b	 n.a.	 7.295789e-01
5	 2	 145	 flanked	 bex	 4	 7.000000	 2.000000	 flanked_bex_freq_4_amplitude_7_rep_8_l_K_2.0.png	 K	 l	 l	 n.a.	 1.153188e+00
5	 2	 146	 flanked	 bex	 4	 7.000000	 2.000000	 flanked_bex_freq_4_amplitude_7_rep_2_r_H_2.0.png	 H	 r	 t	 n.a.	 8.687145e-01
5	 2	 147	 flanked	 bex	 4	 6.000000	 2.000000	 flanked_bex_freq_4_amplitude_6_rep_8_t_D_2.0.png	 D	 t	 t	 n.a.	 4.449347e-01
5	 2	 148	 flanked	 bex	 4	 2.000000	 2.000000	 flanked_bex_freq_4_amplitude_2_rep_9_b_N_2.0.png	 N	 b	 b	 n.a.	 4.601835e-01
5	 2	 149	 flanked	 bex	 4	 1.000000	 2.000000	 flanked_bex_freq_4_amplitude_1_rep_1_b_H_2.0.png	 H	 b	 b	 n.a.	 9.195476e-01
5	 2	 150	 flanked	 bex	 4	 3.000000	 2.000000	 flanked_bex_freq_4_amplitude_3_rep_7_b_N_2.0.png	 N	 b	 t	 n.a.	 4.886339e-01
5	 2	 151	 flanked	 bex	 4	 3.000000	 2.000000	 flanked_bex_freq_4_amplitude_3_rep_9_t_K_2.0.png	 K	 t	 r	 n.a.	 5.464973e-01
5	 2	 152	 flanked	 bex	 4	 3.000000	 2.000000	 flanked_bex_freq_4_amplitude_3_rep_2_l_H_2.0.png	 H	 l	 l	 n.a.	 5.709986e-01
5	 2	 153	 flanked	 bex	 4	 2.000000	 2.000000	 flanked_bex_freq_4_amplitude_2_rep_9_b_N_2.0.png	 N	 b	 r	 n.a.	 5.554544e-01
5	 2	 154	 flanked	 bex	 4	 1.000000	 2.000000	 flanked_bex_freq_4_amplitude_1_rep_8_b_K_2.0.png	 K	 b	 b	 n.a.	 5.464868e-01
5	 2	 155	 flanked	 bex	 4	 2.000000	 2.000000	 flanked_bex_freq_4_amplitude_2_rep_7_t_D_2.0.png	 D	 t	 l	 n.a.	 8.667016e-01
5	 2	 156	 flanked	 bex	 4	 4.000000	 2.000000	 flanked_bex_freq_4_amplitude_4_rep_4_r_N_2.0.png	 N	 r	 r	 n.a.	 6.506643e-01
5	 2	 157	 flanked	 bex	 4	 3.000000	 2.000000	 flanked_bex_freq_4_amplitude_3_rep_5_l_D_2.0.png	 D	 l	 l	 n.a.	 4.678472e-01
5	 2	 158	 flanked	 bex	 4	 2.000000	 2.000000	 flanked_bex_freq_4_amplitude_2_rep_0_t_H_2.0.png	 H	 t	 t	 n.a.	 7.457533e-01
5	 2	 159	 flanked	 bex	 4	 7.000000	 2.000000	 flanked_bex_freq_4_amplitude_7_rep_1_r_H_2.0.png	 H	 r	 t	 n.a.	 7.101518e-01
5	 2	 160	 flanked	 bex	 4	 2.000000	 2.000000	 flanked_bex_freq_4_amplitude_2_rep_8_l_H_2.0.png	 H	 l	 b	 n.a.	 9.181914e-01
5	 2	 161	 flanked	 bex	 4	 6.000000	 2.000000	 flanked_bex_freq_4_amplitude_6_rep_7_b_D_2.0.png	 D	 b	 t	 n.a.	 5.245804e-01
5	 2	 162	 flanked	 bex	 4	 4.000000	 2.000000	 flanked_bex_freq_4_amplitude_4_rep_9_r_D_2.0.png	 D	 r	 r	 n.a.	 6.340947e-01
5	 2	 163	 flanked	 bex	 4	 3.000000	 2.000000	 flanked_bex_freq_4_amplitude_3_rep_6_t_H_2.0.png	 H	 t	 t	 n.a.	 7.664378e-01
5	 2	 164	 flanked	 bex	 4	 3.000000	 2.000000	 flanked_bex_freq_4_amplitude_3_rep_8_t_H_2.0.png	 H	 t	 t	 n.a.	 5.797427e-01
5	 2	 165	 flanked	 bex	 4	 6.000000	 2.000000	 flanked_bex_freq_4_amplitude_6_rep_5_t_D_2.0.png	 D	 t	 t	 n.a.	 1.061525e+00
5	 2	 166	 flanked	 bex	 4	 7.000000	 2.000000	 flanked_bex_freq_4_amplitude_7_rep_5_t_D_2.0.png	 D	 t	 t	 n.a.	 5.159941e-01
5	 2	 167	 flanked	 bex	 4	 1.000000	 2.000000	 flanked_bex_freq_4_amplitude_1_rep_0_b_H_2.0.png	 H	 b	 r	 n.a.	 8.604230e-01
5	 2	 168	 flanked	 bex	 4	 7.000000	 2.000000	 flanked_bex_freq_4_amplitude_7_rep_7_l_K_2.0.png	 K	 l	 t	 n.a.	 6.166327e-01
5	 2	 169	 flanked	 bex	 4	 7.000000	 2.000000	 flanked_bex_freq_4_amplitude_7_rep_8_l_K_2.0.png	 K	 l	 t	 n.a.	 6.747159e-01
5	 2	 170	 flanked	 bex	 4	 2.000000	 2.000000	 flanked_bex_freq_4_amplitude_2_rep_5_t_H_2.0.png	 H	 t	 b	 n.a.	 5.251510e-01
5	 2	 171	 flanked	 bex	 4	 3.000000	 2.000000	 flanked_bex_freq_4_amplitude_3_rep_0_r_K_2.0.png	 K	 r	 r	 n.a.	 6.977288e-01
5	 2	 172	 flanked	 bex	 4	 2.000000	 2.000000	 flanked_bex_freq_4_amplitude_2_rep_1_l_D_2.0.png	 D	 l	 r	 n.a.	 8.446760e-01
5	 2	 173	 flanked	 bex	 4	 3.000000	 2.000000	 flanked_bex_freq_4_amplitude_3_rep_2_l_H_2.0.png	 H	 l	 t	 n.a.	 6.790057e-01
5	 2	 174	 flanked	 bex	 4	 6.000000	 2.000000	 flanked_bex_freq_4_amplitude_6_rep_9_b_H_2.0.png	 H	 b	 r	 n.a.	 6.524687e-01
5	 2	 175	 flanked	 bex	 4	 6.000000	 2.000000	 flanked_bex_freq_4_amplitude_6_rep_2_l_D_2.0.png	 D	 l	 b	 n.a.	 5.384662e-01
5	 2	 176	 flanked	 bex	 4	 6.000000	 2.000000	 flanked_bex_freq_4_amplitude_6_rep_4_r_N_2.0.png	 N	 r	 t	 n.a.	 1.140529e+00
5	 2	 177	 flanked	 bex	 4	 1.000000	 2.000000	 flanked_bex_freq_4_amplitude_1_rep_0_b_H_2.0.png	 H	 b	 b	 n.a.	 6.786708e-01
5	 2	 178	 flanked	 bex	 4	 5.000000	 2.000000	 flanked_bex_freq_4_amplitude_5_rep_4_r_N_2.0.png	 N	 r	 b	 n.a.	 7.912333e-01
5	 2	 179	 flanked	 bex	 4	 7.000000	 2.000000	 flanked_bex_freq_4_amplitude_7_rep_0_t_D_2.0.png	 D	 t	 t	 n.a.	 5.101532e-01
5	 2	 180	 flanked	 bex	 4	 3.000000	 2.000000	 flanked_bex_freq_4_amplitude_3_rep_0_r_K_2.0.png	 K	 r	 r	 n.a.	 4.468542e-01
5	 2	 181	 flanked	 bex	 4	 4.000000	 2.000000	 flanked_bex_freq_4_amplitude_4_rep_1_t_N_2.0.png	 N	 t	 t	 n.a.	 6.191861e-01
5	 2	 182	 flanked	 bex	 4	 7.000000	 2.000000	 flanked_bex_freq_4_amplitude_7_rep_2_r_H_2.0.png	 H	 r	 r	 n.a.	 7.119268e-01
5	 2	 183	 flanked	 bex	 4	 2.000000	 2.000000	 flanked_bex_freq_4_amplitude_2_rep_2_t_N_2.0.png	 N	 t	 t	 n.a.	 5.094076e-01
5	 2	 184	 flanked	 bex	 4	 4.000000	 2.000000	 flanked_bex_freq_4_amplitude_4_rep_4_r_N_2.0.png	 N	 r	 r	 n.a.	 5.973707e-01
5	 2	 185	 flanked	 bex	 4	 3.000000	 2.000000	 flanked_bex_freq_4_amplitude_3_rep_6_t_H_2.0.png	 H	 t	 b	 n.a.	 1.289457e+00
5	 2	 186	 flanked	 bex	 4	 1.000000	 2.000000	 flanked_bex_freq_4_amplitude_1_rep_3_t_H_2.0.png	 H	 t	 l	 n.a.	 5.145140e-01
5	 2	 187	 flanked	 bex	 4	 4.000000	 2.000000	 flanked_bex_freq_4_amplitude_4_rep_8_b_D_2.0.png	 D	 b	 t	 n.a.	 5.260145e-01
5	 2	 188	 flanked	 bex	 4	 3.000000	 2.000000	 flanked_bex_freq_4_amplitude_3_rep_5_l_D_2.0.png	 D	 l	 l	 n.a.	 3.432063e-01
5	 2	 189	 flanked	 bex	 4	 1.000000	 2.000000	 flanked_bex_freq_4_amplitude_1_rep_1_b_H_2.0.png	 H	 b	 r	 n.a.	 5.171553e-01
5	 2	 190	 flanked	 bex	 4	 4.000000	 2.000000	 flanked_bex_freq_4_amplitude_4_rep_6_l_K_2.0.png	 K	 l	 l	 n.a.	 5.058301e-01
5	 2	 191	 flanked	 bex	 4	 2.000000	 2.000000	 flanked_bex_freq_4_amplitude_2_rep_6_b_D_2.0.png	 D	 b	 l	 n.a.	 7.896344e-01
5	 2	 192	 flanked	 bex	 4	 1.000000	 2.000000	 flanked_bex_freq_4_amplitude_1_rep_5_t_N_2.0.png	 N	 t	 l	 n.a.	 1.097258e+00
5	 2	 193	 flanked	 bex	 4	 4.000000	 2.000000	 flanked_bex_freq_4_amplitude_4_rep_1_t_N_2.0.png	 N	 t	 t	 n.a.	 4.222038e-01
5	 2	 194	 flanked	 bex	 4	 4.000000	 2.000000	 flanked_bex_freq_4_amplitude_4_rep_0_l_H_2.0.png	 H	 l	 b	 n.a.	 5.791192e-01
5	 2	 195	 flanked	 bex	 4	 2.000000	 2.000000	 flanked_bex_freq_4_amplitude_2_rep_3_l_H_2.0.png	 H	 l	 l	 n.a.	 7.517652e-01
5	 2	 196	 flanked	 bex	 4	 5.000000	 2.000000	 flanked_bex_freq_4_amplitude_5_rep_0_r_N_2.0.png	 N	 r	 r	 n.a.	 4.875193e-01
5	 2	 197	 flanked	 bex	 4	 6.000000	 2.000000	 flanked_bex_freq_4_amplitude_6_rep_3_t_N_2.0.png	 N	 t	 t	 n.a.	 6.346153e-01
5	 2	 198	 flanked	 bex	 4	 3.000000	 2.000000	 flanked_bex_freq_4_amplitude_3_rep_5_l_D_2.0.png	 D	 l	 l	 n.a.	 4.454435e-01
5	 2	 199	 flanked	 bex	 4	 1.000000	 2.000000	 flanked_bex_freq_4_amplitude_1_rep_2_b_H_2.0.png	 H	 b	 t	 n.a.	 6.964970e-01
5	 2	 200	 flanked	 bex	 4	 3.000000	 2.000000	 flanked_bex_freq_4_amplitude_3_rep_8_t_H_2.0.png	 H	 t	 t	 n.a.	 4.237625e-01
5	 2	 201	 flanked	 bex	 4	 2.000000	 2.000000	 flanked_bex_freq_4_amplitude_2_rep_5_t_H_2.0.png	 H	 t	 t	 n.a.	 6.509167e-01
5	 2	 202	 flanked	 bex	 4	 2.000000	 2.000000	 flanked_bex_freq_4_amplitude_2_rep_2_t_N_2.0.png	 N	 t	 b	 n.a.	 9.502399e-01
5	 2	 203	 flanked	 bex	 4	 6.000000	 2.000000	 flanked_bex_freq_4_amplitude_6_rep_2_l_D_2.0.png	 D	 l	 r	 n.a.	 6.723478e-01
5	 2	 204	 flanked	 bex	 4	 7.000000	 2.000000	 flanked_bex_freq_4_amplitude_7_rep_7_l_K_2.0.png	 K	 l	 l	 n.a.	 6.785894e-01
5	 2	 205	 flanked	 bex	 4	 2.000000	 2.000000	 flanked_bex_freq_4_amplitude_2_rep_4_r_K_2.0.png	 K	 r	 r	 n.a.	 4.343627e-01
5	 2	 206	 flanked	 bex	 4	 4.000000	 2.000000	 flanked_bex_freq_4_amplitude_4_rep_6_l_K_2.0.png	 K	 l	 t	 n.a.	 6.813345e-01
5	 2	 207	 flanked	 bex	 4	 7.000000	 2.000000	 flanked_bex_freq_4_amplitude_7_rep_1_r_H_2.0.png	 H	 r	 r	 n.a.	 1.007970e+00
5	 2	 208	 flanked	 bex	 4	 3.000000	 2.000000	 flanked_bex_freq_4_amplitude_3_rep_1_l_K_2.0.png	 K	 l	 t	 n.a.	 9.018507e-01
5	 2	 209	 flanked	 bex	 4	 4.000000	 2.000000	 flanked_bex_freq_4_amplitude_4_rep_3_r_D_2.0.png	 D	 r	 l	 n.a.	 7.128216e-01
5	 2	 210	 flanked	 bex	 4	 2.000000	 2.000000	 flanked_bex_freq_4_amplitude_2_rep_4_r_K_2.0.png	 K	 r	 r	 n.a.	 3.422407e-01
