subject	 session	 trial	 flanked	 distortion	 freq	 amplitude	 spacing	 im_name	 targ_letter	 targ_pos	 response	 eyemovement	 RT
7	 1	 1	 flanked	 rf	 4	 0.275000	 2.000000	 flanked_rf_freq_4_amplitude_0.275_rep_8_l_D_2.0_ampflank_0.425.png	 D	 l	 l	 n.a.	 5.831575e-01
7	 1	 2	 flanked	 rf	 4	 0.125000	 2.000000	 flanked_rf_freq_4_amplitude_0.125_rep_9_l_D_2.0_ampflank_0.425.png	 D	 l	 r	 n.a.	 5.644472e-01
7	 1	 3	 flanked	 rf	 4	 0.425000	 2.000000	 flanked_rf_freq_4_amplitude_0.425_rep_8_b_D_2.0_ampflank_0.425.png	 D	 b	 t	 n.a.	 5.429517e-01
7	 1	 4	 flanked	 rf	 4	 0.350000	 2.000000	 flanked_rf_freq_4_amplitude_0.35_rep_6_b_D_2.0_ampflank_0.425.png	 D	 b	 l	 n.a.	 4.207105e-01
7	 1	 5	 flanked	 rf	 4	 0.275000	 2.000000	 flanked_rf_freq_4_amplitude_0.275_rep_6_b_N_2.0_ampflank_0.425.png	 N	 b	 b	 n.a.	 4.304246e-01
7	 1	 6	 flanked	 rf	 4	 0.200000	 2.000000	 flanked_rf_freq_4_amplitude_0.2_rep_4_r_K_2.0_ampflank_0.425.png	 K	 r	 r	 n.a.	 5.718644e-01
7	 1	 7	 flanked	 rf	 4	 0.025000	 2.000000	 flanked_rf_freq_4_amplitude_0.025_rep_1_l_D_2.0_ampflank_0.425.png	 D	 l	 l	 n.a.	 5.634077e-01
7	 1	 8	 flanked	 rf	 4	 0.125000	 2.000000	 flanked_rf_freq_4_amplitude_0.125_rep_1_l_H_2.0_ampflank_0.425.png	 H	 l	 r	 n.a.	 6.166870e-01
7	 1	 9	 flanked	 rf	 4	 0.050000	 2.000000	 flanked_rf_freq_4_amplitude_0.05_rep_5_l_H_2.0_ampflank_0.425.png	 H	 l	 t	 n.a.	 6.839020e-01
7	 1	 10	 flanked	 rf	 4	 0.050000	 2.000000	 flanked_rf_freq_4_amplitude_0.05_rep_4_r_D_2.0_ampflank_0.425.png	 D	 r	 r	 n.a.	 4.690971e-01
7	 1	 11	 flanked	 rf	 4	 0.275000	 2.000000	 flanked_rf_freq_4_amplitude_0.275_rep_4_l_H_2.0_ampflank_0.425.png	 H	 l	 t	 n.a.	 7.760567e-01
7	 1	 12	 flanked	 rf	 4	 0.200000	 2.000000	 flanked_rf_freq_4_amplitude_0.2_rep_7_r_D_2.0_ampflank_0.425.png	 D	 r	 r	 n.a.	 5.092670e-01
7	 1	 13	 flanked	 rf	 4	 0.350000	 2.000000	 flanked_rf_freq_4_amplitude_0.35_rep_2_l_D_2.0_ampflank_0.425.png	 D	 l	 t	 n.a.	 5.640593e-01
7	 1	 14	 flanked	 rf	 4	 0.200000	 2.000000	 flanked_rf_freq_4_amplitude_0.2_rep_5_l_K_2.0_ampflank_0.425.png	 K	 l	 l	 n.a.	 4.016417e-01
7	 1	 15	 flanked	 rf	 4	 0.125000	 2.000000	 flanked_rf_freq_4_amplitude_0.125_rep_6_l_D_2.0_ampflank_0.425.png	 D	 l	 r	 n.a.	 5.456195e-01
7	 1	 16	 flanked	 rf	 4	 0.025000	 2.000000	 flanked_rf_freq_4_amplitude_0.025_rep_2_b_K_2.0_ampflank_0.425.png	 K	 b	 b	 n.a.	 5.564454e-01
7	 1	 17	 flanked	 rf	 4	 0.050000	 2.000000	 flanked_rf_freq_4_amplitude_0.05_rep_1_t_N_2.0_ampflank_0.425.png	 N	 t	 t	 n.a.	 4.419838e-01
7	 1	 18	 flanked	 rf	 4	 0.025000	 2.000000	 flanked_rf_freq_4_amplitude_0.025_rep_0_l_D_2.0_ampflank_0.425.png	 D	 l	 r	 n.a.	 7.822276e-01
7	 1	 19	 flanked	 rf	 4	 0.125000	 2.000000	 flanked_rf_freq_4_amplitude_0.125_rep_8_l_N_2.0_ampflank_0.425.png	 N	 l	 l	 n.a.	 4.383548e-01
7	 1	 20	 flanked	 rf	 4	 0.025000	 2.000000	 flanked_rf_freq_4_amplitude_0.025_rep_8_t_K_2.0_ampflank_0.425.png	 K	 t	 t	 n.a.	 6.519251e-01
7	 1	 21	 flanked	 rf	 4	 0.200000	 2.000000	 flanked_rf_freq_4_amplitude_0.2_rep_3_t_H_2.0_ampflank_0.425.png	 H	 t	 t	 n.a.	 5.941786e-01
7	 1	 22	 flanked	 rf	 4	 0.350000	 2.000000	 flanked_rf_freq_4_amplitude_0.35_rep_3_t_H_2.0_ampflank_0.425.png	 H	 t	 r	 n.a.	 4.268339e-01
7	 1	 23	 flanked	 rf	 4	 0.275000	 2.000000	 flanked_rf_freq_4_amplitude_0.275_rep_8_l_D_2.0_ampflank_0.425.png	 D	 l	 b	 n.a.	 5.101211e-01
7	 1	 24	 flanked	 rf	 4	 0.425000	 2.000000	 flanked_rf_freq_4_amplitude_0.425_rep_0_t_N_2.0_ampflank_0.425.png	 N	 t	 r	 n.a.	 6.512223e-01
7	 1	 25	 flanked	 rf	 4	 0.025000	 2.000000	 flanked_rf_freq_4_amplitude_0.025_rep_4_l_K_2.0_ampflank_0.425.png	 K	 l	 t	 n.a.	 3.801039e-01
7	 1	 26	 flanked	 rf	 4	 0.350000	 2.000000	 flanked_rf_freq_4_amplitude_0.35_rep_1_b_D_2.0_ampflank_0.425.png	 D	 b	 l	 n.a.	 3.787350e-01
7	 1	 27	 flanked	 rf	 4	 0.200000	 2.000000	 flanked_rf_freq_4_amplitude_0.2_rep_0_r_H_2.0_ampflank_0.425.png	 H	 r	 r	 n.a.	 4.516660e-01
7	 1	 28	 flanked	 rf	 4	 0.350000	 2.000000	 flanked_rf_freq_4_amplitude_0.35_rep_6_b_D_2.0_ampflank_0.425.png	 D	 b	 b	 n.a.	 5.558673e-01
7	 1	 29	 flanked	 rf	 4	 0.025000	 2.000000	 flanked_rf_freq_4_amplitude_0.025_rep_3_r_H_2.0_ampflank_0.425.png	 H	 r	 t	 n.a.	 7.462312e-01
7	 1	 30	 flanked	 rf	 4	 0.125000	 2.000000	 flanked_rf_freq_4_amplitude_0.125_rep_5_l_H_2.0_ampflank_0.425.png	 H	 l	 l	 n.a.	 4.711876e-01
7	 1	 31	 flanked	 rf	 4	 0.125000	 2.000000	 flanked_rf_freq_4_amplitude_0.125_rep_3_t_D_2.0_ampflank_0.425.png	 D	 t	 r	 n.a.	 4.611088e-01
7	 1	 32	 flanked	 rf	 4	 0.025000	 2.000000	 flanked_rf_freq_4_amplitude_0.025_rep_3_r_H_2.0_ampflank_0.425.png	 H	 r	 t	 n.a.	 8.516125e-01
7	 1	 33	 flanked	 rf	 4	 0.050000	 2.000000	 flanked_rf_freq_4_amplitude_0.05_rep_8_t_N_2.0_ampflank_0.425.png	 N	 t	 r	 n.a.	 4.705659e-01
7	 1	 34	 flanked	 rf	 4	 0.050000	 2.000000	 flanked_rf_freq_4_amplitude_0.05_rep_9_b_K_2.0_ampflank_0.425.png	 K	 b	 l	 n.a.	 5.984589e-01
7	 1	 35	 flanked	 rf	 4	 0.200000	 2.000000	 flanked_rf_freq_4_amplitude_0.2_rep_6_b_K_2.0_ampflank_0.425.png	 K	 b	 t	 n.a.	 4.088024e-01
7	 1	 36	 flanked	 rf	 4	 0.050000	 2.000000	 flanked_rf_freq_4_amplitude_0.05_rep_2_r_D_2.0_ampflank_0.425.png	 D	 r	 r	 n.a.	 4.897232e-01
7	 1	 37	 flanked	 rf	 4	 0.025000	 2.000000	 flanked_rf_freq_4_amplitude_0.025_rep_9_b_K_2.0_ampflank_0.425.png	 K	 b	 t	 n.a.	 5.777988e-01
7	 1	 38	 flanked	 rf	 4	 0.275000	 2.000000	 flanked_rf_freq_4_amplitude_0.275_rep_7_l_K_2.0_ampflank_0.425.png	 K	 l	 l	 n.a.	 3.541209e-01
7	 1	 39	 flanked	 rf	 4	 0.275000	 2.000000	 flanked_rf_freq_4_amplitude_0.275_rep_0_t_K_2.0_ampflank_0.425.png	 K	 t	 t	 n.a.	 6.012976e-01
7	 1	 40	 flanked	 rf	 4	 0.125000	 2.000000	 flanked_rf_freq_4_amplitude_0.125_rep_4_b_N_2.0_ampflank_0.425.png	 N	 b	 r	 n.a.	 4.531135e-01
7	 1	 41	 flanked	 rf	 4	 0.050000	 2.000000	 flanked_rf_freq_4_amplitude_0.05_rep_9_b_K_2.0_ampflank_0.425.png	 K	 b	 r	 n.a.	 5.074544e-01
7	 1	 42	 flanked	 rf	 4	 0.425000	 2.000000	 flanked_rf_freq_4_amplitude_0.425_rep_9_r_K_2.0_ampflank_0.425.png	 K	 r	 r	 n.a.	 3.886598e-01
7	 1	 43	 flanked	 rf	 4	 0.275000	 2.000000	 flanked_rf_freq_4_amplitude_0.275_rep_3_l_H_2.0_ampflank_0.425.png	 H	 l	 t	 n.a.	 4.915261e-01
7	 1	 44	 flanked	 rf	 4	 0.275000	 2.000000	 flanked_rf_freq_4_amplitude_0.275_rep_1_l_H_2.0_ampflank_0.425.png	 H	 l	 r	 n.a.	 3.748217e-01
7	 1	 45	 flanked	 rf	 4	 0.275000	 2.000000	 flanked_rf_freq_4_amplitude_0.275_rep_2_t_H_2.0_ampflank_0.425.png	 H	 t	 r	 n.a.	 4.841487e-01
7	 1	 46	 flanked	 rf	 4	 0.425000	 2.000000	 flanked_rf_freq_4_amplitude_0.425_rep_4_b_D_2.0_ampflank_0.425.png	 D	 b	 b	 n.a.	 6.499201e-01
7	 1	 47	 flanked	 rf	 4	 0.425000	 2.000000	 flanked_rf_freq_4_amplitude_0.425_rep_2_b_K_2.0_ampflank_0.425.png	 K	 b	 r	 n.a.	 5.416668e-01
7	 1	 48	 flanked	 rf	 4	 0.025000	 2.000000	 flanked_rf_freq_4_amplitude_0.025_rep_3_r_H_2.0_ampflank_0.425.png	 H	 r	 t	 n.a.	 4.876806e-01
7	 1	 49	 flanked	 rf	 4	 0.050000	 2.000000	 flanked_rf_freq_4_amplitude_0.05_rep_0_l_D_2.0_ampflank_0.425.png	 D	 l	 t	 n.a.	 3.969244e-01
7	 1	 50	 flanked	 rf	 4	 0.275000	 2.000000	 flanked_rf_freq_4_amplitude_0.275_rep_9_b_N_2.0_ampflank_0.425.png	 N	 b	 b	 n.a.	 4.107887e-01
7	 1	 51	 flanked	 rf	 4	 0.200000	 2.000000	 flanked_rf_freq_4_amplitude_0.2_rep_7_r_D_2.0_ampflank_0.425.png	 D	 r	 t	 n.a.	 5.470921e-01
7	 1	 52	 flanked	 rf	 4	 0.125000	 2.000000	 flanked_rf_freq_4_amplitude_0.125_rep_1_l_H_2.0_ampflank_0.425.png	 H	 l	 r	 n.a.	 3.148470e-01
7	 1	 53	 flanked	 rf	 4	 0.275000	 2.000000	 flanked_rf_freq_4_amplitude_0.275_rep_3_l_H_2.0_ampflank_0.425.png	 H	 l	 t	 n.a.	 5.668739e-01
7	 1	 54	 flanked	 rf	 4	 0.350000	 2.000000	 flanked_rf_freq_4_amplitude_0.35_rep_2_l_D_2.0_ampflank_0.425.png	 D	 l	 t	 n.a.	 4.106101e-01
7	 1	 55	 flanked	 rf	 4	 0.050000	 2.000000	 flanked_rf_freq_4_amplitude_0.05_rep_1_t_N_2.0_ampflank_0.425.png	 N	 t	 b	 n.a.	 4.777922e-01
7	 1	 56	 flanked	 rf	 4	 0.050000	 2.000000	 flanked_rf_freq_4_amplitude_0.05_rep_0_l_D_2.0_ampflank_0.425.png	 D	 l	 t	 n.a.	 3.565857e-01
7	 1	 57	 flanked	 rf	 4	 0.125000	 2.000000	 flanked_rf_freq_4_amplitude_0.125_rep_8_l_N_2.0_ampflank_0.425.png	 N	 l	 r	 n.a.	 4.148224e-01
7	 1	 58	 flanked	 rf	 4	 0.425000	 2.000000	 flanked_rf_freq_4_amplitude_0.425_rep_7_l_H_2.0_ampflank_0.425.png	 H	 l	 l	 n.a.	 3.017940e-01
7	 1	 59	 flanked	 rf	 4	 0.050000	 2.000000	 flanked_rf_freq_4_amplitude_0.05_rep_8_t_N_2.0_ampflank_0.425.png	 N	 t	 t	 n.a.	 5.469898e-01
7	 1	 60	 flanked	 rf	 4	 0.200000	 2.000000	 flanked_rf_freq_4_amplitude_0.2_rep_6_b_K_2.0_ampflank_0.425.png	 K	 b	 b	 n.a.	 5.237840e-01
7	 1	 61	 flanked	 rf	 4	 0.050000	 2.000000	 flanked_rf_freq_4_amplitude_0.05_rep_0_l_D_2.0_ampflank_0.425.png	 D	 l	 t	 n.a.	 4.763588e-01
7	 1	 62	 flanked	 rf	 4	 0.025000	 2.000000	 flanked_rf_freq_4_amplitude_0.025_rep_2_b_K_2.0_ampflank_0.425.png	 K	 b	 r	 n.a.	 5.213650e-01
7	 1	 63	 flanked	 rf	 4	 0.425000	 2.000000	 flanked_rf_freq_4_amplitude_0.425_rep_6_t_N_2.0_ampflank_0.425.png	 N	 t	 t	 n.a.	 4.660233e-01
7	 1	 64	 flanked	 rf	 4	 0.425000	 2.000000	 flanked_rf_freq_4_amplitude_0.425_rep_5_r_D_2.0_ampflank_0.425.png	 D	 r	 b	 n.a.	 5.315043e-01
7	 1	 65	 flanked	 rf	 4	 0.025000	 2.000000	 flanked_rf_freq_4_amplitude_0.025_rep_1_l_D_2.0_ampflank_0.425.png	 D	 l	 l	 n.a.	 6.699235e-01
7	 1	 66	 flanked	 rf	 4	 0.275000	 2.000000	 flanked_rf_freq_4_amplitude_0.275_rep_4_l_H_2.0_ampflank_0.425.png	 H	 l	 t	 n.a.	 1.020091e+00
7	 1	 67	 flanked	 rf	 4	 0.425000	 2.000000	 flanked_rf_freq_4_amplitude_0.425_rep_0_t_N_2.0_ampflank_0.425.png	 N	 t	 t	 n.a.	 5.125415e-01
7	 1	 68	 flanked	 rf	 4	 0.125000	 2.000000	 flanked_rf_freq_4_amplitude_0.125_rep_7_r_H_2.0_ampflank_0.425.png	 H	 r	 l	 n.a.	 7.054881e-01
7	 1	 69	 flanked	 rf	 4	 0.050000	 2.000000	 flanked_rf_freq_4_amplitude_0.05_rep_5_l_H_2.0_ampflank_0.425.png	 H	 l	 r	 n.a.	 6.986878e-01
7	 1	 70	 flanked	 rf	 4	 0.050000	 2.000000	 flanked_rf_freq_4_amplitude_0.05_rep_8_t_N_2.0_ampflank_0.425.png	 N	 t	 b	 n.a.	 5.742573e-01
7	 1	 71	 flanked	 rf	 4	 0.125000	 2.000000	 flanked_rf_freq_4_amplitude_0.125_rep_7_r_H_2.0_ampflank_0.425.png	 H	 r	 b	 n.a.	 5.812322e-01
7	 1	 72	 flanked	 rf	 4	 0.425000	 2.000000	 flanked_rf_freq_4_amplitude_0.425_rep_9_r_K_2.0_ampflank_0.425.png	 K	 r	 r	 n.a.	 3.108491e-01
7	 1	 73	 flanked	 rf	 4	 0.425000	 2.000000	 flanked_rf_freq_4_amplitude_0.425_rep_1_b_D_2.0_ampflank_0.425.png	 D	 b	 b	 n.a.	 4.253655e-01
7	 1	 74	 flanked	 rf	 4	 0.200000	 2.000000	 flanked_rf_freq_4_amplitude_0.2_rep_1_b_D_2.0_ampflank_0.425.png	 D	 b	 l	 n.a.	 5.225955e-01
7	 1	 75	 flanked	 rf	 4	 0.275000	 2.000000	 flanked_rf_freq_4_amplitude_0.275_rep_6_b_N_2.0_ampflank_0.425.png	 N	 b	 b	 n.a.	 3.838437e-01
7	 1	 76	 flanked	 rf	 4	 0.125000	 2.000000	 flanked_rf_freq_4_amplitude_0.125_rep_4_b_N_2.0_ampflank_0.425.png	 N	 b	 r	 n.a.	 5.140364e-01
7	 1	 77	 flanked	 rf	 4	 0.050000	 2.000000	 flanked_rf_freq_4_amplitude_0.05_rep_4_r_D_2.0_ampflank_0.425.png	 D	 r	 t	 n.a.	 3.700183e-01
7	 1	 78	 flanked	 rf	 4	 0.200000	 2.000000	 flanked_rf_freq_4_amplitude_0.2_rep_2_r_H_2.0_ampflank_0.425.png	 H	 r	 r	 n.a.	 4.630853e-01
7	 1	 79	 flanked	 rf	 4	 0.425000	 2.000000	 flanked_rf_freq_4_amplitude_0.425_rep_9_r_K_2.0_ampflank_0.425.png	 K	 r	 r	 n.a.	 4.830736e-01
7	 1	 80	 flanked	 rf	 4	 0.350000	 2.000000	 flanked_rf_freq_4_amplitude_0.35_rep_5_b_K_2.0_ampflank_0.425.png	 K	 b	 b	 n.a.	 6.284257e-01
7	 1	 81	 flanked	 rf	 4	 0.350000	 2.000000	 flanked_rf_freq_4_amplitude_0.35_rep_0_t_K_2.0_ampflank_0.425.png	 K	 t	 t	 n.a.	 4.417189e-01
7	 1	 82	 flanked	 rf	 4	 0.425000	 2.000000	 flanked_rf_freq_4_amplitude_0.425_rep_4_b_D_2.0_ampflank_0.425.png	 D	 b	 b	 n.a.	 4.116039e-01
7	 1	 83	 flanked	 rf	 4	 0.200000	 2.000000	 flanked_rf_freq_4_amplitude_0.2_rep_2_r_H_2.0_ampflank_0.425.png	 H	 r	 t	 n.a.	 3.821152e-01
7	 1	 84	 flanked	 rf	 4	 0.025000	 2.000000	 flanked_rf_freq_4_amplitude_0.025_rep_6_t_D_2.0_ampflank_0.425.png	 D	 t	 r	 n.a.	 3.317630e-01
7	 1	 85	 flanked	 rf	 4	 0.425000	 2.000000	 flanked_rf_freq_4_amplitude_0.425_rep_1_b_D_2.0_ampflank_0.425.png	 D	 b	 b	 n.a.	 4.449347e-01
7	 1	 86	 flanked	 rf	 4	 0.425000	 2.000000	 flanked_rf_freq_4_amplitude_0.425_rep_8_b_D_2.0_ampflank_0.425.png	 D	 b	 l	 n.a.	 6.897784e-01
7	 1	 87	 flanked	 rf	 4	 0.350000	 2.000000	 flanked_rf_freq_4_amplitude_0.35_rep_0_t_K_2.0_ampflank_0.425.png	 K	 t	 t	 n.a.	 4.604199e-01
7	 1	 88	 flanked	 rf	 4	 0.350000	 2.000000	 flanked_rf_freq_4_amplitude_0.35_rep_1_b_D_2.0_ampflank_0.425.png	 D	 b	 b	 n.a.	 3.513305e-01
7	 1	 89	 flanked	 rf	 4	 0.025000	 2.000000	 flanked_rf_freq_4_amplitude_0.025_rep_0_l_D_2.0_ampflank_0.425.png	 D	 l	 r	 n.a.	 3.667381e-01
7	 1	 90	 flanked	 rf	 4	 0.125000	 2.000000	 flanked_rf_freq_4_amplitude_0.125_rep_0_b_N_2.0_ampflank_0.425.png	 N	 b	 b	 n.a.	 6.836624e-01
7	 1	 91	 flanked	 rf	 4	 0.125000	 2.000000	 flanked_rf_freq_4_amplitude_0.125_rep_6_l_D_2.0_ampflank_0.425.png	 D	 l	 l	 n.a.	 4.650646e-01
7	 1	 92	 flanked	 rf	 4	 0.125000	 2.000000	 flanked_rf_freq_4_amplitude_0.125_rep_8_l_N_2.0_ampflank_0.425.png	 N	 l	 l	 n.a.	 6.546509e-01
7	 1	 93	 flanked	 rf	 4	 0.350000	 2.000000	 flanked_rf_freq_4_amplitude_0.35_rep_4_b_N_2.0_ampflank_0.425.png	 N	 b	 r	 n.a.	 5.330869e-01
7	 1	 94	 flanked	 rf	 4	 0.275000	 2.000000	 flanked_rf_freq_4_amplitude_0.275_rep_5_r_N_2.0_ampflank_0.425.png	 N	 r	 b	 n.a.	 6.016945e-01
7	 1	 95	 flanked	 rf	 4	 0.425000	 2.000000	 flanked_rf_freq_4_amplitude_0.425_rep_2_b_K_2.0_ampflank_0.425.png	 K	 b	 b	 n.a.	 5.720951e-01
7	 1	 96	 flanked	 rf	 4	 0.350000	 2.000000	 flanked_rf_freq_4_amplitude_0.35_rep_7_l_D_2.0_ampflank_0.425.png	 D	 l	 l	 n.a.	 4.431101e-01
7	 1	 97	 flanked	 rf	 4	 0.350000	 2.000000	 flanked_rf_freq_4_amplitude_0.35_rep_4_b_N_2.0_ampflank_0.425.png	 N	 b	 r	 n.a.	 4.207038e-01
7	 1	 98	 flanked	 rf	 4	 0.200000	 2.000000	 flanked_rf_freq_4_amplitude_0.2_rep_4_r_K_2.0_ampflank_0.425.png	 K	 r	 b	 n.a.	 3.694646e-01
7	 1	 99	 flanked	 rf	 4	 0.025000	 2.000000	 flanked_rf_freq_4_amplitude_0.025_rep_5_t_N_2.0_ampflank_0.425.png	 N	 t	 r	 n.a.	 5.166593e-01
7	 1	 100	 flanked	 rf	 4	 0.275000	 2.000000	 flanked_rf_freq_4_amplitude_0.275_rep_7_l_K_2.0_ampflank_0.425.png	 K	 l	 t	 n.a.	 4.561248e-01
7	 1	 101	 flanked	 rf	 4	 0.050000	 2.000000	 flanked_rf_freq_4_amplitude_0.05_rep_3_r_H_2.0_ampflank_0.425.png	 H	 r	 b	 n.a.	 6.709719e-01
7	 1	 102	 flanked	 rf	 4	 0.025000	 2.000000	 flanked_rf_freq_4_amplitude_0.025_rep_7_l_D_2.0_ampflank_0.425.png	 D	 l	 r	 n.a.	 4.243132e-01
7	 1	 103	 flanked	 rf	 4	 0.025000	 2.000000	 flanked_rf_freq_4_amplitude_0.025_rep_6_t_D_2.0_ampflank_0.425.png	 D	 t	 l	 n.a.	 7.262026e-01
7	 1	 104	 flanked	 rf	 4	 0.125000	 2.000000	 flanked_rf_freq_4_amplitude_0.125_rep_5_l_H_2.0_ampflank_0.425.png	 H	 l	 r	 n.a.	 6.629971e-01
7	 1	 105	 flanked	 rf	 4	 0.200000	 2.000000	 flanked_rf_freq_4_amplitude_0.2_rep_8_t_N_2.0_ampflank_0.425.png	 N	 t	 r	 n.a.	 4.484377e-01
7	 1	 106	 flanked	 rf	 4	 0.025000	 2.000000	 flanked_rf_freq_4_amplitude_0.025_rep_9_b_K_2.0_ampflank_0.425.png	 K	 b	 b	 n.a.	 3.499129e-01
7	 1	 107	 flanked	 rf	 4	 0.025000	 2.000000	 flanked_rf_freq_4_amplitude_0.025_rep_7_l_D_2.0_ampflank_0.425.png	 D	 l	 r	 n.a.	 4.856864e-01
7	 1	 108	 flanked	 rf	 4	 0.025000	 2.000000	 flanked_rf_freq_4_amplitude_0.025_rep_0_l_D_2.0_ampflank_0.425.png	 D	 l	 t	 n.a.	 4.763451e-01
7	 1	 109	 flanked	 rf	 4	 0.200000	 2.000000	 flanked_rf_freq_4_amplitude_0.2_rep_1_b_D_2.0_ampflank_0.425.png	 D	 b	 r	 n.a.	 4.512158e-01
7	 1	 110	 flanked	 rf	 4	 0.050000	 2.000000	 flanked_rf_freq_4_amplitude_0.05_rep_7_r_H_2.0_ampflank_0.425.png	 H	 r	 t	 n.a.	 5.068899e-01
7	 1	 111	 flanked	 rf	 4	 0.425000	 2.000000	 flanked_rf_freq_4_amplitude_0.425_rep_0_t_N_2.0_ampflank_0.425.png	 N	 t	 t	 n.a.	 3.665220e-01
7	 1	 112	 flanked	 rf	 4	 0.050000	 2.000000	 flanked_rf_freq_4_amplitude_0.05_rep_4_r_D_2.0_ampflank_0.425.png	 D	 r	 t	 n.a.	 4.370981e-01
7	 1	 113	 flanked	 rf	 4	 0.275000	 2.000000	 flanked_rf_freq_4_amplitude_0.275_rep_1_l_H_2.0_ampflank_0.425.png	 H	 l	 r	 n.a.	 3.884207e-01
7	 1	 114	 flanked	 rf	 4	 0.350000	 2.000000	 flanked_rf_freq_4_amplitude_0.35_rep_5_b_K_2.0_ampflank_0.425.png	 K	 b	 b	 n.a.	 4.166315e-01
7	 1	 115	 flanked	 rf	 4	 0.125000	 2.000000	 flanked_rf_freq_4_amplitude_0.125_rep_5_l_H_2.0_ampflank_0.425.png	 H	 l	 l	 n.a.	 4.631850e-01
7	 1	 116	 flanked	 rf	 4	 0.425000	 2.000000	 flanked_rf_freq_4_amplitude_0.425_rep_7_l_H_2.0_ampflank_0.425.png	 H	 l	 l	 n.a.	 4.356539e-01
7	 1	 117	 flanked	 rf	 4	 0.200000	 2.000000	 flanked_rf_freq_4_amplitude_0.2_rep_2_r_H_2.0_ampflank_0.425.png	 H	 r	 t	 n.a.	 3.686655e-01
7	 1	 118	 flanked	 rf	 4	 0.125000	 2.000000	 flanked_rf_freq_4_amplitude_0.125_rep_0_b_N_2.0_ampflank_0.425.png	 N	 b	 t	 n.a.	 4.240513e-01
7	 1	 119	 flanked	 rf	 4	 0.125000	 2.000000	 flanked_rf_freq_4_amplitude_0.125_rep_9_l_D_2.0_ampflank_0.425.png	 D	 l	 b	 n.a.	 4.701445e-01
7	 1	 120	 flanked	 rf	 4	 0.200000	 2.000000	 flanked_rf_freq_4_amplitude_0.2_rep_7_r_D_2.0_ampflank_0.425.png	 D	 r	 r	 n.a.	 3.622670e-01
7	 1	 121	 flanked	 rf	 4	 0.425000	 2.000000	 flanked_rf_freq_4_amplitude_0.425_rep_3_r_K_2.0_ampflank_0.425.png	 K	 r	 r	 n.a.	 3.654090e-01
7	 1	 122	 flanked	 rf	 4	 0.025000	 2.000000	 flanked_rf_freq_4_amplitude_0.025_rep_6_t_D_2.0_ampflank_0.425.png	 D	 t	 t	 n.a.	 3.906167e-01
7	 1	 123	 flanked	 rf	 4	 0.025000	 2.000000	 flanked_rf_freq_4_amplitude_0.025_rep_8_t_K_2.0_ampflank_0.425.png	 K	 t	 t	 n.a.	 4.065258e-01
7	 1	 124	 flanked	 rf	 4	 0.200000	 2.000000	 flanked_rf_freq_4_amplitude_0.2_rep_0_r_H_2.0_ampflank_0.425.png	 H	 r	 t	 n.a.	 3.588861e-01
7	 1	 125	 flanked	 rf	 4	 0.125000	 2.000000	 flanked_rf_freq_4_amplitude_0.125_rep_1_l_H_2.0_ampflank_0.425.png	 H	 l	 r	 n.a.	 3.853688e-01
7	 1	 126	 flanked	 rf	 4	 0.125000	 2.000000	 flanked_rf_freq_4_amplitude_0.125_rep_2_l_N_2.0_ampflank_0.425.png	 N	 l	 b	 n.a.	 4.199734e-01
7	 1	 127	 flanked	 rf	 4	 0.275000	 2.000000	 flanked_rf_freq_4_amplitude_0.275_rep_3_l_H_2.0_ampflank_0.425.png	 H	 l	 t	 n.a.	 3.501853e-01
7	 1	 128	 flanked	 rf	 4	 0.050000	 2.000000	 flanked_rf_freq_4_amplitude_0.05_rep_2_r_D_2.0_ampflank_0.425.png	 D	 r	 r	 n.a.	 3.631046e-01
7	 1	 129	 flanked	 rf	 4	 0.200000	 2.000000	 flanked_rf_freq_4_amplitude_0.2_rep_9_t_H_2.0_ampflank_0.425.png	 H	 t	 t	 n.a.	 3.273808e-01
7	 1	 130	 flanked	 rf	 4	 0.275000	 2.000000	 flanked_rf_freq_4_amplitude_0.275_rep_9_b_N_2.0_ampflank_0.425.png	 N	 b	 b	 n.a.	 4.307170e-01
7	 1	 131	 flanked	 rf	 4	 0.350000	 2.000000	 flanked_rf_freq_4_amplitude_0.35_rep_3_t_H_2.0_ampflank_0.425.png	 H	 t	 t	 n.a.	 4.126720e-01
7	 1	 132	 flanked	 rf	 4	 0.350000	 2.000000	 flanked_rf_freq_4_amplitude_0.35_rep_4_b_N_2.0_ampflank_0.425.png	 N	 b	 t	 n.a.	 3.734203e-01
7	 1	 133	 flanked	 rf	 4	 0.050000	 2.000000	 flanked_rf_freq_4_amplitude_0.05_rep_2_r_D_2.0_ampflank_0.425.png	 D	 r	 b	 n.a.	 4.084431e-01
7	 1	 134	 flanked	 rf	 4	 0.125000	 2.000000	 flanked_rf_freq_4_amplitude_0.125_rep_3_t_D_2.0_ampflank_0.425.png	 D	 t	 r	 n.a.	 3.451695e-01
7	 1	 135	 flanked	 rf	 4	 0.425000	 2.000000	 flanked_rf_freq_4_amplitude_0.425_rep_4_b_D_2.0_ampflank_0.425.png	 D	 b	 t	 n.a.	 6.261754e-01
7	 1	 136	 flanked	 rf	 4	 0.050000	 2.000000	 flanked_rf_freq_4_amplitude_0.05_rep_7_r_H_2.0_ampflank_0.425.png	 H	 r	 b	 n.a.	 4.219538e-01
7	 1	 137	 flanked	 rf	 4	 0.125000	 2.000000	 flanked_rf_freq_4_amplitude_0.125_rep_0_b_N_2.0_ampflank_0.425.png	 N	 b	 t	 n.a.	 4.194981e-01
7	 1	 138	 flanked	 rf	 4	 0.350000	 2.000000	 flanked_rf_freq_4_amplitude_0.35_rep_5_b_K_2.0_ampflank_0.425.png	 K	 b	 l	 n.a.	 3.568543e-01
7	 1	 139	 flanked	 rf	 4	 0.050000	 2.000000	 flanked_rf_freq_4_amplitude_0.05_rep_7_r_H_2.0_ampflank_0.425.png	 H	 r	 b	 n.a.	 4.176471e-01
7	 1	 140	 flanked	 rf	 4	 0.350000	 2.000000	 flanked_rf_freq_4_amplitude_0.35_rep_8_l_D_2.0_ampflank_0.425.png	 D	 l	 l	 n.a.	 3.343401e-01
7	 1	 141	 flanked	 rf	 4	 0.050000	 2.000000	 flanked_rf_freq_4_amplitude_0.05_rep_5_l_H_2.0_ampflank_0.425.png	 H	 l	 l	 n.a.	 4.470837e-01
7	 1	 142	 flanked	 rf	 4	 0.200000	 2.000000	 flanked_rf_freq_4_amplitude_0.2_rep_5_l_K_2.0_ampflank_0.425.png	 K	 l	 t	 n.a.	 8.453089e-01
7	 1	 143	 flanked	 rf	 4	 0.200000	 2.000000	 flanked_rf_freq_4_amplitude_0.2_rep_1_b_D_2.0_ampflank_0.425.png	 D	 b	 l	 n.a.	 5.441427e-01
7	 1	 144	 flanked	 rf	 4	 0.350000	 2.000000	 flanked_rf_freq_4_amplitude_0.35_rep_7_l_D_2.0_ampflank_0.425.png	 D	 l	 t	 n.a.	 5.511017e-01
7	 1	 145	 flanked	 rf	 4	 0.425000	 2.000000	 flanked_rf_freq_4_amplitude_0.425_rep_3_r_K_2.0_ampflank_0.425.png	 K	 r	 r	 n.a.	 3.745352e-01
7	 1	 146	 flanked	 rf	 4	 0.025000	 2.000000	 flanked_rf_freq_4_amplitude_0.025_rep_1_l_D_2.0_ampflank_0.425.png	 D	 l	 l	 n.a.	 4.148989e-01
7	 1	 147	 flanked	 rf	 4	 0.275000	 2.000000	 flanked_rf_freq_4_amplitude_0.275_rep_9_b_N_2.0_ampflank_0.425.png	 N	 b	 b	 n.a.	 4.443140e-01
7	 1	 148	 flanked	 rf	 4	 0.200000	 2.000000	 flanked_rf_freq_4_amplitude_0.2_rep_4_r_K_2.0_ampflank_0.425.png	 K	 r	 t	 n.a.	 4.518179e-01
7	 1	 149	 flanked	 rf	 4	 0.200000	 2.000000	 flanked_rf_freq_4_amplitude_0.2_rep_9_t_H_2.0_ampflank_0.425.png	 H	 t	 t	 n.a.	 5.900754e-01
7	 1	 150	 flanked	 rf	 4	 0.350000	 2.000000	 flanked_rf_freq_4_amplitude_0.35_rep_1_b_D_2.0_ampflank_0.425.png	 D	 b	 b	 n.a.	 3.658266e-01
7	 1	 151	 flanked	 rf	 4	 0.350000	 2.000000	 flanked_rf_freq_4_amplitude_0.35_rep_8_l_D_2.0_ampflank_0.425.png	 D	 l	 r	 n.a.	 4.648025e-01
7	 1	 152	 flanked	 rf	 4	 0.200000	 2.000000	 flanked_rf_freq_4_amplitude_0.2_rep_6_b_K_2.0_ampflank_0.425.png	 K	 b	 b	 n.a.	 4.034594e-01
7	 1	 153	 flanked	 rf	 4	 0.425000	 2.000000	 flanked_rf_freq_4_amplitude_0.425_rep_5_r_D_2.0_ampflank_0.425.png	 D	 r	 r	 n.a.	 3.741455e-01
7	 1	 154	 flanked	 rf	 4	 0.350000	 2.000000	 flanked_rf_freq_4_amplitude_0.35_rep_7_l_D_2.0_ampflank_0.425.png	 D	 l	 l	 n.a.	 3.541734e-01
7	 1	 155	 flanked	 rf	 4	 0.200000	 2.000000	 flanked_rf_freq_4_amplitude_0.2_rep_9_t_H_2.0_ampflank_0.425.png	 H	 t	 t	 n.a.	 4.561220e-01
7	 1	 156	 flanked	 rf	 4	 0.050000	 2.000000	 flanked_rf_freq_4_amplitude_0.05_rep_6_t_K_2.0_ampflank_0.425.png	 K	 t	 b	 n.a.	 5.036063e-01
7	 1	 157	 flanked	 rf	 4	 0.125000	 2.000000	 flanked_rf_freq_4_amplitude_0.125_rep_2_l_N_2.0_ampflank_0.425.png	 N	 l	 r	 n.a.	 4.730133e-01
7	 1	 158	 flanked	 rf	 4	 0.275000	 2.000000	 flanked_rf_freq_4_amplitude_0.275_rep_7_l_K_2.0_ampflank_0.425.png	 K	 l	 l	 n.a.	 4.087350e-01
7	 1	 159	 flanked	 rf	 4	 0.125000	 2.000000	 flanked_rf_freq_4_amplitude_0.125_rep_9_l_D_2.0_ampflank_0.425.png	 D	 l	 b	 n.a.	 4.768533e-01
7	 1	 160	 flanked	 rf	 4	 0.275000	 2.000000	 flanked_rf_freq_4_amplitude_0.275_rep_4_l_H_2.0_ampflank_0.425.png	 H	 l	 l	 n.a.	 4.761485e-01
7	 1	 161	 flanked	 rf	 4	 0.425000	 2.000000	 flanked_rf_freq_4_amplitude_0.425_rep_5_r_D_2.0_ampflank_0.425.png	 D	 r	 r	 n.a.	 4.072173e-01
7	 1	 162	 flanked	 rf	 4	 0.050000	 2.000000	 flanked_rf_freq_4_amplitude_0.05_rep_3_r_H_2.0_ampflank_0.425.png	 H	 r	 r	 n.a.	 4.828336e-01
7	 1	 163	 flanked	 rf	 4	 0.425000	 2.000000	 flanked_rf_freq_4_amplitude_0.425_rep_8_b_D_2.0_ampflank_0.425.png	 D	 b	 l	 n.a.	 5.494191e-01
7	 1	 164	 flanked	 rf	 4	 0.425000	 2.000000	 flanked_rf_freq_4_amplitude_0.425_rep_1_b_D_2.0_ampflank_0.425.png	 D	 b	 b	 n.a.	 3.466620e-01
7	 1	 165	 flanked	 rf	 4	 0.425000	 2.000000	 flanked_rf_freq_4_amplitude_0.425_rep_7_l_H_2.0_ampflank_0.425.png	 H	 l	 l	 n.a.	 5.944151e-01
7	 1	 166	 flanked	 rf	 4	 0.425000	 2.000000	 flanked_rf_freq_4_amplitude_0.425_rep_6_t_N_2.0_ampflank_0.425.png	 N	 t	 t	 n.a.	 3.872111e-01
7	 1	 167	 flanked	 rf	 4	 0.200000	 2.000000	 flanked_rf_freq_4_amplitude_0.2_rep_0_r_H_2.0_ampflank_0.425.png	 H	 r	 t	 n.a.	 3.931256e-01
7	 1	 168	 flanked	 rf	 4	 0.275000	 2.000000	 flanked_rf_freq_4_amplitude_0.275_rep_0_t_K_2.0_ampflank_0.425.png	 K	 t	 t	 n.a.	 4.108246e-01
7	 1	 169	 flanked	 rf	 4	 0.025000	 2.000000	 flanked_rf_freq_4_amplitude_0.025_rep_8_t_K_2.0_ampflank_0.425.png	 K	 t	 l	 n.a.	 4.013654e-01
7	 1	 170	 flanked	 rf	 4	 0.350000	 2.000000	 flanked_rf_freq_4_amplitude_0.35_rep_3_t_H_2.0_ampflank_0.425.png	 H	 t	 t	 n.a.	 4.040159e-01
7	 1	 171	 flanked	 rf	 4	 0.350000	 2.000000	 flanked_rf_freq_4_amplitude_0.35_rep_9_r_N_2.0_ampflank_0.425.png	 N	 r	 r	 n.a.	 4.096197e-01
7	 1	 172	 flanked	 rf	 4	 0.350000	 2.000000	 flanked_rf_freq_4_amplitude_0.35_rep_2_l_D_2.0_ampflank_0.425.png	 D	 l	 t	 n.a.	 5.768373e-01
7	 1	 173	 flanked	 rf	 4	 0.200000	 2.000000	 flanked_rf_freq_4_amplitude_0.2_rep_5_l_K_2.0_ampflank_0.425.png	 K	 l	 b	 n.a.	 4.031143e-01
7	 1	 174	 flanked	 rf	 4	 0.425000	 2.000000	 flanked_rf_freq_4_amplitude_0.425_rep_3_r_K_2.0_ampflank_0.425.png	 K	 r	 r	 n.a.	 3.213745e-01
7	 1	 175	 flanked	 rf	 4	 0.125000	 2.000000	 flanked_rf_freq_4_amplitude_0.125_rep_6_l_D_2.0_ampflank_0.425.png	 D	 l	 l	 n.a.	 5.829370e-01
7	 1	 176	 flanked	 rf	 4	 0.025000	 2.000000	 flanked_rf_freq_4_amplitude_0.025_rep_7_l_D_2.0_ampflank_0.425.png	 D	 l	 r	 n.a.	 3.634362e-01
7	 1	 177	 flanked	 rf	 4	 0.025000	 2.000000	 flanked_rf_freq_4_amplitude_0.025_rep_5_t_N_2.0_ampflank_0.425.png	 N	 t	 t	 n.a.	 3.896047e-01
7	 1	 178	 flanked	 rf	 4	 0.050000	 2.000000	 flanked_rf_freq_4_amplitude_0.05_rep_3_r_H_2.0_ampflank_0.425.png	 H	 r	 t	 n.a.	 7.020346e-01
7	 1	 179	 flanked	 rf	 4	 0.125000	 2.000000	 flanked_rf_freq_4_amplitude_0.125_rep_7_r_H_2.0_ampflank_0.425.png	 H	 r	 l	 n.a.	 4.278791e-01
7	 1	 180	 flanked	 rf	 4	 0.350000	 2.000000	 flanked_rf_freq_4_amplitude_0.35_rep_0_t_K_2.0_ampflank_0.425.png	 K	 t	 t	 n.a.	 4.359612e-01
7	 1	 181	 flanked	 rf	 4	 0.200000	 2.000000	 flanked_rf_freq_4_amplitude_0.2_rep_3_t_H_2.0_ampflank_0.425.png	 H	 t	 r	 n.a.	 4.928038e-01
7	 1	 182	 flanked	 rf	 4	 0.350000	 2.000000	 flanked_rf_freq_4_amplitude_0.35_rep_9_r_N_2.0_ampflank_0.425.png	 N	 r	 r	 n.a.	 3.781806e-01
7	 1	 183	 flanked	 rf	 4	 0.125000	 2.000000	 flanked_rf_freq_4_amplitude_0.125_rep_2_l_N_2.0_ampflank_0.425.png	 N	 l	 t	 n.a.	 6.489545e-01
7	 1	 184	 flanked	 rf	 4	 0.425000	 2.000000	 flanked_rf_freq_4_amplitude_0.425_rep_2_b_K_2.0_ampflank_0.425.png	 K	 b	 b	 n.a.	 5.030654e-01
7	 1	 185	 flanked	 rf	 4	 0.200000	 2.000000	 flanked_rf_freq_4_amplitude_0.2_rep_3_t_H_2.0_ampflank_0.425.png	 H	 t	 t	 n.a.	 4.682068e-01
7	 1	 186	 flanked	 rf	 4	 0.275000	 2.000000	 flanked_rf_freq_4_amplitude_0.275_rep_2_t_H_2.0_ampflank_0.425.png	 H	 t	 l	 n.a.	 3.865153e-01
7	 1	 187	 flanked	 rf	 4	 0.025000	 2.000000	 flanked_rf_freq_4_amplitude_0.025_rep_4_l_K_2.0_ampflank_0.425.png	 K	 l	 r	 n.a.	 3.875587e-01
7	 1	 188	 flanked	 rf	 4	 0.125000	 2.000000	 flanked_rf_freq_4_amplitude_0.125_rep_4_b_N_2.0_ampflank_0.425.png	 N	 b	 t	 n.a.	 5.283561e-01
7	 1	 189	 flanked	 rf	 4	 0.275000	 2.000000	 flanked_rf_freq_4_amplitude_0.275_rep_6_b_N_2.0_ampflank_0.425.png	 N	 b	 b	 n.a.	 3.552735e-01
7	 1	 190	 flanked	 rf	 4	 0.025000	 2.000000	 flanked_rf_freq_4_amplitude_0.025_rep_9_b_K_2.0_ampflank_0.425.png	 K	 b	 b	 n.a.	 3.941064e-01
7	 1	 191	 flanked	 rf	 4	 0.025000	 2.000000	 flanked_rf_freq_4_amplitude_0.025_rep_5_t_N_2.0_ampflank_0.425.png	 N	 t	 r	 n.a.	 3.756290e-01
7	 1	 192	 flanked	 rf	 4	 0.125000	 2.000000	 flanked_rf_freq_4_amplitude_0.125_rep_3_t_D_2.0_ampflank_0.425.png	 D	 t	 t	 n.a.	 3.344345e-01
7	 1	 193	 flanked	 rf	 4	 0.350000	 2.000000	 flanked_rf_freq_4_amplitude_0.35_rep_6_b_D_2.0_ampflank_0.425.png	 D	 b	 l	 n.a.	 4.097555e-01
7	 1	 194	 flanked	 rf	 4	 0.025000	 2.000000	 flanked_rf_freq_4_amplitude_0.025_rep_4_l_K_2.0_ampflank_0.425.png	 K	 l	 b	 n.a.	 4.774709e-01
7	 1	 195	 flanked	 rf	 4	 0.275000	 2.000000	 flanked_rf_freq_4_amplitude_0.275_rep_0_t_K_2.0_ampflank_0.425.png	 K	 t	 t	 n.a.	 3.856095e-01
7	 1	 196	 flanked	 rf	 4	 0.050000	 2.000000	 flanked_rf_freq_4_amplitude_0.05_rep_6_t_K_2.0_ampflank_0.425.png	 K	 t	 t	 n.a.	 3.411922e-01
7	 1	 197	 flanked	 rf	 4	 0.350000	 2.000000	 flanked_rf_freq_4_amplitude_0.35_rep_8_l_D_2.0_ampflank_0.425.png	 D	 l	 l	 n.a.	 3.827196e-01
7	 1	 198	 flanked	 rf	 4	 0.350000	 2.000000	 flanked_rf_freq_4_amplitude_0.35_rep_9_r_N_2.0_ampflank_0.425.png	 N	 r	 r	 n.a.	 3.288185e-01
7	 1	 199	 flanked	 rf	 4	 0.275000	 2.000000	 flanked_rf_freq_4_amplitude_0.275_rep_8_l_D_2.0_ampflank_0.425.png	 D	 l	 t	 n.a.	 4.206199e-01
7	 1	 200	 flanked	 rf	 4	 0.050000	 2.000000	 flanked_rf_freq_4_amplitude_0.05_rep_9_b_K_2.0_ampflank_0.425.png	 K	 b	 b	 n.a.	 4.153400e-01
7	 1	 201	 flanked	 rf	 4	 0.200000	 2.000000	 flanked_rf_freq_4_amplitude_0.2_rep_8_t_N_2.0_ampflank_0.425.png	 N	 t	 r	 n.a.	 3.288448e-01
7	 1	 202	 flanked	 rf	 4	 0.200000	 2.000000	 flanked_rf_freq_4_amplitude_0.2_rep_8_t_N_2.0_ampflank_0.425.png	 N	 t	 r	 n.a.	 3.828464e-01
7	 1	 203	 flanked	 rf	 4	 0.275000	 2.000000	 flanked_rf_freq_4_amplitude_0.275_rep_5_r_N_2.0_ampflank_0.425.png	 N	 r	 r	 n.a.	 5.455428e-01
7	 1	 204	 flanked	 rf	 4	 0.275000	 2.000000	 flanked_rf_freq_4_amplitude_0.275_rep_2_t_H_2.0_ampflank_0.425.png	 H	 t	 l	 n.a.	 3.359348e-01
7	 1	 205	 flanked	 rf	 4	 0.425000	 2.000000	 flanked_rf_freq_4_amplitude_0.425_rep_6_t_N_2.0_ampflank_0.425.png	 N	 t	 t	 n.a.	 3.498835e-01
7	 1	 206	 flanked	 rf	 4	 0.275000	 2.000000	 flanked_rf_freq_4_amplitude_0.275_rep_1_l_H_2.0_ampflank_0.425.png	 H	 l	 r	 n.a.	 8.413032e-01
7	 1	 207	 flanked	 rf	 4	 0.050000	 2.000000	 flanked_rf_freq_4_amplitude_0.05_rep_1_t_N_2.0_ampflank_0.425.png	 N	 t	 t	 n.a.	 5.335519e-01
7	 1	 208	 flanked	 rf	 4	 0.050000	 2.000000	 flanked_rf_freq_4_amplitude_0.05_rep_6_t_K_2.0_ampflank_0.425.png	 K	 t	 l	 n.a.	 5.377243e-01
7	 1	 209	 flanked	 rf	 4	 0.025000	 2.000000	 flanked_rf_freq_4_amplitude_0.025_rep_2_b_K_2.0_ampflank_0.425.png	 K	 b	 b	 n.a.	 6.132766e-01
7	 1	 210	 flanked	 rf	 4	 0.275000	 2.000000	 flanked_rf_freq_4_amplitude_0.275_rep_5_r_N_2.0_ampflank_0.425.png	 N	 r	 t	 n.a.	 4.925044e-01
