subject	 session	 trial	 flanked	 distortion	 freq	 amplitude	 spacing	 im_name	 targ_letter	 targ_pos	 response	 eyemovement	 RT
7	 1	 1	 flanked	 bex	 4	 5.000000	 2.000000	 flanked_bex_freq_4_amplitude_5_rep_8_r_D_2.0_ampflank_6.png	 D	 r	 r	 n.a.	 4.852674e-01
7	 1	 2	 flanked	 bex	 4	 6.000000	 2.000000	 flanked_bex_freq_4_amplitude_6_rep_3_r_K_2.0_ampflank_6.png	 K	 r	 r	 n.a.	 7.320451e-01
7	 1	 3	 flanked	 bex	 4	 6.000000	 2.000000	 flanked_bex_freq_4_amplitude_6_rep_1_l_K_2.0_ampflank_6.png	 K	 l	 b	 n.a.	 1.028917e+00
7	 1	 4	 flanked	 bex	 4	 0.500000	 2.000000	 flanked_bex_freq_4_amplitude_0.5_rep_9_r_H_2.0_ampflank_6.png	 H	 r	 t	 n.a.	 8.486651e-01
7	 1	 5	 flanked	 bex	 4	 1.000000	 2.000000	 flanked_bex_freq_4_amplitude_1_rep_5_r_H_2.0_ampflank_6.png	 H	 r	 l	 n.a.	 5.346127e-01
7	 1	 6	 flanked	 bex	 4	 1.000000	 2.000000	 flanked_bex_freq_4_amplitude_1_rep_1_r_N_2.0_ampflank_6.png	 N	 r	 b	 n.a.	 1.001953e+00
7	 1	 7	 flanked	 bex	 4	 4.000000	 2.000000	 flanked_bex_freq_4_amplitude_4_rep_9_b_D_2.0_ampflank_6.png	 D	 b	 r	 n.a.	 7.842742e-01
7	 1	 8	 flanked	 bex	 4	 1.000000	 2.000000	 flanked_bex_freq_4_amplitude_1_rep_7_b_D_2.0_ampflank_6.png	 D	 b	 b	 n.a.	 5.063782e-01
7	 1	 9	 flanked	 bex	 4	 1.000000	 2.000000	 flanked_bex_freq_4_amplitude_1_rep_0_t_K_2.0_ampflank_6.png	 K	 t	 t	 n.a.	 7.275483e-01
7	 1	 10	 flanked	 bex	 4	 3.000000	 2.000000	 flanked_bex_freq_4_amplitude_3_rep_6_l_H_2.0_ampflank_6.png	 H	 l	 l	 n.a.	 7.198330e-01
7	 1	 11	 flanked	 bex	 4	 4.000000	 2.000000	 flanked_bex_freq_4_amplitude_4_rep_5_b_H_2.0_ampflank_6.png	 H	 b	 r	 n.a.	 6.831210e-01
7	 1	 12	 flanked	 bex	 4	 2.000000	 2.000000	 flanked_bex_freq_4_amplitude_2_rep_1_b_D_2.0_ampflank_6.png	 D	 b	 b	 n.a.	 8.156338e-01
7	 1	 13	 flanked	 bex	 4	 3.000000	 2.000000	 flanked_bex_freq_4_amplitude_3_rep_1_b_D_2.0_ampflank_6.png	 D	 b	 t	 n.a.	 7.471892e-01
7	 1	 14	 flanked	 bex	 4	 5.000000	 2.000000	 flanked_bex_freq_4_amplitude_5_rep_5_l_K_2.0_ampflank_6.png	 K	 l	 l	 n.a.	 4.721623e-01
7	 1	 15	 flanked	 bex	 4	 0.500000	 2.000000	 flanked_bex_freq_4_amplitude_0.5_rep_7_b_N_2.0_ampflank_6.png	 N	 b	 l	 n.a.	 1.136368e+00
7	 1	 16	 flanked	 bex	 4	 5.000000	 2.000000	 flanked_bex_freq_4_amplitude_5_rep_9_l_K_2.0_ampflank_6.png	 K	 l	 l	 n.a.	 5.140543e-01
7	 1	 17	 flanked	 bex	 4	 2.000000	 2.000000	 flanked_bex_freq_4_amplitude_2_rep_0_r_D_2.0_ampflank_6.png	 D	 r	 t	 n.a.	 6.348816e-01
7	 1	 18	 flanked	 bex	 4	 4.000000	 2.000000	 flanked_bex_freq_4_amplitude_4_rep_9_b_D_2.0_ampflank_6.png	 D	 b	 b	 n.a.	 5.819685e-01
7	 1	 19	 flanked	 bex	 4	 4.000000	 2.000000	 flanked_bex_freq_4_amplitude_4_rep_7_l_K_2.0_ampflank_6.png	 K	 l	 l	 n.a.	 5.393535e-01
7	 1	 20	 flanked	 bex	 4	 0.500000	 2.000000	 flanked_bex_freq_4_amplitude_0.5_rep_4_l_N_2.0_ampflank_6.png	 N	 l	 r	 n.a.	 5.764989e-01
7	 1	 21	 flanked	 bex	 4	 0.500000	 2.000000	 flanked_bex_freq_4_amplitude_0.5_rep_3_b_K_2.0_ampflank_6.png	 K	 b	 t	 n.a.	 5.156662e-01
7	 1	 22	 flanked	 bex	 4	 1.000000	 2.000000	 flanked_bex_freq_4_amplitude_1_rep_6_r_N_2.0_ampflank_6.png	 N	 r	 l	 n.a.	 4.630861e-01
7	 1	 23	 flanked	 bex	 4	 0.500000	 2.000000	 flanked_bex_freq_4_amplitude_0.5_rep_5_r_D_2.0_ampflank_6.png	 D	 r	 r	 n.a.	 6.192092e-01
7	 1	 24	 flanked	 bex	 4	 3.000000	 2.000000	 flanked_bex_freq_4_amplitude_3_rep_9_t_D_2.0_ampflank_6.png	 D	 t	 t	 n.a.	 9.946410e-01
7	 1	 25	 flanked	 bex	 4	 3.000000	 2.000000	 flanked_bex_freq_4_amplitude_3_rep_0_b_H_2.0_ampflank_6.png	 H	 b	 r	 n.a.	 6.756101e-01
7	 1	 26	 flanked	 bex	 4	 5.000000	 2.000000	 flanked_bex_freq_4_amplitude_5_rep_4_r_H_2.0_ampflank_6.png	 H	 r	 r	 n.a.	 5.345238e-01
7	 1	 27	 flanked	 bex	 4	 0.500000	 2.000000	 flanked_bex_freq_4_amplitude_0.5_rep_1_b_K_2.0_ampflank_6.png	 K	 b	 b	 n.a.	 6.305213e-01
7	 1	 28	 flanked	 bex	 4	 4.000000	 2.000000	 flanked_bex_freq_4_amplitude_4_rep_5_b_H_2.0_ampflank_6.png	 H	 b	 l	 n.a.	 8.320761e-01
7	 1	 29	 flanked	 bex	 4	 6.000000	 2.000000	 flanked_bex_freq_4_amplitude_6_rep_8_r_D_2.0_ampflank_6.png	 D	 r	 r	 n.a.	 4.185744e-01
7	 1	 30	 flanked	 bex	 4	 4.000000	 2.000000	 flanked_bex_freq_4_amplitude_4_rep_7_l_K_2.0_ampflank_6.png	 K	 l	 l	 n.a.	 5.632131e-01
7	 1	 31	 flanked	 bex	 4	 6.000000	 2.000000	 flanked_bex_freq_4_amplitude_6_rep_5_b_D_2.0_ampflank_6.png	 D	 b	 t	 n.a.	 5.104735e-01
7	 1	 32	 flanked	 bex	 4	 0.500000	 2.000000	 flanked_bex_freq_4_amplitude_0.5_rep_7_b_N_2.0_ampflank_6.png	 N	 b	 r	 n.a.	 5.715826e-01
7	 1	 33	 flanked	 bex	 4	 0.500000	 2.000000	 flanked_bex_freq_4_amplitude_0.5_rep_5_r_D_2.0_ampflank_6.png	 D	 r	 t	 n.a.	 5.901212e-01
7	 1	 34	 flanked	 bex	 4	 4.000000	 2.000000	 flanked_bex_freq_4_amplitude_4_rep_2_l_K_2.0_ampflank_6.png	 K	 l	 r	 n.a.	 6.105870e-01
7	 1	 35	 flanked	 bex	 4	 5.000000	 2.000000	 flanked_bex_freq_4_amplitude_5_rep_0_r_K_2.0_ampflank_6.png	 K	 r	 b	 n.a.	 6.272645e-01
7	 1	 36	 flanked	 bex	 4	 2.000000	 2.000000	 flanked_bex_freq_4_amplitude_2_rep_3_r_D_2.0_ampflank_6.png	 D	 r	 r	 n.a.	 6.970447e-01
7	 1	 37	 flanked	 bex	 4	 6.000000	 2.000000	 flanked_bex_freq_4_amplitude_6_rep_9_t_K_2.0_ampflank_6.png	 K	 t	 t	 n.a.	 5.254523e-01
7	 1	 38	 flanked	 bex	 4	 0.500000	 2.000000	 flanked_bex_freq_4_amplitude_0.5_rep_9_r_H_2.0_ampflank_6.png	 H	 r	 r	 n.a.	 5.559553e-01
7	 1	 39	 flanked	 bex	 4	 6.000000	 2.000000	 flanked_bex_freq_4_amplitude_6_rep_7_l_D_2.0_ampflank_6.png	 D	 l	 l	 n.a.	 4.207616e-01
7	 1	 40	 flanked	 bex	 4	 5.000000	 2.000000	 flanked_bex_freq_4_amplitude_5_rep_5_l_K_2.0_ampflank_6.png	 K	 l	 l	 n.a.	 7.340600e-01
7	 1	 41	 flanked	 bex	 4	 3.000000	 2.000000	 flanked_bex_freq_4_amplitude_3_rep_9_t_D_2.0_ampflank_6.png	 D	 t	 l	 n.a.	 6.342777e-01
7	 1	 42	 flanked	 bex	 4	 3.000000	 2.000000	 flanked_bex_freq_4_amplitude_3_rep_6_l_H_2.0_ampflank_6.png	 H	 l	 l	 n.a.	 4.813733e-01
7	 1	 43	 flanked	 bex	 4	 4.000000	 2.000000	 flanked_bex_freq_4_amplitude_4_rep_1_l_N_2.0_ampflank_6.png	 N	 l	 l	 n.a.	 5.222288e-01
7	 1	 44	 flanked	 bex	 4	 5.000000	 2.000000	 flanked_bex_freq_4_amplitude_5_rep_7_l_H_2.0_ampflank_6.png	 H	 l	 l	 n.a.	 6.766432e-01
7	 1	 45	 flanked	 bex	 4	 6.000000	 2.000000	 flanked_bex_freq_4_amplitude_6_rep_4_t_N_2.0_ampflank_6.png	 N	 t	 t	 n.a.	 7.580282e-01
7	 1	 46	 flanked	 bex	 4	 3.000000	 2.000000	 flanked_bex_freq_4_amplitude_3_rep_7_r_H_2.0_ampflank_6.png	 H	 r	 r	 n.a.	 9.267659e-01
7	 1	 47	 flanked	 bex	 4	 0.500000	 2.000000	 flanked_bex_freq_4_amplitude_0.5_rep_6_l_H_2.0_ampflank_6.png	 H	 l	 t	 n.a.	 8.253336e-01
7	 1	 48	 flanked	 bex	 4	 2.000000	 2.000000	 flanked_bex_freq_4_amplitude_2_rep_0_r_D_2.0_ampflank_6.png	 D	 r	 l	 n.a.	 6.166942e-01
7	 1	 49	 flanked	 bex	 4	 6.000000	 2.000000	 flanked_bex_freq_4_amplitude_6_rep_2_t_D_2.0_ampflank_6.png	 D	 t	 t	 n.a.	 5.378661e-01
7	 1	 50	 flanked	 bex	 4	 0.500000	 2.000000	 flanked_bex_freq_4_amplitude_0.5_rep_2_b_N_2.0_ampflank_6.png	 N	 b	 r	 n.a.	 8.651273e-01
7	 1	 51	 flanked	 bex	 4	 5.000000	 2.000000	 flanked_bex_freq_4_amplitude_5_rep_8_r_D_2.0_ampflank_6.png	 D	 r	 r	 n.a.	 5.067911e-01
7	 1	 52	 flanked	 bex	 4	 2.000000	 2.000000	 flanked_bex_freq_4_amplitude_2_rep_2_r_N_2.0_ampflank_6.png	 N	 r	 r	 n.a.	 6.276875e-01
7	 1	 53	 flanked	 bex	 4	 5.000000	 2.000000	 flanked_bex_freq_4_amplitude_5_rep_2_b_H_2.0_ampflank_6.png	 H	 b	 b	 n.a.	 5.985318e-01
7	 1	 54	 flanked	 bex	 4	 6.000000	 2.000000	 flanked_bex_freq_4_amplitude_6_rep_5_b_D_2.0_ampflank_6.png	 D	 b	 t	 n.a.	 5.766153e-01
7	 1	 55	 flanked	 bex	 4	 3.000000	 2.000000	 flanked_bex_freq_4_amplitude_3_rep_5_t_H_2.0_ampflank_6.png	 H	 t	 l	 n.a.	 5.564219e-01
7	 1	 56	 flanked	 bex	 4	 4.000000	 2.000000	 flanked_bex_freq_4_amplitude_4_rep_8_b_D_2.0_ampflank_6.png	 D	 b	 b	 n.a.	 5.389261e-01
7	 1	 57	 flanked	 bex	 4	 4.000000	 2.000000	 flanked_bex_freq_4_amplitude_4_rep_9_b_D_2.0_ampflank_6.png	 D	 b	 r	 n.a.	 7.079654e-01
7	 1	 58	 flanked	 bex	 4	 5.000000	 2.000000	 flanked_bex_freq_4_amplitude_5_rep_7_l_H_2.0_ampflank_6.png	 H	 l	 l	 n.a.	 6.163486e-01
7	 1	 59	 flanked	 bex	 4	 1.000000	 2.000000	 flanked_bex_freq_4_amplitude_1_rep_0_t_K_2.0_ampflank_6.png	 K	 t	 t	 n.a.	 5.614695e-01
7	 1	 60	 flanked	 bex	 4	 5.000000	 2.000000	 flanked_bex_freq_4_amplitude_5_rep_1_t_D_2.0_ampflank_6.png	 D	 t	 b	 n.a.	 5.885438e-01
7	 1	 61	 flanked	 bex	 4	 4.000000	 2.000000	 flanked_bex_freq_4_amplitude_4_rep_8_b_D_2.0_ampflank_6.png	 D	 b	 r	 n.a.	 5.207504e-01
7	 1	 62	 flanked	 bex	 4	 0.500000	 2.000000	 flanked_bex_freq_4_amplitude_0.5_rep_6_l_H_2.0_ampflank_6.png	 H	 l	 l	 n.a.	 5.675465e-01
7	 1	 63	 flanked	 bex	 4	 6.000000	 2.000000	 flanked_bex_freq_4_amplitude_6_rep_6_b_N_2.0_ampflank_6.png	 N	 b	 b	 n.a.	 4.915016e-01
7	 1	 64	 flanked	 bex	 4	 1.000000	 2.000000	 flanked_bex_freq_4_amplitude_1_rep_5_r_H_2.0_ampflank_6.png	 H	 r	 r	 n.a.	 7.082361e-01
7	 1	 65	 flanked	 bex	 4	 4.000000	 2.000000	 flanked_bex_freq_4_amplitude_4_rep_1_l_N_2.0_ampflank_6.png	 N	 l	 l	 n.a.	 6.845679e-01
7	 1	 66	 flanked	 bex	 4	 4.000000	 2.000000	 flanked_bex_freq_4_amplitude_4_rep_7_l_K_2.0_ampflank_6.png	 K	 l	 l	 n.a.	 5.842349e-01
7	 1	 67	 flanked	 bex	 4	 6.000000	 2.000000	 flanked_bex_freq_4_amplitude_6_rep_3_r_K_2.0_ampflank_6.png	 K	 r	 r	 n.a.	 4.478960e-01
7	 1	 68	 flanked	 bex	 4	 1.000000	 2.000000	 flanked_bex_freq_4_amplitude_1_rep_3_b_D_2.0_ampflank_6.png	 D	 b	 b	 n.a.	 4.962587e-01
7	 1	 69	 flanked	 bex	 4	 3.000000	 2.000000	 flanked_bex_freq_4_amplitude_3_rep_3_t_D_2.0_ampflank_6.png	 D	 t	 t	 n.a.	 5.957825e-01
7	 1	 70	 flanked	 bex	 4	 6.000000	 2.000000	 flanked_bex_freq_4_amplitude_6_rep_4_t_N_2.0_ampflank_6.png	 N	 t	 t	 n.a.	 5.927925e-01
7	 1	 71	 flanked	 bex	 4	 5.000000	 2.000000	 flanked_bex_freq_4_amplitude_5_rep_2_b_H_2.0_ampflank_6.png	 H	 b	 b	 n.a.	 4.208683e-01
7	 1	 72	 flanked	 bex	 4	 4.000000	 2.000000	 flanked_bex_freq_4_amplitude_4_rep_1_l_N_2.0_ampflank_6.png	 N	 l	 l	 n.a.	 4.815869e-01
7	 1	 73	 flanked	 bex	 4	 5.000000	 2.000000	 flanked_bex_freq_4_amplitude_5_rep_9_l_K_2.0_ampflank_6.png	 K	 l	 l	 n.a.	 4.231712e-01
7	 1	 74	 flanked	 bex	 4	 2.000000	 2.000000	 flanked_bex_freq_4_amplitude_2_rep_7_t_H_2.0_ampflank_6.png	 H	 t	 r	 n.a.	 5.861809e-01
7	 1	 75	 flanked	 bex	 4	 4.000000	 2.000000	 flanked_bex_freq_4_amplitude_4_rep_2_l_K_2.0_ampflank_6.png	 K	 l	 l	 n.a.	 5.422309e-01
7	 1	 76	 flanked	 bex	 4	 3.000000	 2.000000	 flanked_bex_freq_4_amplitude_3_rep_2_b_H_2.0_ampflank_6.png	 H	 b	 b	 n.a.	 5.145782e-01
7	 1	 77	 flanked	 bex	 4	 4.000000	 2.000000	 flanked_bex_freq_4_amplitude_4_rep_0_b_H_2.0_ampflank_6.png	 H	 b	 t	 n.a.	 5.576553e-01
7	 1	 78	 flanked	 bex	 4	 3.000000	 2.000000	 flanked_bex_freq_4_amplitude_3_rep_8_t_D_2.0_ampflank_6.png	 D	 t	 r	 n.a.	 4.803317e-01
7	 1	 79	 flanked	 bex	 4	 0.500000	 2.000000	 flanked_bex_freq_4_amplitude_0.5_rep_3_b_K_2.0_ampflank_6.png	 K	 b	 t	 n.a.	 5.140139e-01
7	 1	 80	 flanked	 bex	 4	 5.000000	 2.000000	 flanked_bex_freq_4_amplitude_5_rep_6_l_N_2.0_ampflank_6.png	 N	 l	 l	 n.a.	 4.836522e-01
7	 1	 81	 flanked	 bex	 4	 4.000000	 2.000000	 flanked_bex_freq_4_amplitude_4_rep_6_l_K_2.0_ampflank_6.png	 K	 l	 b	 n.a.	 4.243165e-01
7	 1	 82	 flanked	 bex	 4	 3.000000	 2.000000	 flanked_bex_freq_4_amplitude_3_rep_4_t_N_2.0_ampflank_6.png	 N	 t	 t	 n.a.	 5.393720e-01
7	 1	 83	 flanked	 bex	 4	 2.000000	 2.000000	 flanked_bex_freq_4_amplitude_2_rep_3_r_D_2.0_ampflank_6.png	 D	 r	 r	 n.a.	 5.701572e-01
7	 1	 84	 flanked	 bex	 4	 2.000000	 2.000000	 flanked_bex_freq_4_amplitude_2_rep_8_b_H_2.0_ampflank_6.png	 H	 b	 l	 n.a.	 5.799166e-01
7	 1	 85	 flanked	 bex	 4	 4.000000	 2.000000	 flanked_bex_freq_4_amplitude_4_rep_4_r_D_2.0_ampflank_6.png	 D	 r	 r	 n.a.	 4.034118e-01
7	 1	 86	 flanked	 bex	 4	 0.500000	 2.000000	 flanked_bex_freq_4_amplitude_0.5_rep_4_l_N_2.0_ampflank_6.png	 N	 l	 r	 n.a.	 8.020388e-01
7	 1	 87	 flanked	 bex	 4	 4.000000	 2.000000	 flanked_bex_freq_4_amplitude_4_rep_5_b_H_2.0_ampflank_6.png	 H	 b	 b	 n.a.	 6.206134e-01
7	 1	 88	 flanked	 bex	 4	 4.000000	 2.000000	 flanked_bex_freq_4_amplitude_4_rep_0_b_H_2.0_ampflank_6.png	 H	 b	 b	 n.a.	 6.535516e-01
7	 1	 89	 flanked	 bex	 4	 1.000000	 2.000000	 flanked_bex_freq_4_amplitude_1_rep_6_r_N_2.0_ampflank_6.png	 N	 r	 l	 n.a.	 4.841553e-01
7	 1	 90	 flanked	 bex	 4	 6.000000	 2.000000	 flanked_bex_freq_4_amplitude_6_rep_0_r_H_2.0_ampflank_6.png	 H	 r	 r	 n.a.	 3.756594e-01
7	 1	 91	 flanked	 bex	 4	 4.000000	 2.000000	 flanked_bex_freq_4_amplitude_4_rep_3_t_N_2.0_ampflank_6.png	 N	 t	 t	 n.a.	 8.181388e-01
7	 1	 92	 flanked	 bex	 4	 4.000000	 2.000000	 flanked_bex_freq_4_amplitude_4_rep_2_l_K_2.0_ampflank_6.png	 K	 l	 t	 n.a.	 6.967138e-01
7	 1	 93	 flanked	 bex	 4	 2.000000	 2.000000	 flanked_bex_freq_4_amplitude_2_rep_6_b_D_2.0_ampflank_6.png	 D	 b	 l	 n.a.	 3.984379e-01
7	 1	 94	 flanked	 bex	 4	 4.000000	 2.000000	 flanked_bex_freq_4_amplitude_4_rep_4_r_D_2.0_ampflank_6.png	 D	 r	 r	 n.a.	 3.701420e-01
7	 1	 95	 flanked	 bex	 4	 4.000000	 2.000000	 flanked_bex_freq_4_amplitude_4_rep_3_t_N_2.0_ampflank_6.png	 N	 t	 b	 n.a.	 7.041572e-01
7	 1	 96	 flanked	 bex	 4	 3.000000	 2.000000	 flanked_bex_freq_4_amplitude_3_rep_8_t_D_2.0_ampflank_6.png	 D	 t	 t	 n.a.	 5.810733e-01
7	 1	 97	 flanked	 bex	 4	 5.000000	 2.000000	 flanked_bex_freq_4_amplitude_5_rep_3_r_K_2.0_ampflank_6.png	 K	 r	 r	 n.a.	 5.427464e-01
7	 1	 98	 flanked	 bex	 4	 5.000000	 2.000000	 flanked_bex_freq_4_amplitude_5_rep_0_r_K_2.0_ampflank_6.png	 K	 r	 r	 n.a.	 6.925898e-01
7	 1	 99	 flanked	 bex	 4	 1.000000	 2.000000	 flanked_bex_freq_4_amplitude_1_rep_2_l_K_2.0_ampflank_6.png	 K	 l	 t	 n.a.	 6.071502e-01
7	 1	 100	 flanked	 bex	 4	 0.500000	 2.000000	 flanked_bex_freq_4_amplitude_0.5_rep_8_t_D_2.0_ampflank_6.png	 D	 t	 l	 n.a.	 4.011526e-01
7	 1	 101	 flanked	 bex	 4	 4.000000	 2.000000	 flanked_bex_freq_4_amplitude_4_rep_6_l_K_2.0_ampflank_6.png	 K	 l	 l	 n.a.	 5.141750e-01
7	 1	 102	 flanked	 bex	 4	 0.500000	 2.000000	 flanked_bex_freq_4_amplitude_0.5_rep_8_t_D_2.0_ampflank_6.png	 D	 t	 r	 n.a.	 8.222870e-01
7	 1	 103	 flanked	 bex	 4	 6.000000	 2.000000	 flanked_bex_freq_4_amplitude_6_rep_3_r_K_2.0_ampflank_6.png	 K	 r	 r	 n.a.	 7.565839e-01
7	 1	 104	 flanked	 bex	 4	 2.000000	 2.000000	 flanked_bex_freq_4_amplitude_2_rep_6_b_D_2.0_ampflank_6.png	 D	 b	 b	 n.a.	 9.249064e-01
7	 1	 105	 flanked	 bex	 4	 3.000000	 2.000000	 flanked_bex_freq_4_amplitude_3_rep_4_t_N_2.0_ampflank_6.png	 N	 t	 l	 n.a.	 8.033753e-01
7	 1	 106	 flanked	 bex	 4	 4.000000	 2.000000	 flanked_bex_freq_4_amplitude_4_rep_0_b_H_2.0_ampflank_6.png	 H	 b	 b	 n.a.	 7.977006e-01
7	 1	 107	 flanked	 bex	 4	 5.000000	 2.000000	 flanked_bex_freq_4_amplitude_5_rep_3_r_K_2.0_ampflank_6.png	 K	 r	 r	 n.a.	 6.757463e-01
7	 1	 108	 flanked	 bex	 4	 2.000000	 2.000000	 flanked_bex_freq_4_amplitude_2_rep_2_r_N_2.0_ampflank_6.png	 N	 r	 l	 n.a.	 6.016174e-01
7	 1	 109	 flanked	 bex	 4	 2.000000	 2.000000	 flanked_bex_freq_4_amplitude_2_rep_9_t_D_2.0_ampflank_6.png	 D	 t	 t	 n.a.	 5.283359e-01
7	 1	 110	 flanked	 bex	 4	 0.500000	 2.000000	 flanked_bex_freq_4_amplitude_0.5_rep_3_b_K_2.0_ampflank_6.png	 K	 b	 t	 n.a.	 6.462006e-01
7	 1	 111	 flanked	 bex	 4	 5.000000	 2.000000	 flanked_bex_freq_4_amplitude_5_rep_5_l_K_2.0_ampflank_6.png	 K	 l	 l	 n.a.	 4.008008e-01
7	 1	 112	 flanked	 bex	 4	 5.000000	 2.000000	 flanked_bex_freq_4_amplitude_5_rep_6_l_N_2.0_ampflank_6.png	 N	 l	 l	 n.a.	 5.259852e-01
7	 1	 113	 flanked	 bex	 4	 6.000000	 2.000000	 flanked_bex_freq_4_amplitude_6_rep_5_b_D_2.0_ampflank_6.png	 D	 b	 t	 n.a.	 5.229450e-01
7	 1	 114	 flanked	 bex	 4	 0.500000	 2.000000	 flanked_bex_freq_4_amplitude_0.5_rep_2_b_N_2.0_ampflank_6.png	 N	 b	 r	 n.a.	 7.559341e-01
7	 1	 115	 flanked	 bex	 4	 1.000000	 2.000000	 flanked_bex_freq_4_amplitude_1_rep_4_r_H_2.0_ampflank_6.png	 H	 r	 t	 n.a.	 9.599973e-01
7	 1	 116	 flanked	 bex	 4	 6.000000	 2.000000	 flanked_bex_freq_4_amplitude_6_rep_2_t_D_2.0_ampflank_6.png	 D	 t	 t	 n.a.	 3.639922e-01
7	 1	 117	 flanked	 bex	 4	 1.000000	 2.000000	 flanked_bex_freq_4_amplitude_1_rep_7_b_D_2.0_ampflank_6.png	 D	 b	 l	 n.a.	 6.051899e-01
7	 1	 118	 flanked	 bex	 4	 2.000000	 2.000000	 flanked_bex_freq_4_amplitude_2_rep_2_r_N_2.0_ampflank_6.png	 N	 r	 r	 n.a.	 4.948430e-01
7	 1	 119	 flanked	 bex	 4	 0.500000	 2.000000	 flanked_bex_freq_4_amplitude_0.5_rep_6_l_H_2.0_ampflank_6.png	 H	 l	 l	 n.a.	 7.310629e-01
7	 1	 120	 flanked	 bex	 4	 0.500000	 2.000000	 flanked_bex_freq_4_amplitude_0.5_rep_1_b_K_2.0_ampflank_6.png	 K	 b	 l	 n.a.	 6.559177e-01
7	 1	 121	 flanked	 bex	 4	 0.500000	 2.000000	 flanked_bex_freq_4_amplitude_0.5_rep_5_r_D_2.0_ampflank_6.png	 D	 r	 t	 n.a.	 7.388778e-01
7	 1	 122	 flanked	 bex	 4	 1.000000	 2.000000	 flanked_bex_freq_4_amplitude_1_rep_2_l_K_2.0_ampflank_6.png	 K	 l	 l	 n.a.	 4.733323e-01
7	 1	 123	 flanked	 bex	 4	 3.000000	 2.000000	 flanked_bex_freq_4_amplitude_3_rep_7_r_H_2.0_ampflank_6.png	 H	 r	 t	 n.a.	 7.696567e-01
7	 1	 124	 flanked	 bex	 4	 3.000000	 2.000000	 flanked_bex_freq_4_amplitude_3_rep_1_b_D_2.0_ampflank_6.png	 D	 b	 l	 n.a.	 6.300143e-01
7	 1	 125	 flanked	 bex	 4	 6.000000	 2.000000	 flanked_bex_freq_4_amplitude_6_rep_2_t_D_2.0_ampflank_6.png	 D	 t	 t	 n.a.	 4.483115e-01
7	 1	 126	 flanked	 bex	 4	 4.000000	 2.000000	 flanked_bex_freq_4_amplitude_4_rep_4_r_D_2.0_ampflank_6.png	 D	 r	 r	 n.a.	 3.640896e-01
7	 1	 127	 flanked	 bex	 4	 1.000000	 2.000000	 flanked_bex_freq_4_amplitude_1_rep_9_l_H_2.0_ampflank_6.png	 H	 l	 l	 n.a.	 4.357365e-01
7	 1	 128	 flanked	 bex	 4	 4.000000	 2.000000	 flanked_bex_freq_4_amplitude_4_rep_6_l_K_2.0_ampflank_6.png	 K	 l	 l	 n.a.	 3.675313e-01
7	 1	 129	 flanked	 bex	 4	 3.000000	 2.000000	 flanked_bex_freq_4_amplitude_3_rep_2_b_H_2.0_ampflank_6.png	 H	 b	 t	 n.a.	 7.518328e-01
7	 1	 130	 flanked	 bex	 4	 0.500000	 2.000000	 flanked_bex_freq_4_amplitude_0.5_rep_8_t_D_2.0_ampflank_6.png	 D	 t	 r	 n.a.	 4.652466e-01
7	 1	 131	 flanked	 bex	 4	 5.000000	 2.000000	 flanked_bex_freq_4_amplitude_5_rep_4_r_H_2.0_ampflank_6.png	 H	 r	 r	 n.a.	 3.981979e-01
7	 1	 132	 flanked	 bex	 4	 5.000000	 2.000000	 flanked_bex_freq_4_amplitude_5_rep_0_r_K_2.0_ampflank_6.png	 K	 r	 r	 n.a.	 4.467581e-01
7	 1	 133	 flanked	 bex	 4	 6.000000	 2.000000	 flanked_bex_freq_4_amplitude_6_rep_8_r_D_2.0_ampflank_6.png	 D	 r	 r	 n.a.	 4.289996e-01
7	 1	 134	 flanked	 bex	 4	 3.000000	 2.000000	 flanked_bex_freq_4_amplitude_3_rep_6_l_H_2.0_ampflank_6.png	 H	 l	 l	 n.a.	 3.732208e-01
7	 1	 135	 flanked	 bex	 4	 2.000000	 2.000000	 flanked_bex_freq_4_amplitude_2_rep_9_t_D_2.0_ampflank_6.png	 D	 t	 t	 n.a.	 9.029520e-01
7	 1	 136	 flanked	 bex	 4	 2.000000	 2.000000	 flanked_bex_freq_4_amplitude_2_rep_3_r_D_2.0_ampflank_6.png	 D	 r	 r	 n.a.	 5.398757e-01
7	 1	 137	 flanked	 bex	 4	 1.000000	 2.000000	 flanked_bex_freq_4_amplitude_1_rep_8_l_H_2.0_ampflank_6.png	 H	 l	 l	 n.a.	 4.888420e-01
7	 1	 138	 flanked	 bex	 4	 2.000000	 2.000000	 flanked_bex_freq_4_amplitude_2_rep_5_t_H_2.0_ampflank_6.png	 H	 t	 l	 n.a.	 6.796481e-01
7	 1	 139	 flanked	 bex	 4	 3.000000	 2.000000	 flanked_bex_freq_4_amplitude_3_rep_1_b_D_2.0_ampflank_6.png	 D	 b	 r	 n.a.	 4.003096e-01
7	 1	 140	 flanked	 bex	 4	 3.000000	 2.000000	 flanked_bex_freq_4_amplitude_3_rep_4_t_N_2.0_ampflank_6.png	 N	 t	 l	 n.a.	 6.416167e-01
7	 1	 141	 flanked	 bex	 4	 6.000000	 2.000000	 flanked_bex_freq_4_amplitude_6_rep_9_t_K_2.0_ampflank_6.png	 K	 t	 t	 n.a.	 4.274936e-01
7	 1	 142	 flanked	 bex	 4	 6.000000	 2.000000	 flanked_bex_freq_4_amplitude_6_rep_8_r_D_2.0_ampflank_6.png	 D	 r	 r	 n.a.	 4.274453e-01
7	 1	 143	 flanked	 bex	 4	 2.000000	 2.000000	 flanked_bex_freq_4_amplitude_2_rep_8_b_H_2.0_ampflank_6.png	 H	 b	 b	 n.a.	 6.586592e-01
7	 1	 144	 flanked	 bex	 4	 4.000000	 2.000000	 flanked_bex_freq_4_amplitude_4_rep_8_b_D_2.0_ampflank_6.png	 D	 b	 b	 n.a.	 5.264036e-01
7	 1	 145	 flanked	 bex	 4	 0.500000	 2.000000	 flanked_bex_freq_4_amplitude_0.5_rep_0_b_K_2.0_ampflank_6.png	 K	 b	 t	 n.a.	 5.660168e-01
7	 1	 146	 flanked	 bex	 4	 6.000000	 2.000000	 flanked_bex_freq_4_amplitude_6_rep_7_l_D_2.0_ampflank_6.png	 D	 l	 l	 n.a.	 3.552314e-01
7	 1	 147	 flanked	 bex	 4	 6.000000	 2.000000	 flanked_bex_freq_4_amplitude_6_rep_1_l_K_2.0_ampflank_6.png	 K	 l	 t	 n.a.	 5.678261e-01
7	 1	 148	 flanked	 bex	 4	 5.000000	 2.000000	 flanked_bex_freq_4_amplitude_5_rep_7_l_H_2.0_ampflank_6.png	 H	 l	 l	 n.a.	 5.112831e-01
7	 1	 149	 flanked	 bex	 4	 1.000000	 2.000000	 flanked_bex_freq_4_amplitude_1_rep_8_l_H_2.0_ampflank_6.png	 H	 l	 r	 n.a.	 4.703439e-01
7	 1	 150	 flanked	 bex	 4	 0.500000	 2.000000	 flanked_bex_freq_4_amplitude_0.5_rep_0_b_K_2.0_ampflank_6.png	 K	 b	 l	 n.a.	 5.186096e-01
7	 1	 151	 flanked	 bex	 4	 2.000000	 2.000000	 flanked_bex_freq_4_amplitude_2_rep_6_b_D_2.0_ampflank_6.png	 D	 b	 b	 n.a.	 5.108836e-01
7	 1	 152	 flanked	 bex	 4	 2.000000	 2.000000	 flanked_bex_freq_4_amplitude_2_rep_8_b_H_2.0_ampflank_6.png	 H	 b	 b	 n.a.	 7.117574e-01
7	 1	 153	 flanked	 bex	 4	 2.000000	 2.000000	 flanked_bex_freq_4_amplitude_2_rep_1_b_D_2.0_ampflank_6.png	 D	 b	 l	 n.a.	 7.037435e-01
7	 1	 154	 flanked	 bex	 4	 1.000000	 2.000000	 flanked_bex_freq_4_amplitude_1_rep_8_l_H_2.0_ampflank_6.png	 H	 l	 b	 n.a.	 6.340234e-01
7	 1	 155	 flanked	 bex	 4	 0.500000	 2.000000	 flanked_bex_freq_4_amplitude_0.5_rep_7_b_N_2.0_ampflank_6.png	 N	 b	 t	 n.a.	 4.268935e-01
7	 1	 156	 flanked	 bex	 4	 1.000000	 2.000000	 flanked_bex_freq_4_amplitude_1_rep_6_r_N_2.0_ampflank_6.png	 N	 r	 r	 n.a.	 3.984912e-01
7	 1	 157	 flanked	 bex	 4	 3.000000	 2.000000	 flanked_bex_freq_4_amplitude_3_rep_3_t_D_2.0_ampflank_6.png	 D	 t	 r	 n.a.	 5.226200e-01
7	 1	 158	 flanked	 bex	 4	 2.000000	 2.000000	 flanked_bex_freq_4_amplitude_2_rep_4_t_K_2.0_ampflank_6.png	 K	 t	 t	 n.a.	 3.988612e-01
7	 1	 159	 flanked	 bex	 4	 0.500000	 2.000000	 flanked_bex_freq_4_amplitude_0.5_rep_9_r_H_2.0_ampflank_6.png	 H	 r	 t	 n.a.	 5.081348e-01
7	 1	 160	 flanked	 bex	 4	 6.000000	 2.000000	 flanked_bex_freq_4_amplitude_6_rep_0_r_H_2.0_ampflank_6.png	 H	 r	 r	 n.a.	 3.065554e-01
7	 1	 161	 flanked	 bex	 4	 1.000000	 2.000000	 flanked_bex_freq_4_amplitude_1_rep_7_b_D_2.0_ampflank_6.png	 D	 b	 b	 n.a.	 4.633170e-01
7	 1	 162	 flanked	 bex	 4	 5.000000	 2.000000	 flanked_bex_freq_4_amplitude_5_rep_6_l_N_2.0_ampflank_6.png	 N	 l	 r	 n.a.	 6.737784e-01
7	 1	 163	 flanked	 bex	 4	 3.000000	 2.000000	 flanked_bex_freq_4_amplitude_3_rep_8_t_D_2.0_ampflank_6.png	 D	 t	 t	 n.a.	 4.758414e-01
7	 1	 164	 flanked	 bex	 4	 2.000000	 2.000000	 flanked_bex_freq_4_amplitude_2_rep_5_t_H_2.0_ampflank_6.png	 H	 t	 l	 n.a.	 5.798853e-01
7	 1	 165	 flanked	 bex	 4	 2.000000	 2.000000	 flanked_bex_freq_4_amplitude_2_rep_7_t_H_2.0_ampflank_6.png	 H	 t	 b	 n.a.	 6.329646e-01
7	 1	 166	 flanked	 bex	 4	 5.000000	 2.000000	 flanked_bex_freq_4_amplitude_5_rep_4_r_H_2.0_ampflank_6.png	 H	 r	 r	 n.a.	 4.268651e-01
7	 1	 167	 flanked	 bex	 4	 6.000000	 2.000000	 flanked_bex_freq_4_amplitude_6_rep_4_t_N_2.0_ampflank_6.png	 N	 t	 t	 n.a.	 4.527457e-01
7	 1	 168	 flanked	 bex	 4	 6.000000	 2.000000	 flanked_bex_freq_4_amplitude_6_rep_9_t_K_2.0_ampflank_6.png	 K	 t	 t	 n.a.	 4.957411e-01
7	 1	 169	 flanked	 bex	 4	 6.000000	 2.000000	 flanked_bex_freq_4_amplitude_6_rep_6_b_N_2.0_ampflank_6.png	 N	 b	 b	 n.a.	 5.538873e-01
7	 1	 170	 flanked	 bex	 4	 6.000000	 2.000000	 flanked_bex_freq_4_amplitude_6_rep_7_l_D_2.0_ampflank_6.png	 D	 l	 l	 n.a.	 4.868671e-01
7	 1	 171	 flanked	 bex	 4	 1.000000	 2.000000	 flanked_bex_freq_4_amplitude_1_rep_4_r_H_2.0_ampflank_6.png	 H	 r	 r	 n.a.	 8.465660e-01
7	 1	 172	 flanked	 bex	 4	 1.000000	 2.000000	 flanked_bex_freq_4_amplitude_1_rep_9_l_H_2.0_ampflank_6.png	 H	 l	 l	 n.a.	 5.999460e-01
7	 1	 173	 flanked	 bex	 4	 1.000000	 2.000000	 flanked_bex_freq_4_amplitude_1_rep_0_t_K_2.0_ampflank_6.png	 K	 t	 t	 n.a.	 5.914953e-01
7	 1	 174	 flanked	 bex	 4	 2.000000	 2.000000	 flanked_bex_freq_4_amplitude_2_rep_1_b_D_2.0_ampflank_6.png	 D	 b	 l	 n.a.	 5.488480e-01
7	 1	 175	 flanked	 bex	 4	 5.000000	 2.000000	 flanked_bex_freq_4_amplitude_5_rep_8_r_D_2.0_ampflank_6.png	 D	 r	 r	 n.a.	 5.282816e-01
7	 1	 176	 flanked	 bex	 4	 5.000000	 2.000000	 flanked_bex_freq_4_amplitude_5_rep_1_t_D_2.0_ampflank_6.png	 D	 t	 t	 n.a.	 5.305137e-01
7	 1	 177	 flanked	 bex	 4	 5.000000	 2.000000	 flanked_bex_freq_4_amplitude_5_rep_3_r_K_2.0_ampflank_6.png	 K	 r	 r	 n.a.	 4.093534e-01
7	 1	 178	 flanked	 bex	 4	 4.000000	 2.000000	 flanked_bex_freq_4_amplitude_4_rep_3_t_N_2.0_ampflank_6.png	 N	 t	 t	 n.a.	 6.621219e-01
7	 1	 179	 flanked	 bex	 4	 5.000000	 2.000000	 flanked_bex_freq_4_amplitude_5_rep_9_l_K_2.0_ampflank_6.png	 K	 l	 l	 n.a.	 5.369720e-01
7	 1	 180	 flanked	 bex	 4	 1.000000	 2.000000	 flanked_bex_freq_4_amplitude_1_rep_9_l_H_2.0_ampflank_6.png	 H	 l	 t	 n.a.	 5.496650e-01
7	 1	 181	 flanked	 bex	 4	 3.000000	 2.000000	 flanked_bex_freq_4_amplitude_3_rep_0_b_H_2.0_ampflank_6.png	 H	 b	 b	 n.a.	 5.036511e-01
7	 1	 182	 flanked	 bex	 4	 6.000000	 2.000000	 flanked_bex_freq_4_amplitude_6_rep_1_l_K_2.0_ampflank_6.png	 K	 l	 l	 n.a.	 8.655473e-01
7	 1	 183	 flanked	 bex	 4	 1.000000	 2.000000	 flanked_bex_freq_4_amplitude_1_rep_1_r_N_2.0_ampflank_6.png	 N	 r	 t	 n.a.	 6.627999e-01
7	 1	 184	 flanked	 bex	 4	 3.000000	 2.000000	 flanked_bex_freq_4_amplitude_3_rep_3_t_D_2.0_ampflank_6.png	 D	 t	 t	 n.a.	 4.962684e-01
7	 1	 185	 flanked	 bex	 4	 2.000000	 2.000000	 flanked_bex_freq_4_amplitude_2_rep_5_t_H_2.0_ampflank_6.png	 H	 t	 t	 n.a.	 5.985346e-01
7	 1	 186	 flanked	 bex	 4	 0.500000	 2.000000	 flanked_bex_freq_4_amplitude_0.5_rep_2_b_N_2.0_ampflank_6.png	 N	 b	 l	 n.a.	 5.912505e-01
7	 1	 187	 flanked	 bex	 4	 3.000000	 2.000000	 flanked_bex_freq_4_amplitude_3_rep_7_r_H_2.0_ampflank_6.png	 H	 r	 r	 n.a.	 4.431354e-01
7	 1	 188	 flanked	 bex	 4	 2.000000	 2.000000	 flanked_bex_freq_4_amplitude_2_rep_4_t_K_2.0_ampflank_6.png	 K	 t	 t	 n.a.	 6.513633e-01
7	 1	 189	 flanked	 bex	 4	 0.500000	 2.000000	 flanked_bex_freq_4_amplitude_0.5_rep_0_b_K_2.0_ampflank_6.png	 K	 b	 t	 n.a.	 5.908982e-01
7	 1	 190	 flanked	 bex	 4	 3.000000	 2.000000	 flanked_bex_freq_4_amplitude_3_rep_5_t_H_2.0_ampflank_6.png	 H	 t	 l	 n.a.	 3.895808e-01
7	 1	 191	 flanked	 bex	 4	 1.000000	 2.000000	 flanked_bex_freq_4_amplitude_1_rep_5_r_H_2.0_ampflank_6.png	 H	 r	 t	 n.a.	 8.940355e-01
7	 1	 192	 flanked	 bex	 4	 0.500000	 2.000000	 flanked_bex_freq_4_amplitude_0.5_rep_4_l_N_2.0_ampflank_6.png	 N	 l	 b	 n.a.	 4.190432e-01
7	 1	 193	 flanked	 bex	 4	 3.000000	 2.000000	 flanked_bex_freq_4_amplitude_3_rep_0_b_H_2.0_ampflank_6.png	 H	 b	 l	 n.a.	 8.137472e-01
7	 1	 194	 flanked	 bex	 4	 2.000000	 2.000000	 flanked_bex_freq_4_amplitude_2_rep_9_t_D_2.0_ampflank_6.png	 D	 t	 t	 n.a.	 5.528876e-01
7	 1	 195	 flanked	 bex	 4	 1.000000	 2.000000	 flanked_bex_freq_4_amplitude_1_rep_2_l_K_2.0_ampflank_6.png	 K	 l	 r	 n.a.	 6.514319e-01
7	 1	 196	 flanked	 bex	 4	 3.000000	 2.000000	 flanked_bex_freq_4_amplitude_3_rep_9_t_D_2.0_ampflank_6.png	 D	 t	 b	 n.a.	 7.841992e-01
7	 1	 197	 flanked	 bex	 4	 5.000000	 2.000000	 flanked_bex_freq_4_amplitude_5_rep_2_b_H_2.0_ampflank_6.png	 H	 b	 l	 n.a.	 5.488934e-01
7	 1	 198	 flanked	 bex	 4	 2.000000	 2.000000	 flanked_bex_freq_4_amplitude_2_rep_4_t_K_2.0_ampflank_6.png	 K	 t	 r	 n.a.	 9.182324e-01
7	 1	 199	 flanked	 bex	 4	 0.500000	 2.000000	 flanked_bex_freq_4_amplitude_0.5_rep_1_b_K_2.0_ampflank_6.png	 K	 b	 t	 n.a.	 5.778356e-01
7	 1	 200	 flanked	 bex	 4	 2.000000	 2.000000	 flanked_bex_freq_4_amplitude_2_rep_7_t_H_2.0_ampflank_6.png	 H	 t	 l	 n.a.	 6.968773e-01
7	 1	 201	 flanked	 bex	 4	 1.000000	 2.000000	 flanked_bex_freq_4_amplitude_1_rep_4_r_H_2.0_ampflank_6.png	 H	 r	 b	 n.a.	 5.483692e-01
7	 1	 202	 flanked	 bex	 4	 1.000000	 2.000000	 flanked_bex_freq_4_amplitude_1_rep_1_r_N_2.0_ampflank_6.png	 N	 r	 l	 n.a.	 4.132258e-01
7	 1	 203	 flanked	 bex	 4	 5.000000	 2.000000	 flanked_bex_freq_4_amplitude_5_rep_1_t_D_2.0_ampflank_6.png	 D	 t	 t	 n.a.	 3.454937e-01
7	 1	 204	 flanked	 bex	 4	 6.000000	 2.000000	 flanked_bex_freq_4_amplitude_6_rep_6_b_N_2.0_ampflank_6.png	 N	 b	 b	 n.a.	 4.492325e-01
7	 1	 205	 flanked	 bex	 4	 1.000000	 2.000000	 flanked_bex_freq_4_amplitude_1_rep_3_b_D_2.0_ampflank_6.png	 D	 b	 l	 n.a.	 4.826122e-01
7	 1	 206	 flanked	 bex	 4	 3.000000	 2.000000	 flanked_bex_freq_4_amplitude_3_rep_5_t_H_2.0_ampflank_6.png	 H	 t	 b	 n.a.	 6.954995e-01
7	 1	 207	 flanked	 bex	 4	 6.000000	 2.000000	 flanked_bex_freq_4_amplitude_6_rep_0_r_H_2.0_ampflank_6.png	 H	 r	 r	 n.a.	 3.697393e-01
7	 1	 208	 flanked	 bex	 4	 2.000000	 2.000000	 flanked_bex_freq_4_amplitude_2_rep_0_r_D_2.0_ampflank_6.png	 D	 r	 l	 n.a.	 3.740373e-01
7	 1	 209	 flanked	 bex	 4	 3.000000	 2.000000	 flanked_bex_freq_4_amplitude_3_rep_2_b_H_2.0_ampflank_6.png	 H	 b	 b	 n.a.	 5.819045e-01
7	 1	 210	 flanked	 bex	 4	 1.000000	 2.000000	 flanked_bex_freq_4_amplitude_1_rep_3_b_D_2.0_ampflank_6.png	 D	 b	 r	 n.a.	 6.857195e-01
