subject	 session	 trial	 flanked	 distortion	 freq	 amplitude	 spacing	 im_name	 targ_letter	 targ_pos	 response	 eyemovement	 RT
5	 2	 1	 flanked	 rf	 4	 0.125000	 2.000000	 flanked_rf_freq_4_amplitude_0.125_rep_8_l_N_2.0_ampflank_0.425.png	 N	 l	 t	 n.a.	 7.504399e-01
5	 2	 2	 flanked	 rf	 4	 0.025000	 2.000000	 flanked_rf_freq_4_amplitude_0.025_rep_9_b_K_2.0_ampflank_0.425.png	 K	 b	 b	 n.a.	 9.396312e-01
5	 2	 3	 flanked	 rf	 4	 0.275000	 2.000000	 flanked_rf_freq_4_amplitude_0.275_rep_8_l_D_2.0_ampflank_0.425.png	 D	 l	 r	 n.a.	 6.823552e-01
5	 2	 4	 flanked	 rf	 4	 0.200000	 2.000000	 flanked_rf_freq_4_amplitude_0.2_rep_6_b_K_2.0_ampflank_0.425.png	 K	 b	 b	 n.a.	 7.224995e-01
5	 2	 5	 flanked	 rf	 4	 0.125000	 2.000000	 flanked_rf_freq_4_amplitude_0.125_rep_6_l_D_2.0_ampflank_0.425.png	 D	 l	 t	 n.a.	 6.400666e-01
5	 2	 6	 flanked	 rf	 4	 0.050000	 2.000000	 flanked_rf_freq_4_amplitude_0.05_rep_4_r_D_2.0_ampflank_0.425.png	 D	 r	 t	 n.a.	 5.378342e-01
5	 2	 7	 flanked	 rf	 4	 0.025000	 2.000000	 flanked_rf_freq_4_amplitude_0.025_rep_1_l_D_2.0_ampflank_0.425.png	 D	 l	 r	 n.a.	 7.021220e-01
5	 2	 8	 flanked	 rf	 4	 0.425000	 2.000000	 flanked_rf_freq_4_amplitude_0.425_rep_5_r_D_2.0_ampflank_0.425.png	 D	 r	 r	 n.a.	 8.459874e-01
5	 2	 9	 flanked	 rf	 4	 0.425000	 2.000000	 flanked_rf_freq_4_amplitude_0.425_rep_4_b_D_2.0_ampflank_0.425.png	 D	 b	 b	 n.a.	 5.719342e-01
5	 2	 10	 flanked	 rf	 4	 0.125000	 2.000000	 flanked_rf_freq_4_amplitude_0.125_rep_4_b_N_2.0_ampflank_0.425.png	 N	 b	 b	 n.a.	 6.664698e-01
5	 2	 11	 flanked	 rf	 4	 0.050000	 2.000000	 flanked_rf_freq_4_amplitude_0.05_rep_7_r_H_2.0_ampflank_0.425.png	 H	 r	 t	 n.a.	 5.488500e-01
5	 2	 12	 flanked	 rf	 4	 0.200000	 2.000000	 flanked_rf_freq_4_amplitude_0.2_rep_2_r_H_2.0_ampflank_0.425.png	 H	 r	 l	 n.a.	 1.060584e+00
5	 2	 13	 flanked	 rf	 4	 0.050000	 2.000000	 flanked_rf_freq_4_amplitude_0.05_rep_5_l_H_2.0_ampflank_0.425.png	 H	 l	 b	 n.a.	 7.711692e-01
5	 2	 14	 flanked	 rf	 4	 0.025000	 2.000000	 flanked_rf_freq_4_amplitude_0.025_rep_6_t_D_2.0_ampflank_0.425.png	 D	 t	 r	 n.a.	 4.030486e-01
5	 2	 15	 flanked	 rf	 4	 0.425000	 2.000000	 flanked_rf_freq_4_amplitude_0.425_rep_1_b_D_2.0_ampflank_0.425.png	 D	 b	 r	 n.a.	 9.499404e-01
5	 2	 16	 flanked	 rf	 4	 0.350000	 2.000000	 flanked_rf_freq_4_amplitude_0.35_rep_0_t_K_2.0_ampflank_0.425.png	 K	 t	 t	 n.a.	 4.147308e-01
5	 2	 17	 flanked	 rf	 4	 0.025000	 2.000000	 flanked_rf_freq_4_amplitude_0.025_rep_8_t_K_2.0_ampflank_0.425.png	 K	 t	 r	 n.a.	 1.201569e+00
5	 2	 18	 flanked	 rf	 4	 0.050000	 2.000000	 flanked_rf_freq_4_amplitude_0.05_rep_3_r_H_2.0_ampflank_0.425.png	 H	 r	 b	 n.a.	 5.263282e-01
5	 2	 19	 flanked	 rf	 4	 0.200000	 2.000000	 flanked_rf_freq_4_amplitude_0.2_rep_3_t_H_2.0_ampflank_0.425.png	 H	 t	 t	 n.a.	 4.702574e-01
5	 2	 20	 flanked	 rf	 4	 0.125000	 2.000000	 flanked_rf_freq_4_amplitude_0.125_rep_8_l_N_2.0_ampflank_0.425.png	 N	 l	 r	 n.a.	 9.786534e-01
5	 2	 21	 flanked	 rf	 4	 0.350000	 2.000000	 flanked_rf_freq_4_amplitude_0.35_rep_1_b_D_2.0_ampflank_0.425.png	 D	 b	 l	 n.a.	 1.129825e+00
5	 2	 22	 flanked	 rf	 4	 0.275000	 2.000000	 flanked_rf_freq_4_amplitude_0.275_rep_0_t_K_2.0_ampflank_0.425.png	 K	 t	 t	 n.a.	 3.892943e-01
5	 2	 23	 flanked	 rf	 4	 0.350000	 2.000000	 flanked_rf_freq_4_amplitude_0.35_rep_4_b_N_2.0_ampflank_0.425.png	 N	 b	 t	 n.a.	 9.406671e-01
5	 2	 24	 flanked	 rf	 4	 0.200000	 2.000000	 flanked_rf_freq_4_amplitude_0.2_rep_1_b_D_2.0_ampflank_0.425.png	 D	 b	 l	 n.a.	 1.161191e+00
5	 2	 25	 flanked	 rf	 4	 0.350000	 2.000000	 flanked_rf_freq_4_amplitude_0.35_rep_9_r_N_2.0_ampflank_0.425.png	 N	 r	 b	 n.a.	 9.090430e-01
5	 2	 26	 flanked	 rf	 4	 0.050000	 2.000000	 flanked_rf_freq_4_amplitude_0.05_rep_0_l_D_2.0_ampflank_0.425.png	 D	 l	 r	 n.a.	 1.136844e+00
5	 2	 27	 flanked	 rf	 4	 0.200000	 2.000000	 flanked_rf_freq_4_amplitude_0.2_rep_6_b_K_2.0_ampflank_0.425.png	 K	 b	 r	 n.a.	 9.993555e-01
5	 2	 28	 flanked	 rf	 4	 0.025000	 2.000000	 flanked_rf_freq_4_amplitude_0.025_rep_5_t_N_2.0_ampflank_0.425.png	 N	 t	 t	 n.a.	 4.890141e-01
5	 2	 29	 flanked	 rf	 4	 0.025000	 2.000000	 flanked_rf_freq_4_amplitude_0.025_rep_3_r_H_2.0_ampflank_0.425.png	 H	 r	 r	 n.a.	 9.987199e-01
5	 2	 30	 flanked	 rf	 4	 0.350000	 2.000000	 flanked_rf_freq_4_amplitude_0.35_rep_3_t_H_2.0_ampflank_0.425.png	 H	 t	 b	 n.a.	 1.078537e+00
5	 2	 31	 flanked	 rf	 4	 0.425000	 2.000000	 flanked_rf_freq_4_amplitude_0.425_rep_8_b_D_2.0_ampflank_0.425.png	 D	 b	 t	 n.a.	 5.815330e-01
5	 2	 32	 flanked	 rf	 4	 0.425000	 2.000000	 flanked_rf_freq_4_amplitude_0.425_rep_9_r_K_2.0_ampflank_0.425.png	 K	 r	 r	 n.a.	 5.308039e-01
5	 2	 33	 flanked	 rf	 4	 0.050000	 2.000000	 flanked_rf_freq_4_amplitude_0.05_rep_6_t_K_2.0_ampflank_0.425.png	 K	 t	 t	 n.a.	 7.177471e-01
5	 2	 34	 flanked	 rf	 4	 0.425000	 2.000000	 flanked_rf_freq_4_amplitude_0.425_rep_2_b_K_2.0_ampflank_0.425.png	 K	 b	 r	 n.a.	 8.681266e-01
5	 2	 35	 flanked	 rf	 4	 0.350000	 2.000000	 flanked_rf_freq_4_amplitude_0.35_rep_9_r_N_2.0_ampflank_0.425.png	 N	 r	 r	 n.a.	 6.458451e-01
5	 2	 36	 flanked	 rf	 4	 0.125000	 2.000000	 flanked_rf_freq_4_amplitude_0.125_rep_7_r_H_2.0_ampflank_0.425.png	 H	 r	 b	 n.a.	 1.434289e+00
5	 2	 37	 flanked	 rf	 4	 0.425000	 2.000000	 flanked_rf_freq_4_amplitude_0.425_rep_5_r_D_2.0_ampflank_0.425.png	 D	 r	 r	 n.a.	 5.820925e-01
5	 2	 38	 flanked	 rf	 4	 0.425000	 2.000000	 flanked_rf_freq_4_amplitude_0.425_rep_8_b_D_2.0_ampflank_0.425.png	 D	 b	 b	 n.a.	 1.032875e+00
5	 2	 39	 flanked	 rf	 4	 0.125000	 2.000000	 flanked_rf_freq_4_amplitude_0.125_rep_0_b_N_2.0_ampflank_0.425.png	 N	 b	 t	 n.a.	 5.179268e-01
5	 2	 40	 flanked	 rf	 4	 0.025000	 2.000000	 flanked_rf_freq_4_amplitude_0.025_rep_4_l_K_2.0_ampflank_0.425.png	 K	 l	 t	 n.a.	 9.092078e-01
5	 2	 41	 flanked	 rf	 4	 0.275000	 2.000000	 flanked_rf_freq_4_amplitude_0.275_rep_9_b_N_2.0_ampflank_0.425.png	 N	 b	 r	 n.a.	 1.369536e+00
5	 2	 42	 flanked	 rf	 4	 0.125000	 2.000000	 flanked_rf_freq_4_amplitude_0.125_rep_3_t_D_2.0_ampflank_0.425.png	 D	 t	 t	 n.a.	 7.856740e-01
5	 2	 43	 flanked	 rf	 4	 0.125000	 2.000000	 flanked_rf_freq_4_amplitude_0.125_rep_1_l_H_2.0_ampflank_0.425.png	 H	 l	 t	 n.a.	 1.342880e+00
5	 2	 44	 flanked	 rf	 4	 0.125000	 2.000000	 flanked_rf_freq_4_amplitude_0.125_rep_2_l_N_2.0_ampflank_0.425.png	 N	 l	 t	 n.a.	 6.505684e-01
5	 2	 45	 flanked	 rf	 4	 0.275000	 2.000000	 flanked_rf_freq_4_amplitude_0.275_rep_4_l_H_2.0_ampflank_0.425.png	 H	 l	 l	 n.a.	 7.468575e-01
5	 2	 46	 flanked	 rf	 4	 0.275000	 2.000000	 flanked_rf_freq_4_amplitude_0.275_rep_2_t_H_2.0_ampflank_0.425.png	 H	 t	 r	 n.a.	 4.955311e-01
5	 2	 47	 flanked	 rf	 4	 0.350000	 2.000000	 flanked_rf_freq_4_amplitude_0.35_rep_3_t_H_2.0_ampflank_0.425.png	 H	 t	 b	 n.a.	 4.109007e-01
5	 2	 48	 flanked	 rf	 4	 0.425000	 2.000000	 flanked_rf_freq_4_amplitude_0.425_rep_0_t_N_2.0_ampflank_0.425.png	 N	 t	 t	 n.a.	 4.732238e-01
5	 2	 49	 flanked	 rf	 4	 0.125000	 2.000000	 flanked_rf_freq_4_amplitude_0.125_rep_9_l_D_2.0_ampflank_0.425.png	 D	 l	 t	 n.a.	 5.601319e-01
5	 2	 50	 flanked	 rf	 4	 0.050000	 2.000000	 flanked_rf_freq_4_amplitude_0.05_rep_7_r_H_2.0_ampflank_0.425.png	 H	 r	 t	 n.a.	 4.402128e-01
5	 2	 51	 flanked	 rf	 4	 0.025000	 2.000000	 flanked_rf_freq_4_amplitude_0.025_rep_1_l_D_2.0_ampflank_0.425.png	 D	 l	 r	 n.a.	 5.666503e-01
5	 2	 52	 flanked	 rf	 4	 0.125000	 2.000000	 flanked_rf_freq_4_amplitude_0.125_rep_3_t_D_2.0_ampflank_0.425.png	 D	 t	 r	 n.a.	 1.156315e+00
5	 2	 53	 flanked	 rf	 4	 0.200000	 2.000000	 flanked_rf_freq_4_amplitude_0.2_rep_2_r_H_2.0_ampflank_0.425.png	 H	 r	 t	 n.a.	 4.353489e-01
5	 2	 54	 flanked	 rf	 4	 0.425000	 2.000000	 flanked_rf_freq_4_amplitude_0.425_rep_0_t_N_2.0_ampflank_0.425.png	 N	 t	 t	 n.a.	 6.896160e-01
5	 2	 55	 flanked	 rf	 4	 0.025000	 2.000000	 flanked_rf_freq_4_amplitude_0.025_rep_8_t_K_2.0_ampflank_0.425.png	 K	 t	 l	 n.a.	 1.075651e+00
5	 2	 56	 flanked	 rf	 4	 0.275000	 2.000000	 flanked_rf_freq_4_amplitude_0.275_rep_7_l_K_2.0_ampflank_0.425.png	 K	 l	 b	 n.a.	 8.088077e-01
5	 2	 57	 flanked	 rf	 4	 0.050000	 2.000000	 flanked_rf_freq_4_amplitude_0.05_rep_6_t_K_2.0_ampflank_0.425.png	 K	 t	 t	 n.a.	 4.177921e-01
5	 2	 58	 flanked	 rf	 4	 0.350000	 2.000000	 flanked_rf_freq_4_amplitude_0.35_rep_2_l_D_2.0_ampflank_0.425.png	 D	 l	 t	 n.a.	 6.282923e-01
5	 2	 59	 flanked	 rf	 4	 0.275000	 2.000000	 flanked_rf_freq_4_amplitude_0.275_rep_6_b_N_2.0_ampflank_0.425.png	 N	 b	 r	 n.a.	 6.769510e-01
5	 2	 60	 flanked	 rf	 4	 0.425000	 2.000000	 flanked_rf_freq_4_amplitude_0.425_rep_9_r_K_2.0_ampflank_0.425.png	 K	 r	 r	 n.a.	 4.372499e-01
5	 2	 61	 flanked	 rf	 4	 0.275000	 2.000000	 flanked_rf_freq_4_amplitude_0.275_rep_5_r_N_2.0_ampflank_0.425.png	 N	 r	 t	 n.a.	 6.618255e-01
5	 2	 62	 flanked	 rf	 4	 0.350000	 2.000000	 flanked_rf_freq_4_amplitude_0.35_rep_1_b_D_2.0_ampflank_0.425.png	 D	 b	 l	 n.a.	 7.927530e-01
5	 2	 63	 flanked	 rf	 4	 0.125000	 2.000000	 flanked_rf_freq_4_amplitude_0.125_rep_4_b_N_2.0_ampflank_0.425.png	 N	 b	 b	 n.a.	 6.686391e-01
5	 2	 64	 flanked	 rf	 4	 0.275000	 2.000000	 flanked_rf_freq_4_amplitude_0.275_rep_0_t_K_2.0_ampflank_0.425.png	 K	 t	 t	 n.a.	 6.177193e-01
5	 2	 65	 flanked	 rf	 4	 0.025000	 2.000000	 flanked_rf_freq_4_amplitude_0.025_rep_7_l_D_2.0_ampflank_0.425.png	 D	 l	 r	 n.a.	 5.181412e-01
5	 2	 66	 flanked	 rf	 4	 0.350000	 2.000000	 flanked_rf_freq_4_amplitude_0.35_rep_0_t_K_2.0_ampflank_0.425.png	 K	 t	 t	 n.a.	 5.955763e-01
5	 2	 67	 flanked	 rf	 4	 0.350000	 2.000000	 flanked_rf_freq_4_amplitude_0.35_rep_3_t_H_2.0_ampflank_0.425.png	 H	 t	 t	 n.a.	 5.505356e-01
5	 2	 68	 flanked	 rf	 4	 0.425000	 2.000000	 flanked_rf_freq_4_amplitude_0.425_rep_5_r_D_2.0_ampflank_0.425.png	 D	 r	 b	 n.a.	 7.130025e-01
5	 2	 69	 flanked	 rf	 4	 0.425000	 2.000000	 flanked_rf_freq_4_amplitude_0.425_rep_8_b_D_2.0_ampflank_0.425.png	 D	 b	 t	 n.a.	 8.451080e-01
5	 2	 70	 flanked	 rf	 4	 0.425000	 2.000000	 flanked_rf_freq_4_amplitude_0.425_rep_2_b_K_2.0_ampflank_0.425.png	 K	 b	 b	 n.a.	 6.665032e-01
5	 2	 71	 flanked	 rf	 4	 0.025000	 2.000000	 flanked_rf_freq_4_amplitude_0.025_rep_7_l_D_2.0_ampflank_0.425.png	 D	 l	 r	 n.a.	 5.715644e-01
5	 2	 72	 flanked	 rf	 4	 0.350000	 2.000000	 flanked_rf_freq_4_amplitude_0.35_rep_4_b_N_2.0_ampflank_0.425.png	 N	 b	 t	 n.a.	 7.240641e-01
5	 2	 73	 flanked	 rf	 4	 0.425000	 2.000000	 flanked_rf_freq_4_amplitude_0.425_rep_1_b_D_2.0_ampflank_0.425.png	 D	 b	 b	 n.a.	 4.625758e-01
5	 2	 74	 flanked	 rf	 4	 0.275000	 2.000000	 flanked_rf_freq_4_amplitude_0.275_rep_9_b_N_2.0_ampflank_0.425.png	 N	 b	 t	 n.a.	 1.531196e+00
5	 2	 75	 flanked	 rf	 4	 0.275000	 2.000000	 flanked_rf_freq_4_amplitude_0.275_rep_1_l_H_2.0_ampflank_0.425.png	 H	 l	 r	 n.a.	 5.281199e-01
5	 2	 76	 flanked	 rf	 4	 0.050000	 2.000000	 flanked_rf_freq_4_amplitude_0.05_rep_1_t_N_2.0_ampflank_0.425.png	 N	 t	 t	 n.a.	 6.458701e-01
5	 2	 77	 flanked	 rf	 4	 0.125000	 2.000000	 flanked_rf_freq_4_amplitude_0.125_rep_6_l_D_2.0_ampflank_0.425.png	 D	 l	 r	 n.a.	 6.453147e-01
5	 2	 78	 flanked	 rf	 4	 0.025000	 2.000000	 flanked_rf_freq_4_amplitude_0.025_rep_4_l_K_2.0_ampflank_0.425.png	 K	 l	 b	 n.a.	 5.048175e-01
5	 2	 79	 flanked	 rf	 4	 0.050000	 2.000000	 flanked_rf_freq_4_amplitude_0.05_rep_2_r_D_2.0_ampflank_0.425.png	 D	 r	 t	 n.a.	 1.221576e+00
5	 2	 80	 flanked	 rf	 4	 0.275000	 2.000000	 flanked_rf_freq_4_amplitude_0.275_rep_9_b_N_2.0_ampflank_0.425.png	 N	 b	 r	 n.a.	 6.571307e-01
5	 2	 81	 flanked	 rf	 4	 0.350000	 2.000000	 flanked_rf_freq_4_amplitude_0.35_rep_2_l_D_2.0_ampflank_0.425.png	 D	 l	 b	 n.a.	 5.811272e-01
5	 2	 82	 flanked	 rf	 4	 0.200000	 2.000000	 flanked_rf_freq_4_amplitude_0.2_rep_5_l_K_2.0_ampflank_0.425.png	 K	 l	 t	 n.a.	 1.092183e+00
5	 2	 83	 flanked	 rf	 4	 0.200000	 2.000000	 flanked_rf_freq_4_amplitude_0.2_rep_0_r_H_2.0_ampflank_0.425.png	 H	 r	 t	 n.a.	 5.992546e-01
5	 2	 84	 flanked	 rf	 4	 0.275000	 2.000000	 flanked_rf_freq_4_amplitude_0.275_rep_4_l_H_2.0_ampflank_0.425.png	 H	 l	 l	 n.a.	 8.084228e-01
5	 2	 85	 flanked	 rf	 4	 0.050000	 2.000000	 flanked_rf_freq_4_amplitude_0.05_rep_2_r_D_2.0_ampflank_0.425.png	 D	 r	 b	 n.a.	 8.321478e-01
5	 2	 86	 flanked	 rf	 4	 0.350000	 2.000000	 flanked_rf_freq_4_amplitude_0.35_rep_6_b_D_2.0_ampflank_0.425.png	 D	 b	 t	 n.a.	 6.165270e-01
5	 2	 87	 flanked	 rf	 4	 0.275000	 2.000000	 flanked_rf_freq_4_amplitude_0.275_rep_1_l_H_2.0_ampflank_0.425.png	 H	 l	 r	 n.a.	 1.251066e+00
5	 2	 88	 flanked	 rf	 4	 0.275000	 2.000000	 flanked_rf_freq_4_amplitude_0.275_rep_8_l_D_2.0_ampflank_0.425.png	 D	 l	 t	 n.a.	 5.445045e-01
5	 2	 89	 flanked	 rf	 4	 0.200000	 2.000000	 flanked_rf_freq_4_amplitude_0.2_rep_0_r_H_2.0_ampflank_0.425.png	 H	 r	 b	 n.a.	 9.804611e-01
5	 2	 90	 flanked	 rf	 4	 0.200000	 2.000000	 flanked_rf_freq_4_amplitude_0.2_rep_1_b_D_2.0_ampflank_0.425.png	 D	 b	 t	 n.a.	 1.231633e+00
5	 2	 91	 flanked	 rf	 4	 0.350000	 2.000000	 flanked_rf_freq_4_amplitude_0.35_rep_0_t_K_2.0_ampflank_0.425.png	 K	 t	 l	 n.a.	 6.733046e-01
5	 2	 92	 flanked	 rf	 4	 0.025000	 2.000000	 flanked_rf_freq_4_amplitude_0.025_rep_0_l_D_2.0_ampflank_0.425.png	 D	 l	 b	 n.a.	 5.917884e-01
5	 2	 93	 flanked	 rf	 4	 0.025000	 2.000000	 flanked_rf_freq_4_amplitude_0.025_rep_6_t_D_2.0_ampflank_0.425.png	 D	 t	 r	 n.a.	 6.498676e-01
5	 2	 94	 flanked	 rf	 4	 0.025000	 2.000000	 flanked_rf_freq_4_amplitude_0.025_rep_8_t_K_2.0_ampflank_0.425.png	 K	 t	 r	 n.a.	 3.584628e-01
5	 2	 95	 flanked	 rf	 4	 0.200000	 2.000000	 flanked_rf_freq_4_amplitude_0.2_rep_4_r_K_2.0_ampflank_0.425.png	 K	 r	 r	 n.a.	 5.486706e-01
5	 2	 96	 flanked	 rf	 4	 0.125000	 2.000000	 flanked_rf_freq_4_amplitude_0.125_rep_5_l_H_2.0_ampflank_0.425.png	 H	 l	 r	 n.a.	 4.505122e-01
5	 2	 97	 flanked	 rf	 4	 0.275000	 2.000000	 flanked_rf_freq_4_amplitude_0.275_rep_2_t_H_2.0_ampflank_0.425.png	 H	 t	 t	 n.a.	 7.248241e-01
5	 2	 98	 flanked	 rf	 4	 0.200000	 2.000000	 flanked_rf_freq_4_amplitude_0.2_rep_7_r_D_2.0_ampflank_0.425.png	 D	 r	 l	 n.a.	 8.136598e-01
5	 2	 99	 flanked	 rf	 4	 0.200000	 2.000000	 flanked_rf_freq_4_amplitude_0.2_rep_4_r_K_2.0_ampflank_0.425.png	 K	 r	 r	 n.a.	 4.061101e-01
5	 2	 100	 flanked	 rf	 4	 0.050000	 2.000000	 flanked_rf_freq_4_amplitude_0.05_rep_4_r_D_2.0_ampflank_0.425.png	 D	 r	 t	 n.a.	 4.587821e-01
5	 2	 101	 flanked	 rf	 4	 0.125000	 2.000000	 flanked_rf_freq_4_amplitude_0.125_rep_7_r_H_2.0_ampflank_0.425.png	 H	 r	 b	 n.a.	 7.927818e-01
5	 2	 102	 flanked	 rf	 4	 0.350000	 2.000000	 flanked_rf_freq_4_amplitude_0.35_rep_7_l_D_2.0_ampflank_0.425.png	 D	 l	 t	 n.a.	 4.720355e-01
5	 2	 103	 flanked	 rf	 4	 0.350000	 2.000000	 flanked_rf_freq_4_amplitude_0.35_rep_6_b_D_2.0_ampflank_0.425.png	 D	 b	 r	 n.a.	 7.760473e-01
5	 2	 104	 flanked	 rf	 4	 0.025000	 2.000000	 flanked_rf_freq_4_amplitude_0.025_rep_5_t_N_2.0_ampflank_0.425.png	 N	 t	 b	 n.a.	 1.097797e+00
5	 2	 105	 flanked	 rf	 4	 0.050000	 2.000000	 flanked_rf_freq_4_amplitude_0.05_rep_8_t_N_2.0_ampflank_0.425.png	 N	 t	 b	 n.a.	 1.225231e+00
5	 2	 106	 flanked	 rf	 4	 0.350000	 2.000000	 flanked_rf_freq_4_amplitude_0.35_rep_9_r_N_2.0_ampflank_0.425.png	 N	 r	 r	 n.a.	 3.857002e-01
5	 2	 107	 flanked	 rf	 4	 0.050000	 2.000000	 flanked_rf_freq_4_amplitude_0.05_rep_1_t_N_2.0_ampflank_0.425.png	 N	 t	 t	 n.a.	 4.848250e-01
5	 2	 108	 flanked	 rf	 4	 0.425000	 2.000000	 flanked_rf_freq_4_amplitude_0.425_rep_7_l_H_2.0_ampflank_0.425.png	 H	 l	 b	 n.a.	 7.156832e-01
5	 2	 109	 flanked	 rf	 4	 0.275000	 2.000000	 flanked_rf_freq_4_amplitude_0.275_rep_0_t_K_2.0_ampflank_0.425.png	 K	 t	 r	 n.a.	 9.191451e-01
5	 2	 110	 flanked	 rf	 4	 0.425000	 2.000000	 flanked_rf_freq_4_amplitude_0.425_rep_4_b_D_2.0_ampflank_0.425.png	 D	 b	 l	 n.a.	 1.059214e+00
5	 2	 111	 flanked	 rf	 4	 0.125000	 2.000000	 flanked_rf_freq_4_amplitude_0.125_rep_1_l_H_2.0_ampflank_0.425.png	 H	 l	 t	 n.a.	 6.864117e-01
5	 2	 112	 flanked	 rf	 4	 0.200000	 2.000000	 flanked_rf_freq_4_amplitude_0.2_rep_5_l_K_2.0_ampflank_0.425.png	 K	 l	 b	 n.a.	 1.264290e+00
5	 2	 113	 flanked	 rf	 4	 0.025000	 2.000000	 flanked_rf_freq_4_amplitude_0.025_rep_5_t_N_2.0_ampflank_0.425.png	 N	 t	 t	 n.a.	 1.340781e+00
5	 2	 114	 flanked	 rf	 4	 0.350000	 2.000000	 flanked_rf_freq_4_amplitude_0.35_rep_7_l_D_2.0_ampflank_0.425.png	 D	 l	 l	 n.a.	 8.736616e-01
5	 2	 115	 flanked	 rf	 4	 0.275000	 2.000000	 flanked_rf_freq_4_amplitude_0.275_rep_7_l_K_2.0_ampflank_0.425.png	 K	 l	 l	 n.a.	 6.315873e-01
5	 2	 116	 flanked	 rf	 4	 0.350000	 2.000000	 flanked_rf_freq_4_amplitude_0.35_rep_6_b_D_2.0_ampflank_0.425.png	 D	 b	 l	 n.a.	 8.338515e-01
5	 2	 117	 flanked	 rf	 4	 0.050000	 2.000000	 flanked_rf_freq_4_amplitude_0.05_rep_2_r_D_2.0_ampflank_0.425.png	 D	 r	 b	 n.a.	 1.131820e+00
5	 2	 118	 flanked	 rf	 4	 0.025000	 2.000000	 flanked_rf_freq_4_amplitude_0.025_rep_0_l_D_2.0_ampflank_0.425.png	 D	 l	 r	 n.a.	 6.569450e-01
5	 2	 119	 flanked	 rf	 4	 0.025000	 2.000000	 flanked_rf_freq_4_amplitude_0.025_rep_9_b_K_2.0_ampflank_0.425.png	 K	 b	 r	 n.a.	 9.984949e-01
5	 2	 120	 flanked	 rf	 4	 0.050000	 2.000000	 flanked_rf_freq_4_amplitude_0.05_rep_7_r_H_2.0_ampflank_0.425.png	 H	 r	 t	 n.a.	 5.348821e-01
5	 2	 121	 flanked	 rf	 4	 0.275000	 2.000000	 flanked_rf_freq_4_amplitude_0.275_rep_3_l_H_2.0_ampflank_0.425.png	 H	 l	 r	 n.a.	 1.052778e+00
5	 2	 122	 flanked	 rf	 4	 0.350000	 2.000000	 flanked_rf_freq_4_amplitude_0.35_rep_8_l_D_2.0_ampflank_0.425.png	 D	 l	 t	 n.a.	 5.683054e-01
5	 2	 123	 flanked	 rf	 4	 0.050000	 2.000000	 flanked_rf_freq_4_amplitude_0.05_rep_0_l_D_2.0_ampflank_0.425.png	 D	 l	 t	 n.a.	 5.079141e-01
5	 2	 124	 flanked	 rf	 4	 0.425000	 2.000000	 flanked_rf_freq_4_amplitude_0.425_rep_3_r_K_2.0_ampflank_0.425.png	 K	 r	 r	 n.a.	 6.451442e-01
5	 2	 125	 flanked	 rf	 4	 0.025000	 2.000000	 flanked_rf_freq_4_amplitude_0.025_rep_1_l_D_2.0_ampflank_0.425.png	 D	 l	 r	 n.a.	 9.716354e-01
5	 2	 126	 flanked	 rf	 4	 0.025000	 2.000000	 flanked_rf_freq_4_amplitude_0.025_rep_2_b_K_2.0_ampflank_0.425.png	 K	 b	 t	 n.a.	 4.703602e-01
5	 2	 127	 flanked	 rf	 4	 0.125000	 2.000000	 flanked_rf_freq_4_amplitude_0.125_rep_3_t_D_2.0_ampflank_0.425.png	 D	 t	 r	 n.a.	 5.803823e-01
5	 2	 128	 flanked	 rf	 4	 0.050000	 2.000000	 flanked_rf_freq_4_amplitude_0.05_rep_9_b_K_2.0_ampflank_0.425.png	 K	 b	 t	 n.a.	 4.776455e-01
5	 2	 129	 flanked	 rf	 4	 0.125000	 2.000000	 flanked_rf_freq_4_amplitude_0.125_rep_9_l_D_2.0_ampflank_0.425.png	 D	 l	 b	 n.a.	 6.284753e-01
5	 2	 130	 flanked	 rf	 4	 0.200000	 2.000000	 flanked_rf_freq_4_amplitude_0.2_rep_3_t_H_2.0_ampflank_0.425.png	 H	 t	 t	 n.a.	 6.591022e-01
5	 2	 131	 flanked	 rf	 4	 0.200000	 2.000000	 flanked_rf_freq_4_amplitude_0.2_rep_4_r_K_2.0_ampflank_0.425.png	 K	 r	 r	 n.a.	 5.368975e-01
5	 2	 132	 flanked	 rf	 4	 0.425000	 2.000000	 flanked_rf_freq_4_amplitude_0.425_rep_2_b_K_2.0_ampflank_0.425.png	 K	 b	 b	 n.a.	 5.320223e-01
5	 2	 133	 flanked	 rf	 4	 0.025000	 2.000000	 flanked_rf_freq_4_amplitude_0.025_rep_3_r_H_2.0_ampflank_0.425.png	 H	 r	 t	 n.a.	 4.798436e-01
5	 2	 134	 flanked	 rf	 4	 0.275000	 2.000000	 flanked_rf_freq_4_amplitude_0.275_rep_4_l_H_2.0_ampflank_0.425.png	 H	 l	 b	 n.a.	 1.037914e+00
5	 2	 135	 flanked	 rf	 4	 0.425000	 2.000000	 flanked_rf_freq_4_amplitude_0.425_rep_0_t_N_2.0_ampflank_0.425.png	 N	 t	 t	 n.a.	 4.800963e-01
5	 2	 136	 flanked	 rf	 4	 0.025000	 2.000000	 flanked_rf_freq_4_amplitude_0.025_rep_0_l_D_2.0_ampflank_0.425.png	 D	 l	 b	 n.a.	 9.586398e-01
5	 2	 137	 flanked	 rf	 4	 0.200000	 2.000000	 flanked_rf_freq_4_amplitude_0.2_rep_5_l_K_2.0_ampflank_0.425.png	 K	 l	 t	 n.a.	 4.613037e-01
5	 2	 138	 flanked	 rf	 4	 0.425000	 2.000000	 flanked_rf_freq_4_amplitude_0.425_rep_7_l_H_2.0_ampflank_0.425.png	 H	 l	 l	 n.a.	 6.400437e-01
5	 2	 139	 flanked	 rf	 4	 0.200000	 2.000000	 flanked_rf_freq_4_amplitude_0.2_rep_8_t_N_2.0_ampflank_0.425.png	 N	 t	 b	 n.a.	 8.892423e-01
5	 2	 140	 flanked	 rf	 4	 0.050000	 2.000000	 flanked_rf_freq_4_amplitude_0.05_rep_5_l_H_2.0_ampflank_0.425.png	 H	 l	 t	 n.a.	 9.047841e-01
5	 2	 141	 flanked	 rf	 4	 0.425000	 2.000000	 flanked_rf_freq_4_amplitude_0.425_rep_6_t_N_2.0_ampflank_0.425.png	 N	 t	 b	 n.a.	 7.873362e-01
5	 2	 142	 flanked	 rf	 4	 0.050000	 2.000000	 flanked_rf_freq_4_amplitude_0.05_rep_1_t_N_2.0_ampflank_0.425.png	 N	 t	 t	 n.a.	 6.143282e-01
5	 2	 143	 flanked	 rf	 4	 0.200000	 2.000000	 flanked_rf_freq_4_amplitude_0.2_rep_7_r_D_2.0_ampflank_0.425.png	 D	 r	 r	 n.a.	 9.315566e-01
5	 2	 144	 flanked	 rf	 4	 0.275000	 2.000000	 flanked_rf_freq_4_amplitude_0.275_rep_3_l_H_2.0_ampflank_0.425.png	 H	 l	 l	 n.a.	 6.143530e-01
5	 2	 145	 flanked	 rf	 4	 0.350000	 2.000000	 flanked_rf_freq_4_amplitude_0.35_rep_1_b_D_2.0_ampflank_0.425.png	 D	 b	 b	 n.a.	 9.292709e-01
5	 2	 146	 flanked	 rf	 4	 0.125000	 2.000000	 flanked_rf_freq_4_amplitude_0.125_rep_9_l_D_2.0_ampflank_0.425.png	 D	 l	 b	 n.a.	 6.998229e-01
5	 2	 147	 flanked	 rf	 4	 0.050000	 2.000000	 flanked_rf_freq_4_amplitude_0.05_rep_4_r_D_2.0_ampflank_0.425.png	 D	 r	 t	 n.a.	 4.893309e-01
5	 2	 148	 flanked	 rf	 4	 0.050000	 2.000000	 flanked_rf_freq_4_amplitude_0.05_rep_9_b_K_2.0_ampflank_0.425.png	 K	 b	 l	 n.a.	 1.234472e+00
5	 2	 149	 flanked	 rf	 4	 0.200000	 2.000000	 flanked_rf_freq_4_amplitude_0.2_rep_1_b_D_2.0_ampflank_0.425.png	 D	 b	 l	 n.a.	 7.435666e-01
5	 2	 150	 flanked	 rf	 4	 0.200000	 2.000000	 flanked_rf_freq_4_amplitude_0.2_rep_8_t_N_2.0_ampflank_0.425.png	 N	 t	 b	 n.a.	 7.239897e-01
5	 2	 151	 flanked	 rf	 4	 0.050000	 2.000000	 flanked_rf_freq_4_amplitude_0.05_rep_6_t_K_2.0_ampflank_0.425.png	 K	 t	 t	 n.a.	 4.946626e-01
5	 2	 152	 flanked	 rf	 4	 0.275000	 2.000000	 flanked_rf_freq_4_amplitude_0.275_rep_5_r_N_2.0_ampflank_0.425.png	 N	 r	 t	 n.a.	 8.006862e-01
5	 2	 153	 flanked	 rf	 4	 0.200000	 2.000000	 flanked_rf_freq_4_amplitude_0.2_rep_7_r_D_2.0_ampflank_0.425.png	 D	 r	 b	 n.a.	 4.891099e-01
5	 2	 154	 flanked	 rf	 4	 0.050000	 2.000000	 flanked_rf_freq_4_amplitude_0.05_rep_9_b_K_2.0_ampflank_0.425.png	 K	 b	 b	 n.a.	 8.562971e-01
5	 2	 155	 flanked	 rf	 4	 0.425000	 2.000000	 flanked_rf_freq_4_amplitude_0.425_rep_6_t_N_2.0_ampflank_0.425.png	 N	 t	 t	 n.a.	 5.284594e-01
5	 2	 156	 flanked	 rf	 4	 0.025000	 2.000000	 flanked_rf_freq_4_amplitude_0.025_rep_2_b_K_2.0_ampflank_0.425.png	 K	 b	 b	 n.a.	 6.022082e-01
5	 2	 157	 flanked	 rf	 4	 0.125000	 2.000000	 flanked_rf_freq_4_amplitude_0.125_rep_7_r_H_2.0_ampflank_0.425.png	 H	 r	 r	 n.a.	 9.763412e-01
5	 2	 158	 flanked	 rf	 4	 0.025000	 2.000000	 flanked_rf_freq_4_amplitude_0.025_rep_9_b_K_2.0_ampflank_0.425.png	 K	 b	 t	 n.a.	 5.939205e-01
5	 2	 159	 flanked	 rf	 4	 0.125000	 2.000000	 flanked_rf_freq_4_amplitude_0.125_rep_4_b_N_2.0_ampflank_0.425.png	 N	 b	 b	 n.a.	 1.237694e+00
5	 2	 160	 flanked	 rf	 4	 0.275000	 2.000000	 flanked_rf_freq_4_amplitude_0.275_rep_5_r_N_2.0_ampflank_0.425.png	 N	 r	 t	 n.a.	 8.223145e-01
5	 2	 161	 flanked	 rf	 4	 0.350000	 2.000000	 flanked_rf_freq_4_amplitude_0.35_rep_8_l_D_2.0_ampflank_0.425.png	 D	 l	 r	 n.a.	 7.727584e-01
5	 2	 162	 flanked	 rf	 4	 0.425000	 2.000000	 flanked_rf_freq_4_amplitude_0.425_rep_3_r_K_2.0_ampflank_0.425.png	 K	 r	 r	 n.a.	 6.105940e-01
5	 2	 163	 flanked	 rf	 4	 0.275000	 2.000000	 flanked_rf_freq_4_amplitude_0.275_rep_8_l_D_2.0_ampflank_0.425.png	 D	 l	 t	 n.a.	 5.470543e-01
5	 2	 164	 flanked	 rf	 4	 0.275000	 2.000000	 flanked_rf_freq_4_amplitude_0.275_rep_1_l_H_2.0_ampflank_0.425.png	 H	 l	 b	 n.a.	 4.681010e-01
5	 2	 165	 flanked	 rf	 4	 0.275000	 2.000000	 flanked_rf_freq_4_amplitude_0.275_rep_7_l_K_2.0_ampflank_0.425.png	 K	 l	 l	 n.a.	 6.719168e-01
5	 2	 166	 flanked	 rf	 4	 0.275000	 2.000000	 flanked_rf_freq_4_amplitude_0.275_rep_6_b_N_2.0_ampflank_0.425.png	 N	 b	 t	 n.a.	 7.820682e-01
5	 2	 167	 flanked	 rf	 4	 0.050000	 2.000000	 flanked_rf_freq_4_amplitude_0.05_rep_0_l_D_2.0_ampflank_0.425.png	 D	 l	 t	 n.a.	 8.501135e-01
5	 2	 168	 flanked	 rf	 4	 0.125000	 2.000000	 flanked_rf_freq_4_amplitude_0.125_rep_0_b_N_2.0_ampflank_0.425.png	 N	 b	 t	 n.a.	 6.213920e-01
5	 2	 169	 flanked	 rf	 4	 0.350000	 2.000000	 flanked_rf_freq_4_amplitude_0.35_rep_8_l_D_2.0_ampflank_0.425.png	 D	 l	 b	 n.a.	 7.994011e-01
5	 2	 170	 flanked	 rf	 4	 0.350000	 2.000000	 flanked_rf_freq_4_amplitude_0.35_rep_5_b_K_2.0_ampflank_0.425.png	 K	 b	 b	 n.a.	 8.619256e-01
5	 2	 171	 flanked	 rf	 4	 0.200000	 2.000000	 flanked_rf_freq_4_amplitude_0.2_rep_3_t_H_2.0_ampflank_0.425.png	 H	 t	 t	 n.a.	 5.942147e-01
5	 2	 172	 flanked	 rf	 4	 0.200000	 2.000000	 flanked_rf_freq_4_amplitude_0.2_rep_9_t_H_2.0_ampflank_0.425.png	 H	 t	 t	 n.a.	 5.226734e-01
5	 2	 173	 flanked	 rf	 4	 0.200000	 2.000000	 flanked_rf_freq_4_amplitude_0.2_rep_2_r_H_2.0_ampflank_0.425.png	 H	 r	 r	 n.a.	 7.040500e-01
5	 2	 174	 flanked	 rf	 4	 0.050000	 2.000000	 flanked_rf_freq_4_amplitude_0.05_rep_5_l_H_2.0_ampflank_0.425.png	 H	 l	 l	 n.a.	 1.167572e+00
5	 2	 175	 flanked	 rf	 4	 0.275000	 2.000000	 flanked_rf_freq_4_amplitude_0.275_rep_3_l_H_2.0_ampflank_0.425.png	 H	 l	 t	 n.a.	 6.279145e-01
5	 2	 176	 flanked	 rf	 4	 0.025000	 2.000000	 flanked_rf_freq_4_amplitude_0.025_rep_6_t_D_2.0_ampflank_0.425.png	 D	 t	 r	 n.a.	 7.794847e-01
5	 2	 177	 flanked	 rf	 4	 0.350000	 2.000000	 flanked_rf_freq_4_amplitude_0.35_rep_7_l_D_2.0_ampflank_0.425.png	 D	 l	 l	 n.a.	 9.104755e-01
5	 2	 178	 flanked	 rf	 4	 0.350000	 2.000000	 flanked_rf_freq_4_amplitude_0.35_rep_5_b_K_2.0_ampflank_0.425.png	 K	 b	 b	 n.a.	 5.550218e-01
5	 2	 179	 flanked	 rf	 4	 0.425000	 2.000000	 flanked_rf_freq_4_amplitude_0.425_rep_3_r_K_2.0_ampflank_0.425.png	 K	 r	 r	 n.a.	 5.853865e-01
5	 2	 180	 flanked	 rf	 4	 0.025000	 2.000000	 flanked_rf_freq_4_amplitude_0.025_rep_7_l_D_2.0_ampflank_0.425.png	 D	 l	 t	 n.a.	 6.198996e-01
5	 2	 181	 flanked	 rf	 4	 0.425000	 2.000000	 flanked_rf_freq_4_amplitude_0.425_rep_4_b_D_2.0_ampflank_0.425.png	 D	 b	 r	 n.a.	 9.019288e-01
5	 2	 182	 flanked	 rf	 4	 0.200000	 2.000000	 flanked_rf_freq_4_amplitude_0.2_rep_0_r_H_2.0_ampflank_0.425.png	 H	 r	 t	 n.a.	 4.623820e-01
5	 2	 183	 flanked	 rf	 4	 0.050000	 2.000000	 flanked_rf_freq_4_amplitude_0.05_rep_3_r_H_2.0_ampflank_0.425.png	 H	 r	 t	 n.a.	 7.099709e-01
5	 2	 184	 flanked	 rf	 4	 0.200000	 2.000000	 flanked_rf_freq_4_amplitude_0.2_rep_9_t_H_2.0_ampflank_0.425.png	 H	 t	 t	 n.a.	 5.513281e-01
5	 2	 185	 flanked	 rf	 4	 0.025000	 2.000000	 flanked_rf_freq_4_amplitude_0.025_rep_2_b_K_2.0_ampflank_0.425.png	 K	 b	 r	 n.a.	 7.550560e-01
5	 2	 186	 flanked	 rf	 4	 0.275000	 2.000000	 flanked_rf_freq_4_amplitude_0.275_rep_2_t_H_2.0_ampflank_0.425.png	 H	 t	 t	 n.a.	 4.693817e-01
5	 2	 187	 flanked	 rf	 4	 0.050000	 2.000000	 flanked_rf_freq_4_amplitude_0.05_rep_3_r_H_2.0_ampflank_0.425.png	 H	 r	 t	 n.a.	 1.129961e+00
5	 2	 188	 flanked	 rf	 4	 0.125000	 2.000000	 flanked_rf_freq_4_amplitude_0.125_rep_2_l_N_2.0_ampflank_0.425.png	 N	 l	 b	 n.a.	 7.843791e-01
5	 2	 189	 flanked	 rf	 4	 0.025000	 2.000000	 flanked_rf_freq_4_amplitude_0.025_rep_4_l_K_2.0_ampflank_0.425.png	 K	 l	 t	 n.a.	 1.112580e+00
5	 2	 190	 flanked	 rf	 4	 0.125000	 2.000000	 flanked_rf_freq_4_amplitude_0.125_rep_6_l_D_2.0_ampflank_0.425.png	 D	 l	 r	 n.a.	 7.737707e-01
5	 2	 191	 flanked	 rf	 4	 0.425000	 2.000000	 flanked_rf_freq_4_amplitude_0.425_rep_7_l_H_2.0_ampflank_0.425.png	 H	 l	 r	 n.a.	 1.344396e+00
5	 2	 192	 flanked	 rf	 4	 0.350000	 2.000000	 flanked_rf_freq_4_amplitude_0.35_rep_5_b_K_2.0_ampflank_0.425.png	 K	 b	 t	 n.a.	 3.654021e-01
5	 2	 193	 flanked	 rf	 4	 0.025000	 2.000000	 flanked_rf_freq_4_amplitude_0.025_rep_3_r_H_2.0_ampflank_0.425.png	 H	 r	 b	 n.a.	 8.012742e-01
5	 2	 194	 flanked	 rf	 4	 0.200000	 2.000000	 flanked_rf_freq_4_amplitude_0.2_rep_6_b_K_2.0_ampflank_0.425.png	 K	 b	 t	 n.a.	 5.757004e-01
5	 2	 195	 flanked	 rf	 4	 0.350000	 2.000000	 flanked_rf_freq_4_amplitude_0.35_rep_4_b_N_2.0_ampflank_0.425.png	 N	 b	 r	 n.a.	 4.378812e-01
5	 2	 196	 flanked	 rf	 4	 0.125000	 2.000000	 flanked_rf_freq_4_amplitude_0.125_rep_0_b_N_2.0_ampflank_0.425.png	 N	 b	 t	 n.a.	 6.999168e-01
5	 2	 197	 flanked	 rf	 4	 0.200000	 2.000000	 flanked_rf_freq_4_amplitude_0.2_rep_8_t_N_2.0_ampflank_0.425.png	 N	 t	 b	 n.a.	 8.801160e-01
5	 2	 198	 flanked	 rf	 4	 0.200000	 2.000000	 flanked_rf_freq_4_amplitude_0.2_rep_9_t_H_2.0_ampflank_0.425.png	 H	 t	 r	 n.a.	 7.014379e-01
5	 2	 199	 flanked	 rf	 4	 0.125000	 2.000000	 flanked_rf_freq_4_amplitude_0.125_rep_8_l_N_2.0_ampflank_0.425.png	 N	 l	 t	 n.a.	 7.726741e-01
5	 2	 200	 flanked	 rf	 4	 0.425000	 2.000000	 flanked_rf_freq_4_amplitude_0.425_rep_9_r_K_2.0_ampflank_0.425.png	 K	 r	 r	 n.a.	 3.902283e-01
5	 2	 201	 flanked	 rf	 4	 0.050000	 2.000000	 flanked_rf_freq_4_amplitude_0.05_rep_8_t_N_2.0_ampflank_0.425.png	 N	 t	 r	 n.a.	 8.259850e-01
5	 2	 202	 flanked	 rf	 4	 0.050000	 2.000000	 flanked_rf_freq_4_amplitude_0.05_rep_8_t_N_2.0_ampflank_0.425.png	 N	 t	 l	 n.a.	 1.261190e+00
5	 2	 203	 flanked	 rf	 4	 0.125000	 2.000000	 flanked_rf_freq_4_amplitude_0.125_rep_5_l_H_2.0_ampflank_0.425.png	 H	 l	 r	 n.a.	 4.920054e-01
5	 2	 204	 flanked	 rf	 4	 0.125000	 2.000000	 flanked_rf_freq_4_amplitude_0.125_rep_2_l_N_2.0_ampflank_0.425.png	 N	 l	 b	 n.a.	 4.681600e-01
5	 2	 205	 flanked	 rf	 4	 0.275000	 2.000000	 flanked_rf_freq_4_amplitude_0.275_rep_6_b_N_2.0_ampflank_0.425.png	 N	 b	 b	 n.a.	 4.024068e-01
5	 2	 206	 flanked	 rf	 4	 0.125000	 2.000000	 flanked_rf_freq_4_amplitude_0.125_rep_1_l_H_2.0_ampflank_0.425.png	 H	 l	 t	 n.a.	 1.312218e+00
5	 2	 207	 flanked	 rf	 4	 0.425000	 2.000000	 flanked_rf_freq_4_amplitude_0.425_rep_1_b_D_2.0_ampflank_0.425.png	 D	 b	 b	 n.a.	 5.119324e-01
5	 2	 208	 flanked	 rf	 4	 0.425000	 2.000000	 flanked_rf_freq_4_amplitude_0.425_rep_6_t_N_2.0_ampflank_0.425.png	 N	 t	 l	 n.a.	 1.258020e+00
5	 2	 209	 flanked	 rf	 4	 0.350000	 2.000000	 flanked_rf_freq_4_amplitude_0.35_rep_2_l_D_2.0_ampflank_0.425.png	 D	 l	 t	 n.a.	 6.136234e-01
5	 2	 210	 flanked	 rf	 4	 0.125000	 2.000000	 flanked_rf_freq_4_amplitude_0.125_rep_5_l_H_2.0_ampflank_0.425.png	 H	 l	 b	 n.a.	 5.064038e-01
