subject	 session	 trial	 flanked	 distortion	 freq	 amplitude	 spacing	 im_name	 targ_letter	 targ_pos	 response	 eyemovement	 RT
2	 1	 1	 flanked	 rf	 4	 0.025000	 2.000000	 flanked_rf_freq_4_amplitude_0.025_rep_5_t_N_2.0_ampflank_0.425.png	 N	 t	 b	 n.a.	 7.320185e-01
2	 1	 2	 flanked	 rf	 4	 0.275000	 2.000000	 flanked_rf_freq_4_amplitude_0.275_rep_3_l_H_2.0_ampflank_0.425.png	 H	 l	 r	 n.a.	 3.389008e-01
2	 1	 3	 flanked	 rf	 4	 0.350000	 2.000000	 flanked_rf_freq_4_amplitude_0.35_rep_9_r_N_2.0_ampflank_0.425.png	 N	 r	 t	 n.a.	 5.423402e-01
2	 1	 4	 flanked	 rf	 4	 0.350000	 2.000000	 flanked_rf_freq_4_amplitude_0.35_rep_2_l_D_2.0_ampflank_0.425.png	 D	 l	 l	 n.a.	 6.198047e-01
2	 1	 5	 flanked	 rf	 4	 0.200000	 2.000000	 flanked_rf_freq_4_amplitude_0.2_rep_4_r_K_2.0_ampflank_0.425.png	 K	 r	 r	 n.a.	 6.513447e-01
2	 1	 6	 flanked	 rf	 4	 0.025000	 2.000000	 flanked_rf_freq_4_amplitude_0.025_rep_4_l_K_2.0_ampflank_0.425.png	 K	 l	 t	 n.a.	 5.833865e-01
2	 1	 7	 flanked	 rf	 4	 0.350000	 2.000000	 flanked_rf_freq_4_amplitude_0.35_rep_4_b_N_2.0_ampflank_0.425.png	 N	 b	 b	 n.a.	 5.325818e-01
2	 1	 8	 flanked	 rf	 4	 0.350000	 2.000000	 flanked_rf_freq_4_amplitude_0.35_rep_3_t_H_2.0_ampflank_0.425.png	 H	 t	 t	 n.a.	 1.324948e+00
2	 1	 9	 flanked	 rf	 4	 0.050000	 2.000000	 flanked_rf_freq_4_amplitude_0.05_rep_7_r_H_2.0_ampflank_0.425.png	 H	 r	 r	 n.a.	 6.199363e-01
2	 1	 10	 flanked	 rf	 4	 0.275000	 2.000000	 flanked_rf_freq_4_amplitude_0.275_rep_3_l_H_2.0_ampflank_0.425.png	 H	 l	 b	 n.a.	 1.194307e+00
2	 1	 11	 flanked	 rf	 4	 0.350000	 2.000000	 flanked_rf_freq_4_amplitude_0.35_rep_3_t_H_2.0_ampflank_0.425.png	 H	 t	 t	 n.a.	 1.165022e+00
2	 1	 12	 flanked	 rf	 4	 0.025000	 2.000000	 flanked_rf_freq_4_amplitude_0.025_rep_6_t_D_2.0_ampflank_0.425.png	 D	 t	 t	 n.a.	 7.859711e-01
2	 1	 13	 flanked	 rf	 4	 0.425000	 2.000000	 flanked_rf_freq_4_amplitude_0.425_rep_2_b_K_2.0_ampflank_0.425.png	 K	 b	 l	 n.a.	 7.852642e-01
2	 1	 14	 flanked	 rf	 4	 0.200000	 2.000000	 flanked_rf_freq_4_amplitude_0.2_rep_6_b_K_2.0_ampflank_0.425.png	 K	 b	 t	 n.a.	 9.387535e-01
2	 1	 15	 flanked	 rf	 4	 0.425000	 2.000000	 flanked_rf_freq_4_amplitude_0.425_rep_3_r_K_2.0_ampflank_0.425.png	 K	 r	 b	 n.a.	 4.833023e-01
2	 1	 16	 flanked	 rf	 4	 0.050000	 2.000000	 flanked_rf_freq_4_amplitude_0.05_rep_3_r_H_2.0_ampflank_0.425.png	 H	 r	 l	 n.a.	 8.341119e-01
2	 1	 17	 flanked	 rf	 4	 0.025000	 2.000000	 flanked_rf_freq_4_amplitude_0.025_rep_5_t_N_2.0_ampflank_0.425.png	 N	 t	 b	 n.a.	 6.140573e-01
2	 1	 18	 flanked	 rf	 4	 0.125000	 2.000000	 flanked_rf_freq_4_amplitude_0.125_rep_9_l_D_2.0_ampflank_0.425.png	 D	 l	 l	 n.a.	 5.039601e-01
2	 1	 19	 flanked	 rf	 4	 0.275000	 2.000000	 flanked_rf_freq_4_amplitude_0.275_rep_8_l_D_2.0_ampflank_0.425.png	 D	 l	 l	 n.a.	 6.474906e-01
2	 1	 20	 flanked	 rf	 4	 0.050000	 2.000000	 flanked_rf_freq_4_amplitude_0.05_rep_2_r_D_2.0_ampflank_0.425.png	 D	 r	 r	 n.a.	 5.281976e-01
2	 1	 21	 flanked	 rf	 4	 0.350000	 2.000000	 flanked_rf_freq_4_amplitude_0.35_rep_0_t_K_2.0_ampflank_0.425.png	 K	 t	 b	 n.a.	 5.398995e-01
2	 1	 22	 flanked	 rf	 4	 0.350000	 2.000000	 flanked_rf_freq_4_amplitude_0.35_rep_9_r_N_2.0_ampflank_0.425.png	 N	 r	 t	 n.a.	 7.219324e-01
2	 1	 23	 flanked	 rf	 4	 0.050000	 2.000000	 flanked_rf_freq_4_amplitude_0.05_rep_4_r_D_2.0_ampflank_0.425.png	 D	 r	 r	 n.a.	 5.654123e-01
2	 1	 24	 flanked	 rf	 4	 0.125000	 2.000000	 flanked_rf_freq_4_amplitude_0.125_rep_2_l_N_2.0_ampflank_0.425.png	 N	 l	 l	 n.a.	 1.011886e+00
2	 1	 25	 flanked	 rf	 4	 0.350000	 2.000000	 flanked_rf_freq_4_amplitude_0.35_rep_1_b_D_2.0_ampflank_0.425.png	 D	 b	 b	 n.a.	 8.710345e-01
2	 1	 26	 flanked	 rf	 4	 0.025000	 2.000000	 flanked_rf_freq_4_amplitude_0.025_rep_7_l_D_2.0_ampflank_0.425.png	 D	 l	 l	 n.a.	 5.036179e-01
2	 1	 27	 flanked	 rf	 4	 0.025000	 2.000000	 flanked_rf_freq_4_amplitude_0.025_rep_0_l_D_2.0_ampflank_0.425.png	 D	 l	 l	 n.a.	 7.177539e-01
2	 1	 28	 flanked	 rf	 4	 0.350000	 2.000000	 flanked_rf_freq_4_amplitude_0.35_rep_6_b_D_2.0_ampflank_0.425.png	 D	 b	 t	 n.a.	 1.155196e+00
2	 1	 29	 flanked	 rf	 4	 0.050000	 2.000000	 flanked_rf_freq_4_amplitude_0.05_rep_5_l_H_2.0_ampflank_0.425.png	 H	 l	 l	 n.a.	 6.046201e-01
2	 1	 30	 flanked	 rf	 4	 0.350000	 2.000000	 flanked_rf_freq_4_amplitude_0.35_rep_0_t_K_2.0_ampflank_0.425.png	 K	 t	 b	 n.a.	 5.439106e-01
2	 1	 31	 flanked	 rf	 4	 0.275000	 2.000000	 flanked_rf_freq_4_amplitude_0.275_rep_6_b_N_2.0_ampflank_0.425.png	 N	 b	 l	 n.a.	 4.751226e-01
2	 1	 32	 flanked	 rf	 4	 0.200000	 2.000000	 flanked_rf_freq_4_amplitude_0.2_rep_5_l_K_2.0_ampflank_0.425.png	 K	 l	 b	 n.a.	 6.989424e-01
2	 1	 33	 flanked	 rf	 4	 0.125000	 2.000000	 flanked_rf_freq_4_amplitude_0.125_rep_8_l_N_2.0_ampflank_0.425.png	 N	 l	 b	 n.a.	 8.995842e-01
2	 1	 34	 flanked	 rf	 4	 0.050000	 2.000000	 flanked_rf_freq_4_amplitude_0.05_rep_6_t_K_2.0_ampflank_0.425.png	 K	 t	 l	 n.a.	 5.196816e-01
2	 1	 35	 flanked	 rf	 4	 0.425000	 2.000000	 flanked_rf_freq_4_amplitude_0.425_rep_3_r_K_2.0_ampflank_0.425.png	 K	 r	 l	 n.a.	 5.264417e-01
2	 1	 36	 flanked	 rf	 4	 0.025000	 2.000000	 flanked_rf_freq_4_amplitude_0.025_rep_4_l_K_2.0_ampflank_0.425.png	 K	 l	 b	 n.a.	 6.125109e-01
2	 1	 37	 flanked	 rf	 4	 0.275000	 2.000000	 flanked_rf_freq_4_amplitude_0.275_rep_0_t_K_2.0_ampflank_0.425.png	 K	 t	 r	 n.a.	 4.993606e-01
2	 1	 38	 flanked	 rf	 4	 0.200000	 2.000000	 flanked_rf_freq_4_amplitude_0.2_rep_0_r_H_2.0_ampflank_0.425.png	 H	 r	 t	 n.a.	 6.654946e-01
2	 1	 39	 flanked	 rf	 4	 0.350000	 2.000000	 flanked_rf_freq_4_amplitude_0.35_rep_0_t_K_2.0_ampflank_0.425.png	 K	 t	 l	 n.a.	 9.532824e-01
2	 1	 40	 flanked	 rf	 4	 0.125000	 2.000000	 flanked_rf_freq_4_amplitude_0.125_rep_0_b_N_2.0_ampflank_0.425.png	 N	 b	 t	 n.a.	 5.749772e-01
2	 1	 41	 flanked	 rf	 4	 0.425000	 2.000000	 flanked_rf_freq_4_amplitude_0.425_rep_0_t_N_2.0_ampflank_0.425.png	 N	 t	 b	 n.a.	 9.517591e-01
2	 1	 42	 flanked	 rf	 4	 0.275000	 2.000000	 flanked_rf_freq_4_amplitude_0.275_rep_8_l_D_2.0_ampflank_0.425.png	 D	 l	 t	 n.a.	 5.933534e-01
2	 1	 43	 flanked	 rf	 4	 0.125000	 2.000000	 flanked_rf_freq_4_amplitude_0.125_rep_3_t_D_2.0_ampflank_0.425.png	 D	 t	 t	 n.a.	 5.209098e-01
2	 1	 44	 flanked	 rf	 4	 0.125000	 2.000000	 flanked_rf_freq_4_amplitude_0.125_rep_0_b_N_2.0_ampflank_0.425.png	 N	 b	 b	 n.a.	 4.535822e-01
2	 1	 45	 flanked	 rf	 4	 0.125000	 2.000000	 flanked_rf_freq_4_amplitude_0.125_rep_9_l_D_2.0_ampflank_0.425.png	 D	 l	 t	 n.a.	 5.958997e-01
2	 1	 46	 flanked	 rf	 4	 0.200000	 2.000000	 flanked_rf_freq_4_amplitude_0.2_rep_7_r_D_2.0_ampflank_0.425.png	 D	 r	 t	 n.a.	 5.210221e-01
2	 1	 47	 flanked	 rf	 4	 0.275000	 2.000000	 flanked_rf_freq_4_amplitude_0.275_rep_9_b_N_2.0_ampflank_0.425.png	 N	 b	 l	 n.a.	 9.563074e-01
2	 1	 48	 flanked	 rf	 4	 0.275000	 2.000000	 flanked_rf_freq_4_amplitude_0.275_rep_8_l_D_2.0_ampflank_0.425.png	 D	 l	 l	 n.a.	 5.418815e-01
2	 1	 49	 flanked	 rf	 4	 0.125000	 2.000000	 flanked_rf_freq_4_amplitude_0.125_rep_3_t_D_2.0_ampflank_0.425.png	 D	 t	 t	 n.a.	 5.474696e-01
2	 1	 50	 flanked	 rf	 4	 0.050000	 2.000000	 flanked_rf_freq_4_amplitude_0.05_rep_7_r_H_2.0_ampflank_0.425.png	 H	 r	 t	 n.a.	 5.629730e-01
2	 1	 51	 flanked	 rf	 4	 0.425000	 2.000000	 flanked_rf_freq_4_amplitude_0.425_rep_8_b_D_2.0_ampflank_0.425.png	 D	 b	 b	 n.a.	 5.338135e-01
2	 1	 52	 flanked	 rf	 4	 0.050000	 2.000000	 flanked_rf_freq_4_amplitude_0.05_rep_7_r_H_2.0_ampflank_0.425.png	 H	 r	 r	 n.a.	 4.415065e-01
2	 1	 53	 flanked	 rf	 4	 0.125000	 2.000000	 flanked_rf_freq_4_amplitude_0.125_rep_6_l_D_2.0_ampflank_0.425.png	 D	 l	 t	 n.a.	 5.393767e-01
2	 1	 54	 flanked	 rf	 4	 0.425000	 2.000000	 flanked_rf_freq_4_amplitude_0.425_rep_4_b_D_2.0_ampflank_0.425.png	 D	 b	 b	 n.a.	 3.230741e-01
2	 1	 55	 flanked	 rf	 4	 0.050000	 2.000000	 flanked_rf_freq_4_amplitude_0.05_rep_9_b_K_2.0_ampflank_0.425.png	 K	 b	 b	 n.a.	 4.191198e-01
2	 1	 56	 flanked	 rf	 4	 0.200000	 2.000000	 flanked_rf_freq_4_amplitude_0.2_rep_9_t_H_2.0_ampflank_0.425.png	 H	 t	 t	 n.a.	 3.929176e-01
2	 1	 57	 flanked	 rf	 4	 0.200000	 2.000000	 flanked_rf_freq_4_amplitude_0.2_rep_9_t_H_2.0_ampflank_0.425.png	 H	 t	 t	 n.a.	 4.111357e-01
2	 1	 58	 flanked	 rf	 4	 0.275000	 2.000000	 flanked_rf_freq_4_amplitude_0.275_rep_6_b_N_2.0_ampflank_0.425.png	 N	 b	 b	 n.a.	 6.368569e-01
2	 1	 59	 flanked	 rf	 4	 0.275000	 2.000000	 flanked_rf_freq_4_amplitude_0.275_rep_5_r_N_2.0_ampflank_0.425.png	 N	 r	 t	 n.a.	 3.963920e-01
2	 1	 60	 flanked	 rf	 4	 0.050000	 2.000000	 flanked_rf_freq_4_amplitude_0.05_rep_4_r_D_2.0_ampflank_0.425.png	 D	 r	 t	 n.a.	 3.867953e-01
2	 1	 61	 flanked	 rf	 4	 0.125000	 2.000000	 flanked_rf_freq_4_amplitude_0.125_rep_3_t_D_2.0_ampflank_0.425.png	 D	 t	 t	 n.a.	 4.615292e-01
2	 1	 62	 flanked	 rf	 4	 0.200000	 2.000000	 flanked_rf_freq_4_amplitude_0.2_rep_2_r_H_2.0_ampflank_0.425.png	 H	 r	 t	 n.a.	 4.380740e-01
2	 1	 63	 flanked	 rf	 4	 0.025000	 2.000000	 flanked_rf_freq_4_amplitude_0.025_rep_4_l_K_2.0_ampflank_0.425.png	 K	 l	 b	 n.a.	 8.267929e-01
2	 1	 64	 flanked	 rf	 4	 0.025000	 2.000000	 flanked_rf_freq_4_amplitude_0.025_rep_5_t_N_2.0_ampflank_0.425.png	 N	 t	 l	 n.a.	 7.310738e-01
2	 1	 65	 flanked	 rf	 4	 0.025000	 2.000000	 flanked_rf_freq_4_amplitude_0.025_rep_9_b_K_2.0_ampflank_0.425.png	 K	 b	 b	 n.a.	 5.394332e-01
2	 1	 66	 flanked	 rf	 4	 0.200000	 2.000000	 flanked_rf_freq_4_amplitude_0.2_rep_3_t_H_2.0_ampflank_0.425.png	 H	 t	 t	 n.a.	 4.220939e-01
2	 1	 67	 flanked	 rf	 4	 0.425000	 2.000000	 flanked_rf_freq_4_amplitude_0.425_rep_6_t_N_2.0_ampflank_0.425.png	 N	 t	 b	 n.a.	 3.948764e-01
2	 1	 68	 flanked	 rf	 4	 0.275000	 2.000000	 flanked_rf_freq_4_amplitude_0.275_rep_0_t_K_2.0_ampflank_0.425.png	 K	 t	 t	 n.a.	 4.141981e-01
2	 1	 69	 flanked	 rf	 4	 0.425000	 2.000000	 flanked_rf_freq_4_amplitude_0.425_rep_4_b_D_2.0_ampflank_0.425.png	 D	 b	 b	 n.a.	 4.292606e-01
2	 1	 70	 flanked	 rf	 4	 0.050000	 2.000000	 flanked_rf_freq_4_amplitude_0.05_rep_5_l_H_2.0_ampflank_0.425.png	 H	 l	 b	 n.a.	 9.202721e-01
2	 1	 71	 flanked	 rf	 4	 0.050000	 2.000000	 flanked_rf_freq_4_amplitude_0.05_rep_6_t_K_2.0_ampflank_0.425.png	 K	 t	 l	 n.a.	 6.299287e-01
2	 1	 72	 flanked	 rf	 4	 0.025000	 2.000000	 flanked_rf_freq_4_amplitude_0.025_rep_2_b_K_2.0_ampflank_0.425.png	 K	 b	 b	 n.a.	 5.098915e-01
2	 1	 73	 flanked	 rf	 4	 0.275000	 2.000000	 flanked_rf_freq_4_amplitude_0.275_rep_7_l_K_2.0_ampflank_0.425.png	 K	 l	 t	 n.a.	 5.580510e-01
2	 1	 74	 flanked	 rf	 4	 0.275000	 2.000000	 flanked_rf_freq_4_amplitude_0.275_rep_1_l_H_2.0_ampflank_0.425.png	 H	 l	 b	 n.a.	 4.667458e-01
2	 1	 75	 flanked	 rf	 4	 0.200000	 2.000000	 flanked_rf_freq_4_amplitude_0.2_rep_6_b_K_2.0_ampflank_0.425.png	 K	 b	 b	 n.a.	 6.572205e-01
2	 1	 76	 flanked	 rf	 4	 0.050000	 2.000000	 flanked_rf_freq_4_amplitude_0.05_rep_8_t_N_2.0_ampflank_0.425.png	 N	 t	 l	 n.a.	 7.154896e-01
2	 1	 77	 flanked	 rf	 4	 0.350000	 2.000000	 flanked_rf_freq_4_amplitude_0.35_rep_3_t_H_2.0_ampflank_0.425.png	 H	 t	 b	 n.a.	 3.810467e-01
2	 1	 78	 flanked	 rf	 4	 0.025000	 2.000000	 flanked_rf_freq_4_amplitude_0.025_rep_9_b_K_2.0_ampflank_0.425.png	 K	 b	 b	 n.a.	 5.744874e-01
2	 1	 79	 flanked	 rf	 4	 0.275000	 2.000000	 flanked_rf_freq_4_amplitude_0.275_rep_3_l_H_2.0_ampflank_0.425.png	 H	 l	 t	 n.a.	 4.277547e-01
2	 1	 80	 flanked	 rf	 4	 0.275000	 2.000000	 flanked_rf_freq_4_amplitude_0.275_rep_6_b_N_2.0_ampflank_0.425.png	 N	 b	 b	 n.a.	 4.325048e-01
2	 1	 81	 flanked	 rf	 4	 0.425000	 2.000000	 flanked_rf_freq_4_amplitude_0.425_rep_8_b_D_2.0_ampflank_0.425.png	 D	 b	 b	 n.a.	 9.295530e-01
2	 1	 82	 flanked	 rf	 4	 0.050000	 2.000000	 flanked_rf_freq_4_amplitude_0.05_rep_2_r_D_2.0_ampflank_0.425.png	 D	 r	 l	 n.a.	 7.364188e-01
2	 1	 83	 flanked	 rf	 4	 0.425000	 2.000000	 flanked_rf_freq_4_amplitude_0.425_rep_1_b_D_2.0_ampflank_0.425.png	 D	 b	 b	 n.a.	 3.530035e-01
2	 1	 84	 flanked	 rf	 4	 0.025000	 2.000000	 flanked_rf_freq_4_amplitude_0.025_rep_8_t_K_2.0_ampflank_0.425.png	 K	 t	 b	 n.a.	 5.941506e-01
2	 1	 85	 flanked	 rf	 4	 0.200000	 2.000000	 flanked_rf_freq_4_amplitude_0.2_rep_1_b_D_2.0_ampflank_0.425.png	 D	 b	 l	 n.a.	 5.463670e-01
2	 1	 86	 flanked	 rf	 4	 0.200000	 2.000000	 flanked_rf_freq_4_amplitude_0.2_rep_8_t_N_2.0_ampflank_0.425.png	 N	 t	 t	 n.a.	 6.202349e-01
2	 1	 87	 flanked	 rf	 4	 0.200000	 2.000000	 flanked_rf_freq_4_amplitude_0.2_rep_6_b_K_2.0_ampflank_0.425.png	 K	 b	 b	 n.a.	 3.668139e-01
2	 1	 88	 flanked	 rf	 4	 0.125000	 2.000000	 flanked_rf_freq_4_amplitude_0.125_rep_1_l_H_2.0_ampflank_0.425.png	 H	 l	 t	 n.a.	 6.403861e-01
2	 1	 89	 flanked	 rf	 4	 0.200000	 2.000000	 flanked_rf_freq_4_amplitude_0.2_rep_8_t_N_2.0_ampflank_0.425.png	 N	 t	 b	 n.a.	 4.349317e-01
2	 1	 90	 flanked	 rf	 4	 0.125000	 2.000000	 flanked_rf_freq_4_amplitude_0.125_rep_0_b_N_2.0_ampflank_0.425.png	 N	 b	 b	 n.a.	 8.954684e-01
2	 1	 91	 flanked	 rf	 4	 0.275000	 2.000000	 flanked_rf_freq_4_amplitude_0.275_rep_0_t_K_2.0_ampflank_0.425.png	 K	 t	 t	 n.a.	 5.518425e-01
2	 1	 92	 flanked	 rf	 4	 0.050000	 2.000000	 flanked_rf_freq_4_amplitude_0.05_rep_0_l_D_2.0_ampflank_0.425.png	 D	 l	 b	 n.a.	 5.534769e-01
2	 1	 93	 flanked	 rf	 4	 0.125000	 2.000000	 flanked_rf_freq_4_amplitude_0.125_rep_5_l_H_2.0_ampflank_0.425.png	 H	 l	 l	 n.a.	 4.511314e-01
2	 1	 94	 flanked	 rf	 4	 0.425000	 2.000000	 flanked_rf_freq_4_amplitude_0.425_rep_2_b_K_2.0_ampflank_0.425.png	 K	 b	 b	 n.a.	 4.139663e-01
2	 1	 95	 flanked	 rf	 4	 0.025000	 2.000000	 flanked_rf_freq_4_amplitude_0.025_rep_6_t_D_2.0_ampflank_0.425.png	 D	 t	 l	 n.a.	 6.884289e-01
2	 1	 96	 flanked	 rf	 4	 0.200000	 2.000000	 flanked_rf_freq_4_amplitude_0.2_rep_3_t_H_2.0_ampflank_0.425.png	 H	 t	 b	 n.a.	 5.093530e-01
2	 1	 97	 flanked	 rf	 4	 0.350000	 2.000000	 flanked_rf_freq_4_amplitude_0.35_rep_7_l_D_2.0_ampflank_0.425.png	 D	 l	 l	 n.a.	 4.221453e-01
2	 1	 98	 flanked	 rf	 4	 0.200000	 2.000000	 flanked_rf_freq_4_amplitude_0.2_rep_5_l_K_2.0_ampflank_0.425.png	 K	 l	 l	 n.a.	 6.121685e-01
2	 1	 99	 flanked	 rf	 4	 0.425000	 2.000000	 flanked_rf_freq_4_amplitude_0.425_rep_1_b_D_2.0_ampflank_0.425.png	 D	 b	 b	 n.a.	 3.475696e-01
2	 1	 100	 flanked	 rf	 4	 0.350000	 2.000000	 flanked_rf_freq_4_amplitude_0.35_rep_8_l_D_2.0_ampflank_0.425.png	 D	 l	 l	 n.a.	 4.978781e-01
2	 1	 101	 flanked	 rf	 4	 0.350000	 2.000000	 flanked_rf_freq_4_amplitude_0.35_rep_5_b_K_2.0_ampflank_0.425.png	 K	 b	 b	 n.a.	 6.204544e-01
2	 1	 102	 flanked	 rf	 4	 0.025000	 2.000000	 flanked_rf_freq_4_amplitude_0.025_rep_0_l_D_2.0_ampflank_0.425.png	 D	 l	 l	 n.a.	 6.181649e-01
2	 1	 103	 flanked	 rf	 4	 0.125000	 2.000000	 flanked_rf_freq_4_amplitude_0.125_rep_9_l_D_2.0_ampflank_0.425.png	 D	 l	 t	 n.a.	 4.996415e-01
2	 1	 104	 flanked	 rf	 4	 0.275000	 2.000000	 flanked_rf_freq_4_amplitude_0.275_rep_7_l_K_2.0_ampflank_0.425.png	 K	 l	 t	 n.a.	 4.419742e-01
2	 1	 105	 flanked	 rf	 4	 0.350000	 2.000000	 flanked_rf_freq_4_amplitude_0.35_rep_8_l_D_2.0_ampflank_0.425.png	 D	 l	 l	 n.a.	 4.179735e-01
2	 1	 106	 flanked	 rf	 4	 0.050000	 2.000000	 flanked_rf_freq_4_amplitude_0.05_rep_5_l_H_2.0_ampflank_0.425.png	 H	 l	 l	 n.a.	 8.015149e-01
2	 1	 107	 flanked	 rf	 4	 0.050000	 2.000000	 flanked_rf_freq_4_amplitude_0.05_rep_0_l_D_2.0_ampflank_0.425.png	 D	 l	 t	 n.a.	 7.551934e-01
2	 1	 108	 flanked	 rf	 4	 0.200000	 2.000000	 flanked_rf_freq_4_amplitude_0.2_rep_8_t_N_2.0_ampflank_0.425.png	 N	 t	 b	 n.a.	 4.976868e-01
2	 1	 109	 flanked	 rf	 4	 0.275000	 2.000000	 flanked_rf_freq_4_amplitude_0.275_rep_2_t_H_2.0_ampflank_0.425.png	 H	 t	 b	 n.a.	 8.307812e-01
2	 1	 110	 flanked	 rf	 4	 0.125000	 2.000000	 flanked_rf_freq_4_amplitude_0.125_rep_6_l_D_2.0_ampflank_0.425.png	 D	 l	 r	 n.a.	 4.098797e-01
2	 1	 111	 flanked	 rf	 4	 0.125000	 2.000000	 flanked_rf_freq_4_amplitude_0.125_rep_5_l_H_2.0_ampflank_0.425.png	 H	 l	 b	 n.a.	 5.918394e-01
2	 1	 112	 flanked	 rf	 4	 0.050000	 2.000000	 flanked_rf_freq_4_amplitude_0.05_rep_8_t_N_2.0_ampflank_0.425.png	 N	 t	 l	 n.a.	 4.098384e-01
2	 1	 113	 flanked	 rf	 4	 0.025000	 2.000000	 flanked_rf_freq_4_amplitude_0.025_rep_7_l_D_2.0_ampflank_0.425.png	 D	 l	 t	 n.a.	 5.486642e-01
2	 1	 114	 flanked	 rf	 4	 0.025000	 2.000000	 flanked_rf_freq_4_amplitude_0.025_rep_8_t_K_2.0_ampflank_0.425.png	 K	 t	 b	 n.a.	 5.292649e-01
2	 1	 115	 flanked	 rf	 4	 0.050000	 2.000000	 flanked_rf_freq_4_amplitude_0.05_rep_6_t_K_2.0_ampflank_0.425.png	 K	 t	 t	 n.a.	 4.896780e-01
2	 1	 116	 flanked	 rf	 4	 0.025000	 2.000000	 flanked_rf_freq_4_amplitude_0.025_rep_6_t_D_2.0_ampflank_0.425.png	 D	 t	 t	 n.a.	 5.397790e-01
2	 1	 117	 flanked	 rf	 4	 0.025000	 2.000000	 flanked_rf_freq_4_amplitude_0.025_rep_1_l_D_2.0_ampflank_0.425.png	 D	 l	 b	 n.a.	 3.949206e-01
2	 1	 118	 flanked	 rf	 4	 0.125000	 2.000000	 flanked_rf_freq_4_amplitude_0.125_rep_8_l_N_2.0_ampflank_0.425.png	 N	 l	 l	 n.a.	 4.268545e-01
2	 1	 119	 flanked	 rf	 4	 0.025000	 2.000000	 flanked_rf_freq_4_amplitude_0.025_rep_0_l_D_2.0_ampflank_0.425.png	 D	 l	 b	 n.a.	 5.163998e-01
2	 1	 120	 flanked	 rf	 4	 0.350000	 2.000000	 flanked_rf_freq_4_amplitude_0.35_rep_6_b_D_2.0_ampflank_0.425.png	 D	 b	 b	 n.a.	 5.359081e-01
2	 1	 121	 flanked	 rf	 4	 0.025000	 2.000000	 flanked_rf_freq_4_amplitude_0.025_rep_8_t_K_2.0_ampflank_0.425.png	 K	 t	 b	 n.a.	 5.226392e-01
2	 1	 122	 flanked	 rf	 4	 0.200000	 2.000000	 flanked_rf_freq_4_amplitude_0.2_rep_4_r_K_2.0_ampflank_0.425.png	 K	 r	 t	 n.a.	 4.943368e-01
2	 1	 123	 flanked	 rf	 4	 0.050000	 2.000000	 flanked_rf_freq_4_amplitude_0.05_rep_1_t_N_2.0_ampflank_0.425.png	 N	 t	 r	 n.a.	 4.080163e-01
2	 1	 124	 flanked	 rf	 4	 0.125000	 2.000000	 flanked_rf_freq_4_amplitude_0.125_rep_2_l_N_2.0_ampflank_0.425.png	 N	 l	 b	 n.a.	 2.870980e-01
2	 1	 125	 flanked	 rf	 4	 0.025000	 2.000000	 flanked_rf_freq_4_amplitude_0.025_rep_1_l_D_2.0_ampflank_0.425.png	 D	 l	 b	 n.a.	 5.125578e-01
2	 1	 126	 flanked	 rf	 4	 0.350000	 2.000000	 flanked_rf_freq_4_amplitude_0.35_rep_9_r_N_2.0_ampflank_0.425.png	 N	 r	 r	 n.a.	 4.785643e-01
2	 1	 127	 flanked	 rf	 4	 0.350000	 2.000000	 flanked_rf_freq_4_amplitude_0.35_rep_8_l_D_2.0_ampflank_0.425.png	 D	 l	 l	 n.a.	 4.978689e-01
2	 1	 128	 flanked	 rf	 4	 0.350000	 2.000000	 flanked_rf_freq_4_amplitude_0.35_rep_6_b_D_2.0_ampflank_0.425.png	 D	 b	 b	 n.a.	 4.962120e-01
2	 1	 129	 flanked	 rf	 4	 0.050000	 2.000000	 flanked_rf_freq_4_amplitude_0.05_rep_3_r_H_2.0_ampflank_0.425.png	 H	 r	 t	 n.a.	 6.805385e-01
2	 1	 130	 flanked	 rf	 4	 0.050000	 2.000000	 flanked_rf_freq_4_amplitude_0.05_rep_3_r_H_2.0_ampflank_0.425.png	 H	 r	 b	 n.a.	 5.953757e-01
2	 1	 131	 flanked	 rf	 4	 0.350000	 2.000000	 flanked_rf_freq_4_amplitude_0.35_rep_2_l_D_2.0_ampflank_0.425.png	 D	 l	 t	 n.a.	 6.547120e-01
2	 1	 132	 flanked	 rf	 4	 0.200000	 2.000000	 flanked_rf_freq_4_amplitude_0.2_rep_2_r_H_2.0_ampflank_0.425.png	 H	 r	 r	 n.a.	 9.631907e-01
2	 1	 133	 flanked	 rf	 4	 0.025000	 2.000000	 flanked_rf_freq_4_amplitude_0.025_rep_3_r_H_2.0_ampflank_0.425.png	 H	 r	 b	 n.a.	 7.804250e-01
2	 1	 134	 flanked	 rf	 4	 0.275000	 2.000000	 flanked_rf_freq_4_amplitude_0.275_rep_2_t_H_2.0_ampflank_0.425.png	 H	 t	 t	 n.a.	 5.302738e-01
2	 1	 135	 flanked	 rf	 4	 0.275000	 2.000000	 flanked_rf_freq_4_amplitude_0.275_rep_9_b_N_2.0_ampflank_0.425.png	 N	 b	 b	 n.a.	 4.591817e-01
2	 1	 136	 flanked	 rf	 4	 0.275000	 2.000000	 flanked_rf_freq_4_amplitude_0.275_rep_1_l_H_2.0_ampflank_0.425.png	 H	 l	 b	 n.a.	 5.249213e-01
2	 1	 137	 flanked	 rf	 4	 0.425000	 2.000000	 flanked_rf_freq_4_amplitude_0.425_rep_5_r_D_2.0_ampflank_0.425.png	 D	 r	 l	 n.a.	 4.802352e-01
2	 1	 138	 flanked	 rf	 4	 0.125000	 2.000000	 flanked_rf_freq_4_amplitude_0.125_rep_1_l_H_2.0_ampflank_0.425.png	 H	 l	 t	 n.a.	 8.731774e-01
2	 1	 139	 flanked	 rf	 4	 0.125000	 2.000000	 flanked_rf_freq_4_amplitude_0.125_rep_7_r_H_2.0_ampflank_0.425.png	 H	 r	 r	 n.a.	 4.130062e-01
2	 1	 140	 flanked	 rf	 4	 0.200000	 2.000000	 flanked_rf_freq_4_amplitude_0.2_rep_1_b_D_2.0_ampflank_0.425.png	 D	 b	 r	 n.a.	 5.793191e-01
2	 1	 141	 flanked	 rf	 4	 0.425000	 2.000000	 flanked_rf_freq_4_amplitude_0.425_rep_1_b_D_2.0_ampflank_0.425.png	 D	 b	 b	 n.a.	 7.231998e-01
2	 1	 142	 flanked	 rf	 4	 0.275000	 2.000000	 flanked_rf_freq_4_amplitude_0.275_rep_7_l_K_2.0_ampflank_0.425.png	 K	 l	 t	 n.a.	 8.665820e-01
2	 1	 143	 flanked	 rf	 4	 0.275000	 2.000000	 flanked_rf_freq_4_amplitude_0.275_rep_1_l_H_2.0_ampflank_0.425.png	 H	 l	 l	 n.a.	 4.109910e-01
2	 1	 144	 flanked	 rf	 4	 0.425000	 2.000000	 flanked_rf_freq_4_amplitude_0.425_rep_7_l_H_2.0_ampflank_0.425.png	 H	 l	 l	 n.a.	 4.171264e-01
2	 1	 145	 flanked	 rf	 4	 0.425000	 2.000000	 flanked_rf_freq_4_amplitude_0.425_rep_8_b_D_2.0_ampflank_0.425.png	 D	 b	 b	 n.a.	 4.111384e-01
2	 1	 146	 flanked	 rf	 4	 0.025000	 2.000000	 flanked_rf_freq_4_amplitude_0.025_rep_9_b_K_2.0_ampflank_0.425.png	 K	 b	 b	 n.a.	 4.640161e-01
2	 1	 147	 flanked	 rf	 4	 0.425000	 2.000000	 flanked_rf_freq_4_amplitude_0.425_rep_9_r_K_2.0_ampflank_0.425.png	 K	 r	 t	 n.a.	 5.139799e-01
2	 1	 148	 flanked	 rf	 4	 0.425000	 2.000000	 flanked_rf_freq_4_amplitude_0.425_rep_9_r_K_2.0_ampflank_0.425.png	 K	 r	 r	 n.a.	 3.366938e-01
2	 1	 149	 flanked	 rf	 4	 0.025000	 2.000000	 flanked_rf_freq_4_amplitude_0.025_rep_3_r_H_2.0_ampflank_0.425.png	 H	 r	 b	 n.a.	 5.340843e-01
2	 1	 150	 flanked	 rf	 4	 0.275000	 2.000000	 flanked_rf_freq_4_amplitude_0.275_rep_9_b_N_2.0_ampflank_0.425.png	 N	 b	 b	 n.a.	 3.646979e-01
2	 1	 151	 flanked	 rf	 4	 0.275000	 2.000000	 flanked_rf_freq_4_amplitude_0.275_rep_4_l_H_2.0_ampflank_0.425.png	 H	 l	 b	 n.a.	 4.033525e-01
2	 1	 152	 flanked	 rf	 4	 0.425000	 2.000000	 flanked_rf_freq_4_amplitude_0.425_rep_2_b_K_2.0_ampflank_0.425.png	 K	 b	 b	 n.a.	 3.215924e-01
2	 1	 153	 flanked	 rf	 4	 0.050000	 2.000000	 flanked_rf_freq_4_amplitude_0.05_rep_9_b_K_2.0_ampflank_0.425.png	 K	 b	 b	 n.a.	 5.656582e-01
2	 1	 154	 flanked	 rf	 4	 0.200000	 2.000000	 flanked_rf_freq_4_amplitude_0.2_rep_2_r_H_2.0_ampflank_0.425.png	 H	 r	 r	 n.a.	 5.192586e-01
2	 1	 155	 flanked	 rf	 4	 0.275000	 2.000000	 flanked_rf_freq_4_amplitude_0.275_rep_4_l_H_2.0_ampflank_0.425.png	 H	 l	 b	 n.a.	 7.786347e-01
2	 1	 156	 flanked	 rf	 4	 0.125000	 2.000000	 flanked_rf_freq_4_amplitude_0.125_rep_5_l_H_2.0_ampflank_0.425.png	 H	 l	 r	 n.a.	 5.107718e-01
2	 1	 157	 flanked	 rf	 4	 0.350000	 2.000000	 flanked_rf_freq_4_amplitude_0.35_rep_7_l_D_2.0_ampflank_0.425.png	 D	 l	 l	 n.a.	 4.546023e-01
2	 1	 158	 flanked	 rf	 4	 0.200000	 2.000000	 flanked_rf_freq_4_amplitude_0.2_rep_9_t_H_2.0_ampflank_0.425.png	 H	 t	 t	 n.a.	 6.804816e-01
2	 1	 159	 flanked	 rf	 4	 0.425000	 2.000000	 flanked_rf_freq_4_amplitude_0.425_rep_7_l_H_2.0_ampflank_0.425.png	 H	 l	 b	 n.a.	 3.819367e-01
2	 1	 160	 flanked	 rf	 4	 0.200000	 2.000000	 flanked_rf_freq_4_amplitude_0.2_rep_7_r_D_2.0_ampflank_0.425.png	 D	 r	 t	 n.a.	 5.742208e-01
2	 1	 161	 flanked	 rf	 4	 0.125000	 2.000000	 flanked_rf_freq_4_amplitude_0.125_rep_6_l_D_2.0_ampflank_0.425.png	 D	 l	 b	 n.a.	 3.694445e-01
2	 1	 162	 flanked	 rf	 4	 0.025000	 2.000000	 flanked_rf_freq_4_amplitude_0.025_rep_3_r_H_2.0_ampflank_0.425.png	 H	 r	 t	 n.a.	 4.997459e-01
2	 1	 163	 flanked	 rf	 4	 0.425000	 2.000000	 flanked_rf_freq_4_amplitude_0.425_rep_6_t_N_2.0_ampflank_0.425.png	 N	 t	 b	 n.a.	 3.268960e-01
2	 1	 164	 flanked	 rf	 4	 0.200000	 2.000000	 flanked_rf_freq_4_amplitude_0.2_rep_7_r_D_2.0_ampflank_0.425.png	 D	 r	 t	 n.a.	 3.783899e-01
2	 1	 165	 flanked	 rf	 4	 0.125000	 2.000000	 flanked_rf_freq_4_amplitude_0.125_rep_4_b_N_2.0_ampflank_0.425.png	 N	 b	 b	 n.a.	 3.248853e-01
2	 1	 166	 flanked	 rf	 4	 0.275000	 2.000000	 flanked_rf_freq_4_amplitude_0.275_rep_2_t_H_2.0_ampflank_0.425.png	 H	 t	 b	 n.a.	 7.898216e-01
2	 1	 167	 flanked	 rf	 4	 0.125000	 2.000000	 flanked_rf_freq_4_amplitude_0.125_rep_2_l_N_2.0_ampflank_0.425.png	 N	 l	 b	 n.a.	 6.681615e-01
2	 1	 168	 flanked	 rf	 4	 0.350000	 2.000000	 flanked_rf_freq_4_amplitude_0.35_rep_4_b_N_2.0_ampflank_0.425.png	 N	 b	 r	 n.a.	 4.785358e-01
2	 1	 169	 flanked	 rf	 4	 0.125000	 2.000000	 flanked_rf_freq_4_amplitude_0.125_rep_4_b_N_2.0_ampflank_0.425.png	 N	 b	 b	 n.a.	 4.117255e-01
2	 1	 170	 flanked	 rf	 4	 0.025000	 2.000000	 flanked_rf_freq_4_amplitude_0.025_rep_7_l_D_2.0_ampflank_0.425.png	 D	 l	 t	 n.a.	 4.364502e-01
2	 1	 171	 flanked	 rf	 4	 0.425000	 2.000000	 flanked_rf_freq_4_amplitude_0.425_rep_4_b_D_2.0_ampflank_0.425.png	 D	 b	 b	 n.a.	 3.905662e-01
2	 1	 172	 flanked	 rf	 4	 0.425000	 2.000000	 flanked_rf_freq_4_amplitude_0.425_rep_5_r_D_2.0_ampflank_0.425.png	 D	 r	 l	 n.a.	 6.829090e-01
2	 1	 173	 flanked	 rf	 4	 0.050000	 2.000000	 flanked_rf_freq_4_amplitude_0.05_rep_9_b_K_2.0_ampflank_0.425.png	 K	 b	 b	 n.a.	 3.798417e-01
2	 1	 174	 flanked	 rf	 4	 0.350000	 2.000000	 flanked_rf_freq_4_amplitude_0.35_rep_4_b_N_2.0_ampflank_0.425.png	 N	 b	 t	 n.a.	 7.545152e-01
2	 1	 175	 flanked	 rf	 4	 0.200000	 2.000000	 flanked_rf_freq_4_amplitude_0.2_rep_4_r_K_2.0_ampflank_0.425.png	 K	 r	 r	 n.a.	 2.961065e-01
2	 1	 176	 flanked	 rf	 4	 0.350000	 2.000000	 flanked_rf_freq_4_amplitude_0.35_rep_7_l_D_2.0_ampflank_0.425.png	 D	 l	 l	 n.a.	 8.104113e-01
2	 1	 177	 flanked	 rf	 4	 0.350000	 2.000000	 flanked_rf_freq_4_amplitude_0.35_rep_5_b_K_2.0_ampflank_0.425.png	 K	 b	 b	 n.a.	 3.706363e-01
2	 1	 178	 flanked	 rf	 4	 0.200000	 2.000000	 flanked_rf_freq_4_amplitude_0.2_rep_0_r_H_2.0_ampflank_0.425.png	 H	 r	 t	 n.a.	 5.946804e-01
2	 1	 179	 flanked	 rf	 4	 0.350000	 2.000000	 flanked_rf_freq_4_amplitude_0.35_rep_5_b_K_2.0_ampflank_0.425.png	 K	 b	 b	 n.a.	 4.306536e-01
2	 1	 180	 flanked	 rf	 4	 0.200000	 2.000000	 flanked_rf_freq_4_amplitude_0.2_rep_1_b_D_2.0_ampflank_0.425.png	 D	 b	 r	 n.a.	 5.195170e-01
2	 1	 181	 flanked	 rf	 4	 0.425000	 2.000000	 flanked_rf_freq_4_amplitude_0.425_rep_3_r_K_2.0_ampflank_0.425.png	 K	 r	 t	 n.a.	 4.952814e-01
2	 1	 182	 flanked	 rf	 4	 0.025000	 2.000000	 flanked_rf_freq_4_amplitude_0.025_rep_2_b_K_2.0_ampflank_0.425.png	 K	 b	 b	 n.a.	 5.292356e-01
2	 1	 183	 flanked	 rf	 4	 0.275000	 2.000000	 flanked_rf_freq_4_amplitude_0.275_rep_5_r_N_2.0_ampflank_0.425.png	 N	 r	 t	 n.a.	 3.858106e-01
2	 1	 184	 flanked	 rf	 4	 0.275000	 2.000000	 flanked_rf_freq_4_amplitude_0.275_rep_4_l_H_2.0_ampflank_0.425.png	 H	 l	 b	 n.a.	 5.247287e-01
2	 1	 185	 flanked	 rf	 4	 0.350000	 2.000000	 flanked_rf_freq_4_amplitude_0.35_rep_2_l_D_2.0_ampflank_0.425.png	 D	 l	 t	 n.a.	 4.685436e-01
2	 1	 186	 flanked	 rf	 4	 0.425000	 2.000000	 flanked_rf_freq_4_amplitude_0.425_rep_6_t_N_2.0_ampflank_0.425.png	 N	 t	 b	 n.a.	 5.136461e-01
2	 1	 187	 flanked	 rf	 4	 0.050000	 2.000000	 flanked_rf_freq_4_amplitude_0.05_rep_1_t_N_2.0_ampflank_0.425.png	 N	 t	 t	 n.a.	 4.737979e-01
2	 1	 188	 flanked	 rf	 4	 0.200000	 2.000000	 flanked_rf_freq_4_amplitude_0.2_rep_3_t_H_2.0_ampflank_0.425.png	 H	 t	 b	 n.a.	 4.973691e-01
2	 1	 189	 flanked	 rf	 4	 0.125000	 2.000000	 flanked_rf_freq_4_amplitude_0.125_rep_8_l_N_2.0_ampflank_0.425.png	 N	 l	 t	 n.a.	 4.810927e-01
2	 1	 190	 flanked	 rf	 4	 0.125000	 2.000000	 flanked_rf_freq_4_amplitude_0.125_rep_4_b_N_2.0_ampflank_0.425.png	 N	 b	 b	 n.a.	 3.455402e-01
2	 1	 191	 flanked	 rf	 4	 0.050000	 2.000000	 flanked_rf_freq_4_amplitude_0.05_rep_2_r_D_2.0_ampflank_0.425.png	 D	 r	 r	 n.a.	 8.727588e-01
2	 1	 192	 flanked	 rf	 4	 0.425000	 2.000000	 flanked_rf_freq_4_amplitude_0.425_rep_5_r_D_2.0_ampflank_0.425.png	 D	 r	 r	 n.a.	 6.438129e-01
2	 1	 193	 flanked	 rf	 4	 0.200000	 2.000000	 flanked_rf_freq_4_amplitude_0.2_rep_5_l_K_2.0_ampflank_0.425.png	 K	 l	 l	 n.a.	 5.175488e-01
2	 1	 194	 flanked	 rf	 4	 0.050000	 2.000000	 flanked_rf_freq_4_amplitude_0.05_rep_8_t_N_2.0_ampflank_0.425.png	 N	 t	 t	 n.a.	 5.494061e-01
2	 1	 195	 flanked	 rf	 4	 0.425000	 2.000000	 flanked_rf_freq_4_amplitude_0.425_rep_0_t_N_2.0_ampflank_0.425.png	 N	 t	 b	 n.a.	 4.058858e-01
2	 1	 196	 flanked	 rf	 4	 0.050000	 2.000000	 flanked_rf_freq_4_amplitude_0.05_rep_4_r_D_2.0_ampflank_0.425.png	 D	 r	 t	 n.a.	 3.523952e-01
2	 1	 197	 flanked	 rf	 4	 0.050000	 2.000000	 flanked_rf_freq_4_amplitude_0.05_rep_0_l_D_2.0_ampflank_0.425.png	 D	 l	 t	 n.a.	 4.720782e-01
2	 1	 198	 flanked	 rf	 4	 0.425000	 2.000000	 flanked_rf_freq_4_amplitude_0.425_rep_7_l_H_2.0_ampflank_0.425.png	 H	 l	 l	 n.a.	 5.580826e-01
2	 1	 199	 flanked	 rf	 4	 0.050000	 2.000000	 flanked_rf_freq_4_amplitude_0.05_rep_1_t_N_2.0_ampflank_0.425.png	 N	 t	 b	 n.a.	 3.681977e-01
2	 1	 200	 flanked	 rf	 4	 0.125000	 2.000000	 flanked_rf_freq_4_amplitude_0.125_rep_7_r_H_2.0_ampflank_0.425.png	 H	 r	 t	 n.a.	 5.057864e-01
2	 1	 201	 flanked	 rf	 4	 0.425000	 2.000000	 flanked_rf_freq_4_amplitude_0.425_rep_9_r_K_2.0_ampflank_0.425.png	 K	 r	 r	 n.a.	 3.694583e-01
2	 1	 202	 flanked	 rf	 4	 0.350000	 2.000000	 flanked_rf_freq_4_amplitude_0.35_rep_1_b_D_2.0_ampflank_0.425.png	 D	 b	 b	 n.a.	 5.460685e-01
2	 1	 203	 flanked	 rf	 4	 0.125000	 2.000000	 flanked_rf_freq_4_amplitude_0.125_rep_7_r_H_2.0_ampflank_0.425.png	 H	 r	 l	 n.a.	 4.240399e-01
2	 1	 204	 flanked	 rf	 4	 0.200000	 2.000000	 flanked_rf_freq_4_amplitude_0.2_rep_0_r_H_2.0_ampflank_0.425.png	 H	 r	 t	 n.a.	 5.118848e-01
2	 1	 205	 flanked	 rf	 4	 0.425000	 2.000000	 flanked_rf_freq_4_amplitude_0.425_rep_0_t_N_2.0_ampflank_0.425.png	 N	 t	 b	 n.a.	 3.704170e-01
2	 1	 206	 flanked	 rf	 4	 0.125000	 2.000000	 flanked_rf_freq_4_amplitude_0.125_rep_1_l_H_2.0_ampflank_0.425.png	 H	 l	 t	 n.a.	 5.791879e-01
2	 1	 207	 flanked	 rf	 4	 0.350000	 2.000000	 flanked_rf_freq_4_amplitude_0.35_rep_1_b_D_2.0_ampflank_0.425.png	 D	 b	 b	 n.a.	 4.633541e-01
2	 1	 208	 flanked	 rf	 4	 0.275000	 2.000000	 flanked_rf_freq_4_amplitude_0.275_rep_5_r_N_2.0_ampflank_0.425.png	 N	 r	 l	 n.a.	 5.316727e-01
2	 1	 209	 flanked	 rf	 4	 0.025000	 2.000000	 flanked_rf_freq_4_amplitude_0.025_rep_2_b_K_2.0_ampflank_0.425.png	 K	 b	 b	 n.a.	 6.026624e-01
2	 1	 210	 flanked	 rf	 4	 0.025000	 2.000000	 flanked_rf_freq_4_amplitude_0.025_rep_1_l_D_2.0_ampflank_0.425.png	 D	 l	 b	 n.a.	 5.933604e-01
