subject	 session	 trial	 flanked	 distortion	 freq	 amplitude	 spacing	 im_name	 targ_letter	 targ_pos	 response	 eyemovement	 RT
5	 1	 1	 flanked	 bex	 4	 3.000000	 2.000000	 flanked_bex_freq_4_amplitude_3_rep_2_b_H_2.0_ampflank_6.png	 H	 b	 r	 n.a.	 5.739843e-01
5	 1	 2	 flanked	 bex	 4	 3.000000	 2.000000	 flanked_bex_freq_4_amplitude_3_rep_5_t_H_2.0_ampflank_6.png	 H	 t	 t	 n.a.	 5.938201e-01
5	 1	 3	 flanked	 bex	 4	 0.500000	 2.000000	 flanked_bex_freq_4_amplitude_0.5_rep_5_r_D_2.0_ampflank_6.png	 D	 r	 r	 n.a.	 9.277104e-01
5	 1	 4	 flanked	 bex	 4	 3.000000	 2.000000	 flanked_bex_freq_4_amplitude_3_rep_5_t_H_2.0_ampflank_6.png	 H	 t	 t	 n.a.	 7.014921e-01
5	 1	 5	 flanked	 bex	 4	 4.000000	 2.000000	 flanked_bex_freq_4_amplitude_4_rep_0_b_H_2.0_ampflank_6.png	 H	 b	 t	 n.a.	 4.344463e-01
5	 1	 6	 flanked	 bex	 4	 6.000000	 2.000000	 flanked_bex_freq_4_amplitude_6_rep_6_b_N_2.0_ampflank_6.png	 N	 b	 b	 n.a.	 6.458014e-01
5	 1	 7	 flanked	 bex	 4	 1.000000	 2.000000	 flanked_bex_freq_4_amplitude_1_rep_7_b_D_2.0_ampflank_6.png	 D	 b	 b	 n.a.	 7.960990e-01
5	 1	 8	 flanked	 bex	 4	 6.000000	 2.000000	 flanked_bex_freq_4_amplitude_6_rep_4_t_N_2.0_ampflank_6.png	 N	 t	 t	 n.a.	 5.544263e-01
5	 1	 9	 flanked	 bex	 4	 0.500000	 2.000000	 flanked_bex_freq_4_amplitude_0.5_rep_2_b_N_2.0_ampflank_6.png	 N	 b	 b	 n.a.	 5.621897e-01
5	 1	 10	 flanked	 bex	 4	 2.000000	 2.000000	 flanked_bex_freq_4_amplitude_2_rep_6_b_D_2.0_ampflank_6.png	 D	 b	 t	 n.a.	 7.814965e-01
5	 1	 11	 flanked	 bex	 4	 6.000000	 2.000000	 flanked_bex_freq_4_amplitude_6_rep_6_b_N_2.0_ampflank_6.png	 N	 b	 b	 n.a.	 3.607534e-01
5	 1	 12	 flanked	 bex	 4	 1.000000	 2.000000	 flanked_bex_freq_4_amplitude_1_rep_9_l_H_2.0_ampflank_6.png	 H	 l	 r	 n.a.	 6.137110e-01
5	 1	 13	 flanked	 bex	 4	 3.000000	 2.000000	 flanked_bex_freq_4_amplitude_3_rep_8_t_D_2.0_ampflank_6.png	 D	 t	 r	 n.a.	 9.895405e-01
5	 1	 14	 flanked	 bex	 4	 5.000000	 2.000000	 flanked_bex_freq_4_amplitude_5_rep_0_r_K_2.0_ampflank_6.png	 K	 r	 r	 n.a.	 4.271600e-01
5	 1	 15	 flanked	 bex	 4	 3.000000	 2.000000	 flanked_bex_freq_4_amplitude_3_rep_6_l_H_2.0_ampflank_6.png	 H	 l	 b	 n.a.	 1.189843e+00
5	 1	 16	 flanked	 bex	 4	 6.000000	 2.000000	 flanked_bex_freq_4_amplitude_6_rep_7_l_D_2.0_ampflank_6.png	 D	 l	 l	 n.a.	 5.488659e-01
5	 1	 17	 flanked	 bex	 4	 5.000000	 2.000000	 flanked_bex_freq_4_amplitude_5_rep_0_r_K_2.0_ampflank_6.png	 K	 r	 r	 n.a.	 4.458768e-01
5	 1	 18	 flanked	 bex	 4	 2.000000	 2.000000	 flanked_bex_freq_4_amplitude_2_rep_1_b_D_2.0_ampflank_6.png	 D	 b	 t	 n.a.	 5.789565e-01
5	 1	 19	 flanked	 bex	 4	 4.000000	 2.000000	 flanked_bex_freq_4_amplitude_4_rep_7_l_K_2.0_ampflank_6.png	 K	 l	 l	 n.a.	 8.215057e-01
5	 1	 20	 flanked	 bex	 4	 5.000000	 2.000000	 flanked_bex_freq_4_amplitude_5_rep_4_r_H_2.0_ampflank_6.png	 H	 r	 t	 n.a.	 7.296699e-01
5	 1	 21	 flanked	 bex	 4	 4.000000	 2.000000	 flanked_bex_freq_4_amplitude_4_rep_0_b_H_2.0_ampflank_6.png	 H	 b	 t	 n.a.	 4.996289e-01
5	 1	 22	 flanked	 bex	 4	 6.000000	 2.000000	 flanked_bex_freq_4_amplitude_6_rep_1_l_K_2.0_ampflank_6.png	 K	 l	 b	 n.a.	 6.136484e-01
5	 1	 23	 flanked	 bex	 4	 0.500000	 2.000000	 flanked_bex_freq_4_amplitude_0.5_rep_5_r_D_2.0_ampflank_6.png	 D	 r	 r	 n.a.	 5.699093e-01
5	 1	 24	 flanked	 bex	 4	 4.000000	 2.000000	 flanked_bex_freq_4_amplitude_4_rep_5_b_H_2.0_ampflank_6.png	 H	 b	 t	 n.a.	 6.863334e-01
5	 1	 25	 flanked	 bex	 4	 3.000000	 2.000000	 flanked_bex_freq_4_amplitude_3_rep_2_b_H_2.0_ampflank_6.png	 H	 b	 t	 n.a.	 5.830854e-01
5	 1	 26	 flanked	 bex	 4	 3.000000	 2.000000	 flanked_bex_freq_4_amplitude_3_rep_9_t_D_2.0_ampflank_6.png	 D	 t	 r	 n.a.	 8.803312e-01
5	 1	 27	 flanked	 bex	 4	 5.000000	 2.000000	 flanked_bex_freq_4_amplitude_5_rep_3_r_K_2.0_ampflank_6.png	 K	 r	 b	 n.a.	 9.438838e-01
5	 1	 28	 flanked	 bex	 4	 4.000000	 2.000000	 flanked_bex_freq_4_amplitude_4_rep_8_b_D_2.0_ampflank_6.png	 D	 b	 t	 n.a.	 9.131292e-01
5	 1	 29	 flanked	 bex	 4	 1.000000	 2.000000	 flanked_bex_freq_4_amplitude_1_rep_0_t_K_2.0_ampflank_6.png	 K	 t	 t	 n.a.	 3.048067e-01
5	 1	 30	 flanked	 bex	 4	 4.000000	 2.000000	 flanked_bex_freq_4_amplitude_4_rep_3_t_N_2.0_ampflank_6.png	 N	 t	 t	 n.a.	 4.630275e-01
5	 1	 31	 flanked	 bex	 4	 1.000000	 2.000000	 flanked_bex_freq_4_amplitude_1_rep_8_l_H_2.0_ampflank_6.png	 H	 l	 t	 n.a.	 6.232320e-01
5	 1	 32	 flanked	 bex	 4	 1.000000	 2.000000	 flanked_bex_freq_4_amplitude_1_rep_4_r_H_2.0_ampflank_6.png	 H	 r	 b	 n.a.	 6.478466e-01
5	 1	 33	 flanked	 bex	 4	 4.000000	 2.000000	 flanked_bex_freq_4_amplitude_4_rep_1_l_N_2.0_ampflank_6.png	 N	 l	 t	 n.a.	 4.349296e-01
5	 1	 34	 flanked	 bex	 4	 1.000000	 2.000000	 flanked_bex_freq_4_amplitude_1_rep_2_l_K_2.0_ampflank_6.png	 K	 l	 t	 n.a.	 3.674900e-01
5	 1	 35	 flanked	 bex	 4	 5.000000	 2.000000	 flanked_bex_freq_4_amplitude_5_rep_2_b_H_2.0_ampflank_6.png	 H	 b	 r	 n.a.	 8.625145e-01
5	 1	 36	 flanked	 bex	 4	 5.000000	 2.000000	 flanked_bex_freq_4_amplitude_5_rep_6_l_N_2.0_ampflank_6.png	 N	 l	 l	 n.a.	 4.928077e-01
5	 1	 37	 flanked	 bex	 4	 0.500000	 2.000000	 flanked_bex_freq_4_amplitude_0.5_rep_1_b_K_2.0_ampflank_6.png	 K	 b	 t	 n.a.	 5.334690e-01
5	 1	 38	 flanked	 bex	 4	 6.000000	 2.000000	 flanked_bex_freq_4_amplitude_6_rep_8_r_D_2.0_ampflank_6.png	 D	 r	 r	 n.a.	 3.328036e-01
5	 1	 39	 flanked	 bex	 4	 6.000000	 2.000000	 flanked_bex_freq_4_amplitude_6_rep_5_b_D_2.0_ampflank_6.png	 D	 b	 t	 n.a.	 5.904445e-01
5	 1	 40	 flanked	 bex	 4	 1.000000	 2.000000	 flanked_bex_freq_4_amplitude_1_rep_0_t_K_2.0_ampflank_6.png	 K	 t	 t	 n.a.	 3.437236e-01
5	 1	 41	 flanked	 bex	 4	 1.000000	 2.000000	 flanked_bex_freq_4_amplitude_1_rep_3_b_D_2.0_ampflank_6.png	 D	 b	 b	 n.a.	 4.011072e-01
5	 1	 42	 flanked	 bex	 4	 2.000000	 2.000000	 flanked_bex_freq_4_amplitude_2_rep_0_r_D_2.0_ampflank_6.png	 D	 r	 t	 n.a.	 4.634948e-01
5	 1	 43	 flanked	 bex	 4	 0.500000	 2.000000	 flanked_bex_freq_4_amplitude_0.5_rep_8_t_D_2.0_ampflank_6.png	 D	 t	 l	 n.a.	 7.471910e-01
5	 1	 44	 flanked	 bex	 4	 0.500000	 2.000000	 flanked_bex_freq_4_amplitude_0.5_rep_3_b_K_2.0_ampflank_6.png	 K	 b	 t	 n.a.	 4.965994e-01
5	 1	 45	 flanked	 bex	 4	 3.000000	 2.000000	 flanked_bex_freq_4_amplitude_3_rep_9_t_D_2.0_ampflank_6.png	 D	 t	 r	 n.a.	 6.230111e-01
5	 1	 46	 flanked	 bex	 4	 6.000000	 2.000000	 flanked_bex_freq_4_amplitude_6_rep_9_t_K_2.0_ampflank_6.png	 K	 t	 t	 n.a.	 4.835307e-01
5	 1	 47	 flanked	 bex	 4	 3.000000	 2.000000	 flanked_bex_freq_4_amplitude_3_rep_0_b_H_2.0_ampflank_6.png	 H	 b	 r	 n.a.	 6.146791e-01
5	 1	 48	 flanked	 bex	 4	 2.000000	 2.000000	 flanked_bex_freq_4_amplitude_2_rep_4_t_K_2.0_ampflank_6.png	 K	 t	 t	 n.a.	 5.526645e-01
5	 1	 49	 flanked	 bex	 4	 4.000000	 2.000000	 flanked_bex_freq_4_amplitude_4_rep_9_b_D_2.0_ampflank_6.png	 D	 b	 t	 n.a.	 6.787600e-01
5	 1	 50	 flanked	 bex	 4	 6.000000	 2.000000	 flanked_bex_freq_4_amplitude_6_rep_4_t_N_2.0_ampflank_6.png	 N	 t	 t	 n.a.	 4.360553e-01
5	 1	 51	 flanked	 bex	 4	 0.500000	 2.000000	 flanked_bex_freq_4_amplitude_0.5_rep_4_l_N_2.0_ampflank_6.png	 N	 l	 b	 n.a.	 9.202181e-01
5	 1	 52	 flanked	 bex	 4	 2.000000	 2.000000	 flanked_bex_freq_4_amplitude_2_rep_7_t_H_2.0_ampflank_6.png	 H	 t	 t	 n.a.	 4.685440e-01
5	 1	 53	 flanked	 bex	 4	 5.000000	 2.000000	 flanked_bex_freq_4_amplitude_5_rep_5_l_K_2.0_ampflank_6.png	 K	 l	 l	 n.a.	 6.336108e-01
5	 1	 54	 flanked	 bex	 4	 6.000000	 2.000000	 flanked_bex_freq_4_amplitude_6_rep_2_t_D_2.0_ampflank_6.png	 D	 t	 t	 n.a.	 5.328351e-01
5	 1	 55	 flanked	 bex	 4	 6.000000	 2.000000	 flanked_bex_freq_4_amplitude_6_rep_5_b_D_2.0_ampflank_6.png	 D	 b	 t	 n.a.	 6.537120e-01
5	 1	 56	 flanked	 bex	 4	 1.000000	 2.000000	 flanked_bex_freq_4_amplitude_1_rep_6_r_N_2.0_ampflank_6.png	 N	 r	 b	 n.a.	 5.894125e-01
5	 1	 57	 flanked	 bex	 4	 4.000000	 2.000000	 flanked_bex_freq_4_amplitude_4_rep_2_l_K_2.0_ampflank_6.png	 K	 l	 r	 n.a.	 9.681207e-01
5	 1	 58	 flanked	 bex	 4	 4.000000	 2.000000	 flanked_bex_freq_4_amplitude_4_rep_8_b_D_2.0_ampflank_6.png	 D	 b	 b	 n.a.	 4.780665e-01
5	 1	 59	 flanked	 bex	 4	 0.500000	 2.000000	 flanked_bex_freq_4_amplitude_0.5_rep_8_t_D_2.0_ampflank_6.png	 D	 t	 l	 n.a.	 9.175582e-01
5	 1	 60	 flanked	 bex	 4	 5.000000	 2.000000	 flanked_bex_freq_4_amplitude_5_rep_7_l_H_2.0_ampflank_6.png	 H	 l	 b	 n.a.	 1.061249e+00
5	 1	 61	 flanked	 bex	 4	 6.000000	 2.000000	 flanked_bex_freq_4_amplitude_6_rep_6_b_N_2.0_ampflank_6.png	 N	 b	 b	 n.a.	 6.592816e-01
5	 1	 62	 flanked	 bex	 4	 1.000000	 2.000000	 flanked_bex_freq_4_amplitude_1_rep_3_b_D_2.0_ampflank_6.png	 D	 b	 t	 n.a.	 7.243223e-01
5	 1	 63	 flanked	 bex	 4	 5.000000	 2.000000	 flanked_bex_freq_4_amplitude_5_rep_4_r_H_2.0_ampflank_6.png	 H	 r	 r	 n.a.	 3.558267e-01
5	 1	 64	 flanked	 bex	 4	 0.500000	 2.000000	 flanked_bex_freq_4_amplitude_0.5_rep_7_b_N_2.0_ampflank_6.png	 N	 b	 b	 n.a.	 1.077178e+00
5	 1	 65	 flanked	 bex	 4	 6.000000	 2.000000	 flanked_bex_freq_4_amplitude_6_rep_1_l_K_2.0_ampflank_6.png	 K	 l	 b	 n.a.	 1.271800e+00
5	 1	 66	 flanked	 bex	 4	 6.000000	 2.000000	 flanked_bex_freq_4_amplitude_6_rep_3_r_K_2.0_ampflank_6.png	 K	 r	 r	 n.a.	 4.345602e-01
5	 1	 67	 flanked	 bex	 4	 2.000000	 2.000000	 flanked_bex_freq_4_amplitude_2_rep_2_r_N_2.0_ampflank_6.png	 N	 r	 b	 n.a.	 5.495440e-01
5	 1	 68	 flanked	 bex	 4	 0.500000	 2.000000	 flanked_bex_freq_4_amplitude_0.5_rep_7_b_N_2.0_ampflank_6.png	 N	 b	 t	 n.a.	 4.433085e-01
5	 1	 69	 flanked	 bex	 4	 0.500000	 2.000000	 flanked_bex_freq_4_amplitude_0.5_rep_6_l_H_2.0_ampflank_6.png	 H	 l	 b	 n.a.	 6.040463e-01
5	 1	 70	 flanked	 bex	 4	 0.500000	 2.000000	 flanked_bex_freq_4_amplitude_0.5_rep_6_l_H_2.0_ampflank_6.png	 H	 l	 b	 n.a.	 5.187098e-01
5	 1	 71	 flanked	 bex	 4	 5.000000	 2.000000	 flanked_bex_freq_4_amplitude_5_rep_5_l_K_2.0_ampflank_6.png	 K	 l	 b	 n.a.	 4.497751e-01
5	 1	 72	 flanked	 bex	 4	 1.000000	 2.000000	 flanked_bex_freq_4_amplitude_1_rep_2_l_K_2.0_ampflank_6.png	 K	 l	 r	 n.a.	 6.672083e-01
5	 1	 73	 flanked	 bex	 4	 2.000000	 2.000000	 flanked_bex_freq_4_amplitude_2_rep_1_b_D_2.0_ampflank_6.png	 D	 b	 r	 n.a.	 7.580862e-01
5	 1	 74	 flanked	 bex	 4	 4.000000	 2.000000	 flanked_bex_freq_4_amplitude_4_rep_2_l_K_2.0_ampflank_6.png	 K	 l	 b	 n.a.	 4.171561e-01
5	 1	 75	 flanked	 bex	 4	 2.000000	 2.000000	 flanked_bex_freq_4_amplitude_2_rep_7_t_H_2.0_ampflank_6.png	 H	 t	 b	 n.a.	 9.060394e-01
5	 1	 76	 flanked	 bex	 4	 2.000000	 2.000000	 flanked_bex_freq_4_amplitude_2_rep_5_t_H_2.0_ampflank_6.png	 H	 t	 r	 n.a.	 8.985222e-01
5	 1	 77	 flanked	 bex	 4	 2.000000	 2.000000	 flanked_bex_freq_4_amplitude_2_rep_8_b_H_2.0_ampflank_6.png	 H	 b	 b	 n.a.	 6.632019e-01
5	 1	 78	 flanked	 bex	 4	 4.000000	 2.000000	 flanked_bex_freq_4_amplitude_4_rep_0_b_H_2.0_ampflank_6.png	 H	 b	 t	 n.a.	 5.673422e-01
5	 1	 79	 flanked	 bex	 4	 1.000000	 2.000000	 flanked_bex_freq_4_amplitude_1_rep_7_b_D_2.0_ampflank_6.png	 D	 b	 r	 n.a.	 5.696322e-01
5	 1	 80	 flanked	 bex	 4	 1.000000	 2.000000	 flanked_bex_freq_4_amplitude_1_rep_1_r_N_2.0_ampflank_6.png	 N	 r	 r	 n.a.	 9.450107e-01
5	 1	 81	 flanked	 bex	 4	 0.500000	 2.000000	 flanked_bex_freq_4_amplitude_0.5_rep_9_r_H_2.0_ampflank_6.png	 H	 r	 t	 n.a.	 7.184436e-01
5	 1	 82	 flanked	 bex	 4	 6.000000	 2.000000	 flanked_bex_freq_4_amplitude_6_rep_3_r_K_2.0_ampflank_6.png	 K	 r	 r	 n.a.	 5.707567e-01
5	 1	 83	 flanked	 bex	 4	 0.500000	 2.000000	 flanked_bex_freq_4_amplitude_0.5_rep_2_b_N_2.0_ampflank_6.png	 N	 b	 b	 n.a.	 5.340361e-01
5	 1	 84	 flanked	 bex	 4	 5.000000	 2.000000	 flanked_bex_freq_4_amplitude_5_rep_0_r_K_2.0_ampflank_6.png	 K	 r	 r	 n.a.	 4.636136e-01
5	 1	 85	 flanked	 bex	 4	 3.000000	 2.000000	 flanked_bex_freq_4_amplitude_3_rep_2_b_H_2.0_ampflank_6.png	 H	 b	 b	 n.a.	 1.095963e+00
5	 1	 86	 flanked	 bex	 4	 1.000000	 2.000000	 flanked_bex_freq_4_amplitude_1_rep_8_l_H_2.0_ampflank_6.png	 H	 l	 r	 n.a.	 1.220747e+00
5	 1	 87	 flanked	 bex	 4	 2.000000	 2.000000	 flanked_bex_freq_4_amplitude_2_rep_9_t_D_2.0_ampflank_6.png	 D	 t	 t	 n.a.	 7.127355e-01
5	 1	 88	 flanked	 bex	 4	 2.000000	 2.000000	 flanked_bex_freq_4_amplitude_2_rep_3_r_D_2.0_ampflank_6.png	 D	 r	 r	 n.a.	 1.063941e+00
5	 1	 89	 flanked	 bex	 4	 0.500000	 2.000000	 flanked_bex_freq_4_amplitude_0.5_rep_0_b_K_2.0_ampflank_6.png	 K	 b	 b	 n.a.	 7.606660e-01
5	 1	 90	 flanked	 bex	 4	 3.000000	 2.000000	 flanked_bex_freq_4_amplitude_3_rep_4_t_N_2.0_ampflank_6.png	 N	 t	 r	 n.a.	 7.209573e-01
5	 1	 91	 flanked	 bex	 4	 4.000000	 2.000000	 flanked_bex_freq_4_amplitude_4_rep_9_b_D_2.0_ampflank_6.png	 D	 b	 b	 n.a.	 5.335463e-01
5	 1	 92	 flanked	 bex	 4	 6.000000	 2.000000	 flanked_bex_freq_4_amplitude_6_rep_8_r_D_2.0_ampflank_6.png	 D	 r	 r	 n.a.	 3.761120e-01
5	 1	 93	 flanked	 bex	 4	 3.000000	 2.000000	 flanked_bex_freq_4_amplitude_3_rep_7_r_H_2.0_ampflank_6.png	 H	 r	 l	 n.a.	 9.069632e-01
5	 1	 94	 flanked	 bex	 4	 5.000000	 2.000000	 flanked_bex_freq_4_amplitude_5_rep_3_r_K_2.0_ampflank_6.png	 K	 r	 r	 n.a.	 3.338170e-01
5	 1	 95	 flanked	 bex	 4	 2.000000	 2.000000	 flanked_bex_freq_4_amplitude_2_rep_1_b_D_2.0_ampflank_6.png	 D	 b	 b	 n.a.	 4.714988e-01
5	 1	 96	 flanked	 bex	 4	 0.500000	 2.000000	 flanked_bex_freq_4_amplitude_0.5_rep_1_b_K_2.0_ampflank_6.png	 K	 b	 t	 n.a.	 8.405282e-01
5	 1	 97	 flanked	 bex	 4	 1.000000	 2.000000	 flanked_bex_freq_4_amplitude_1_rep_9_l_H_2.0_ampflank_6.png	 H	 l	 b	 n.a.	 9.057005e-01
5	 1	 98	 flanked	 bex	 4	 5.000000	 2.000000	 flanked_bex_freq_4_amplitude_5_rep_2_b_H_2.0_ampflank_6.png	 H	 b	 r	 n.a.	 7.714766e-01
5	 1	 99	 flanked	 bex	 4	 3.000000	 2.000000	 flanked_bex_freq_4_amplitude_3_rep_0_b_H_2.0_ampflank_6.png	 H	 b	 t	 n.a.	 6.145702e-01
5	 1	 100	 flanked	 bex	 4	 3.000000	 2.000000	 flanked_bex_freq_4_amplitude_3_rep_3_t_D_2.0_ampflank_6.png	 D	 t	 r	 n.a.	 9.127778e-01
5	 1	 101	 flanked	 bex	 4	 5.000000	 2.000000	 flanked_bex_freq_4_amplitude_5_rep_8_r_D_2.0_ampflank_6.png	 D	 r	 r	 n.a.	 8.449228e-01
5	 1	 102	 flanked	 bex	 4	 0.500000	 2.000000	 flanked_bex_freq_4_amplitude_0.5_rep_9_r_H_2.0_ampflank_6.png	 H	 r	 t	 n.a.	 6.566057e-01
5	 1	 103	 flanked	 bex	 4	 2.000000	 2.000000	 flanked_bex_freq_4_amplitude_2_rep_5_t_H_2.0_ampflank_6.png	 H	 t	 t	 n.a.	 6.345898e-01
5	 1	 104	 flanked	 bex	 4	 4.000000	 2.000000	 flanked_bex_freq_4_amplitude_4_rep_4_r_D_2.0_ampflank_6.png	 D	 r	 r	 n.a.	 6.283479e-01
5	 1	 105	 flanked	 bex	 4	 1.000000	 2.000000	 flanked_bex_freq_4_amplitude_1_rep_9_l_H_2.0_ampflank_6.png	 H	 l	 r	 n.a.	 8.293803e-01
5	 1	 106	 flanked	 bex	 4	 2.000000	 2.000000	 flanked_bex_freq_4_amplitude_2_rep_0_r_D_2.0_ampflank_6.png	 D	 r	 b	 n.a.	 8.488678e-01
5	 1	 107	 flanked	 bex	 4	 2.000000	 2.000000	 flanked_bex_freq_4_amplitude_2_rep_8_b_H_2.0_ampflank_6.png	 H	 b	 t	 n.a.	 5.922522e-01
5	 1	 108	 flanked	 bex	 4	 2.000000	 2.000000	 flanked_bex_freq_4_amplitude_2_rep_9_t_D_2.0_ampflank_6.png	 D	 t	 b	 n.a.	 1.013359e+00
5	 1	 109	 flanked	 bex	 4	 3.000000	 2.000000	 flanked_bex_freq_4_amplitude_3_rep_5_t_H_2.0_ampflank_6.png	 H	 t	 r	 n.a.	 6.967174e-01
5	 1	 110	 flanked	 bex	 4	 0.500000	 2.000000	 flanked_bex_freq_4_amplitude_0.5_rep_6_l_H_2.0_ampflank_6.png	 H	 l	 t	 n.a.	 1.029560e+00
5	 1	 111	 flanked	 bex	 4	 2.000000	 2.000000	 flanked_bex_freq_4_amplitude_2_rep_2_r_N_2.0_ampflank_6.png	 N	 r	 l	 n.a.	 8.410727e-01
5	 1	 112	 flanked	 bex	 4	 4.000000	 2.000000	 flanked_bex_freq_4_amplitude_4_rep_2_l_K_2.0_ampflank_6.png	 K	 l	 b	 n.a.	 7.584177e-01
5	 1	 113	 flanked	 bex	 4	 3.000000	 2.000000	 flanked_bex_freq_4_amplitude_3_rep_4_t_N_2.0_ampflank_6.png	 N	 t	 r	 n.a.	 7.585783e-01
5	 1	 114	 flanked	 bex	 4	 0.500000	 2.000000	 flanked_bex_freq_4_amplitude_0.5_rep_3_b_K_2.0_ampflank_6.png	 K	 b	 t	 n.a.	 5.689309e-01
5	 1	 115	 flanked	 bex	 4	 6.000000	 2.000000	 flanked_bex_freq_4_amplitude_6_rep_0_r_H_2.0_ampflank_6.png	 H	 r	 r	 n.a.	 3.846746e-01
5	 1	 116	 flanked	 bex	 4	 0.500000	 2.000000	 flanked_bex_freq_4_amplitude_0.5_rep_8_t_D_2.0_ampflank_6.png	 D	 t	 l	 n.a.	 6.108606e-01
5	 1	 117	 flanked	 bex	 4	 2.000000	 2.000000	 flanked_bex_freq_4_amplitude_2_rep_6_b_D_2.0_ampflank_6.png	 D	 b	 t	 n.a.	 3.995557e-01
5	 1	 118	 flanked	 bex	 4	 2.000000	 2.000000	 flanked_bex_freq_4_amplitude_2_rep_5_t_H_2.0_ampflank_6.png	 H	 t	 t	 n.a.	 3.798875e-01
5	 1	 119	 flanked	 bex	 4	 5.000000	 2.000000	 flanked_bex_freq_4_amplitude_5_rep_6_l_N_2.0_ampflank_6.png	 N	 l	 r	 n.a.	 6.742217e-01
5	 1	 120	 flanked	 bex	 4	 4.000000	 2.000000	 flanked_bex_freq_4_amplitude_4_rep_1_l_N_2.0_ampflank_6.png	 N	 l	 t	 n.a.	 6.888163e-01
5	 1	 121	 flanked	 bex	 4	 4.000000	 2.000000	 flanked_bex_freq_4_amplitude_4_rep_6_l_K_2.0_ampflank_6.png	 K	 l	 l	 n.a.	 6.871052e-01
5	 1	 122	 flanked	 bex	 4	 6.000000	 2.000000	 flanked_bex_freq_4_amplitude_6_rep_5_b_D_2.0_ampflank_6.png	 D	 b	 t	 n.a.	 6.964316e-01
5	 1	 123	 flanked	 bex	 4	 1.000000	 2.000000	 flanked_bex_freq_4_amplitude_1_rep_5_r_H_2.0_ampflank_6.png	 H	 r	 b	 n.a.	 5.050869e-01
5	 1	 124	 flanked	 bex	 4	 0.500000	 2.000000	 flanked_bex_freq_4_amplitude_0.5_rep_5_r_D_2.0_ampflank_6.png	 D	 r	 t	 n.a.	 6.407992e-01
5	 1	 125	 flanked	 bex	 4	 4.000000	 2.000000	 flanked_bex_freq_4_amplitude_4_rep_4_r_D_2.0_ampflank_6.png	 D	 r	 r	 n.a.	 3.793403e-01
5	 1	 126	 flanked	 bex	 4	 3.000000	 2.000000	 flanked_bex_freq_4_amplitude_3_rep_3_t_D_2.0_ampflank_6.png	 D	 t	 t	 n.a.	 6.731441e-01
5	 1	 127	 flanked	 bex	 4	 6.000000	 2.000000	 flanked_bex_freq_4_amplitude_6_rep_3_r_K_2.0_ampflank_6.png	 K	 r	 r	 n.a.	 6.285258e-01
5	 1	 128	 flanked	 bex	 4	 5.000000	 2.000000	 flanked_bex_freq_4_amplitude_5_rep_1_t_D_2.0_ampflank_6.png	 D	 t	 t	 n.a.	 6.220695e-01
5	 1	 129	 flanked	 bex	 4	 3.000000	 2.000000	 flanked_bex_freq_4_amplitude_3_rep_1_b_D_2.0_ampflank_6.png	 D	 b	 r	 n.a.	 1.351278e+00
5	 1	 130	 flanked	 bex	 4	 4.000000	 2.000000	 flanked_bex_freq_4_amplitude_4_rep_3_t_N_2.0_ampflank_6.png	 N	 t	 b	 n.a.	 4.980349e-01
5	 1	 131	 flanked	 bex	 4	 6.000000	 2.000000	 flanked_bex_freq_4_amplitude_6_rep_8_r_D_2.0_ampflank_6.png	 D	 r	 r	 n.a.	 1.023592e+00
5	 1	 132	 flanked	 bex	 4	 5.000000	 2.000000	 flanked_bex_freq_4_amplitude_5_rep_2_b_H_2.0_ampflank_6.png	 H	 b	 b	 n.a.	 6.939396e-01
5	 1	 133	 flanked	 bex	 4	 4.000000	 2.000000	 flanked_bex_freq_4_amplitude_4_rep_3_t_N_2.0_ampflank_6.png	 N	 t	 t	 n.a.	 5.611086e-01
5	 1	 134	 flanked	 bex	 4	 5.000000	 2.000000	 flanked_bex_freq_4_amplitude_5_rep_1_t_D_2.0_ampflank_6.png	 D	 t	 t	 n.a.	 5.556067e-01
5	 1	 135	 flanked	 bex	 4	 4.000000	 2.000000	 flanked_bex_freq_4_amplitude_4_rep_7_l_K_2.0_ampflank_6.png	 K	 l	 l	 n.a.	 6.148233e-01
5	 1	 136	 flanked	 bex	 4	 2.000000	 2.000000	 flanked_bex_freq_4_amplitude_2_rep_2_r_N_2.0_ampflank_6.png	 N	 r	 r	 n.a.	 7.956000e-01
5	 1	 137	 flanked	 bex	 4	 6.000000	 2.000000	 flanked_bex_freq_4_amplitude_6_rep_0_r_H_2.0_ampflank_6.png	 H	 r	 r	 n.a.	 7.377590e-01
5	 1	 138	 flanked	 bex	 4	 3.000000	 2.000000	 flanked_bex_freq_4_amplitude_3_rep_8_t_D_2.0_ampflank_6.png	 D	 t	 r	 n.a.	 1.117742e+00
5	 1	 139	 flanked	 bex	 4	 5.000000	 2.000000	 flanked_bex_freq_4_amplitude_5_rep_9_l_K_2.0_ampflank_6.png	 K	 l	 b	 n.a.	 5.822135e-01
5	 1	 140	 flanked	 bex	 4	 5.000000	 2.000000	 flanked_bex_freq_4_amplitude_5_rep_8_r_D_2.0_ampflank_6.png	 D	 r	 r	 n.a.	 6.475006e-01
5	 1	 141	 flanked	 bex	 4	 6.000000	 2.000000	 flanked_bex_freq_4_amplitude_6_rep_7_l_D_2.0_ampflank_6.png	 D	 l	 r	 n.a.	 7.583844e-01
5	 1	 142	 flanked	 bex	 4	 5.000000	 2.000000	 flanked_bex_freq_4_amplitude_5_rep_7_l_H_2.0_ampflank_6.png	 H	 l	 b	 n.a.	 5.082362e-01
5	 1	 143	 flanked	 bex	 4	 5.000000	 2.000000	 flanked_bex_freq_4_amplitude_5_rep_3_r_K_2.0_ampflank_6.png	 K	 r	 r	 n.a.	 6.016548e-01
5	 1	 144	 flanked	 bex	 4	 3.000000	 2.000000	 flanked_bex_freq_4_amplitude_3_rep_6_l_H_2.0_ampflank_6.png	 H	 l	 b	 n.a.	 1.066926e+00
5	 1	 145	 flanked	 bex	 4	 1.000000	 2.000000	 flanked_bex_freq_4_amplitude_1_rep_5_r_H_2.0_ampflank_6.png	 H	 r	 t	 n.a.	 6.756922e-01
5	 1	 146	 flanked	 bex	 4	 1.000000	 2.000000	 flanked_bex_freq_4_amplitude_1_rep_7_b_D_2.0_ampflank_6.png	 D	 b	 t	 n.a.	 6.723790e-01
5	 1	 147	 flanked	 bex	 4	 1.000000	 2.000000	 flanked_bex_freq_4_amplitude_1_rep_8_l_H_2.0_ampflank_6.png	 H	 l	 b	 n.a.	 5.739551e-01
5	 1	 148	 flanked	 bex	 4	 4.000000	 2.000000	 flanked_bex_freq_4_amplitude_4_rep_7_l_K_2.0_ampflank_6.png	 K	 l	 l	 n.a.	 7.864773e-01
5	 1	 149	 flanked	 bex	 4	 2.000000	 2.000000	 flanked_bex_freq_4_amplitude_2_rep_3_r_D_2.0_ampflank_6.png	 D	 r	 t	 n.a.	 5.430342e-01
5	 1	 150	 flanked	 bex	 4	 6.000000	 2.000000	 flanked_bex_freq_4_amplitude_6_rep_9_t_K_2.0_ampflank_6.png	 K	 t	 t	 n.a.	 4.992195e-01
5	 1	 151	 flanked	 bex	 4	 0.500000	 2.000000	 flanked_bex_freq_4_amplitude_0.5_rep_9_r_H_2.0_ampflank_6.png	 H	 r	 b	 n.a.	 7.132478e-01
5	 1	 152	 flanked	 bex	 4	 2.000000	 2.000000	 flanked_bex_freq_4_amplitude_2_rep_8_b_H_2.0_ampflank_6.png	 H	 b	 r	 n.a.	 7.589428e-01
5	 1	 153	 flanked	 bex	 4	 1.000000	 2.000000	 flanked_bex_freq_4_amplitude_1_rep_5_r_H_2.0_ampflank_6.png	 H	 r	 t	 n.a.	 1.020139e+00
5	 1	 154	 flanked	 bex	 4	 4.000000	 2.000000	 flanked_bex_freq_4_amplitude_4_rep_9_b_D_2.0_ampflank_6.png	 D	 b	 l	 n.a.	 9.611641e-01
5	 1	 155	 flanked	 bex	 4	 2.000000	 2.000000	 flanked_bex_freq_4_amplitude_2_rep_9_t_D_2.0_ampflank_6.png	 D	 t	 r	 n.a.	 4.622495e-01
5	 1	 156	 flanked	 bex	 4	 0.500000	 2.000000	 flanked_bex_freq_4_amplitude_0.5_rep_1_b_K_2.0_ampflank_6.png	 K	 b	 t	 n.a.	 5.833548e-01
5	 1	 157	 flanked	 bex	 4	 4.000000	 2.000000	 flanked_bex_freq_4_amplitude_4_rep_5_b_H_2.0_ampflank_6.png	 H	 b	 b	 n.a.	 7.238099e-01
5	 1	 158	 flanked	 bex	 4	 3.000000	 2.000000	 flanked_bex_freq_4_amplitude_3_rep_4_t_N_2.0_ampflank_6.png	 N	 t	 t	 n.a.	 1.235979e+00
5	 1	 159	 flanked	 bex	 4	 2.000000	 2.000000	 flanked_bex_freq_4_amplitude_2_rep_7_t_H_2.0_ampflank_6.png	 H	 t	 r	 n.a.	 9.753220e-01
5	 1	 160	 flanked	 bex	 4	 4.000000	 2.000000	 flanked_bex_freq_4_amplitude_4_rep_6_l_K_2.0_ampflank_6.png	 K	 l	 t	 n.a.	 1.038430e+00
5	 1	 161	 flanked	 bex	 4	 3.000000	 2.000000	 flanked_bex_freq_4_amplitude_3_rep_1_b_D_2.0_ampflank_6.png	 D	 b	 t	 n.a.	 5.187015e-01
5	 1	 162	 flanked	 bex	 4	 1.000000	 2.000000	 flanked_bex_freq_4_amplitude_1_rep_1_r_N_2.0_ampflank_6.png	 N	 r	 r	 n.a.	 8.370495e-01
5	 1	 163	 flanked	 bex	 4	 1.000000	 2.000000	 flanked_bex_freq_4_amplitude_1_rep_6_r_N_2.0_ampflank_6.png	 N	 r	 b	 n.a.	 6.022320e-01
5	 1	 164	 flanked	 bex	 4	 4.000000	 2.000000	 flanked_bex_freq_4_amplitude_4_rep_8_b_D_2.0_ampflank_6.png	 D	 b	 b	 n.a.	 5.037990e-01
5	 1	 165	 flanked	 bex	 4	 6.000000	 2.000000	 flanked_bex_freq_4_amplitude_6_rep_0_r_H_2.0_ampflank_6.png	 H	 r	 r	 n.a.	 5.464890e-01
5	 1	 166	 flanked	 bex	 4	 5.000000	 2.000000	 flanked_bex_freq_4_amplitude_5_rep_9_l_K_2.0_ampflank_6.png	 K	 l	 l	 n.a.	 1.273393e+00
5	 1	 167	 flanked	 bex	 4	 5.000000	 2.000000	 flanked_bex_freq_4_amplitude_5_rep_6_l_N_2.0_ampflank_6.png	 N	 l	 b	 n.a.	 5.510892e-01
5	 1	 168	 flanked	 bex	 4	 4.000000	 2.000000	 flanked_bex_freq_4_amplitude_4_rep_1_l_N_2.0_ampflank_6.png	 N	 l	 l	 n.a.	 6.704790e-01
5	 1	 169	 flanked	 bex	 4	 1.000000	 2.000000	 flanked_bex_freq_4_amplitude_1_rep_0_t_K_2.0_ampflank_6.png	 K	 t	 t	 n.a.	 9.084974e-01
5	 1	 170	 flanked	 bex	 4	 3.000000	 2.000000	 flanked_bex_freq_4_amplitude_3_rep_8_t_D_2.0_ampflank_6.png	 D	 t	 r	 n.a.	 9.260160e-01
5	 1	 171	 flanked	 bex	 4	 3.000000	 2.000000	 flanked_bex_freq_4_amplitude_3_rep_9_t_D_2.0_ampflank_6.png	 D	 t	 b	 n.a.	 5.643972e-01
5	 1	 172	 flanked	 bex	 4	 6.000000	 2.000000	 flanked_bex_freq_4_amplitude_6_rep_9_t_K_2.0_ampflank_6.png	 K	 t	 t	 n.a.	 6.667857e-01
5	 1	 173	 flanked	 bex	 4	 1.000000	 2.000000	 flanked_bex_freq_4_amplitude_1_rep_4_r_H_2.0_ampflank_6.png	 H	 r	 r	 n.a.	 8.707223e-01
5	 1	 174	 flanked	 bex	 4	 3.000000	 2.000000	 flanked_bex_freq_4_amplitude_3_rep_7_r_H_2.0_ampflank_6.png	 H	 r	 r	 n.a.	 4.866740e-01
5	 1	 175	 flanked	 bex	 4	 2.000000	 2.000000	 flanked_bex_freq_4_amplitude_2_rep_4_t_K_2.0_ampflank_6.png	 K	 t	 t	 n.a.	 5.801384e-01
5	 1	 176	 flanked	 bex	 4	 1.000000	 2.000000	 flanked_bex_freq_4_amplitude_1_rep_2_l_K_2.0_ampflank_6.png	 K	 l	 r	 n.a.	 6.595434e-01
5	 1	 177	 flanked	 bex	 4	 2.000000	 2.000000	 flanked_bex_freq_4_amplitude_2_rep_6_b_D_2.0_ampflank_6.png	 D	 b	 b	 n.a.	 5.004745e-01
5	 1	 178	 flanked	 bex	 4	 2.000000	 2.000000	 flanked_bex_freq_4_amplitude_2_rep_0_r_D_2.0_ampflank_6.png	 D	 r	 l	 n.a.	 9.349279e-01
5	 1	 179	 flanked	 bex	 4	 6.000000	 2.000000	 flanked_bex_freq_4_amplitude_6_rep_1_l_K_2.0_ampflank_6.png	 K	 l	 l	 n.a.	 7.376563e-01
5	 1	 180	 flanked	 bex	 4	 1.000000	 2.000000	 flanked_bex_freq_4_amplitude_1_rep_1_r_N_2.0_ampflank_6.png	 N	 r	 t	 n.a.	 4.846522e-01
5	 1	 181	 flanked	 bex	 4	 1.000000	 2.000000	 flanked_bex_freq_4_amplitude_1_rep_6_r_N_2.0_ampflank_6.png	 N	 r	 b	 n.a.	 4.321427e-01
5	 1	 182	 flanked	 bex	 4	 2.000000	 2.000000	 flanked_bex_freq_4_amplitude_2_rep_3_r_D_2.0_ampflank_6.png	 D	 r	 t	 n.a.	 9.258787e-01
5	 1	 183	 flanked	 bex	 4	 0.500000	 2.000000	 flanked_bex_freq_4_amplitude_0.5_rep_0_b_K_2.0_ampflank_6.png	 K	 b	 l	 n.a.	 4.013322e-01
5	 1	 184	 flanked	 bex	 4	 1.000000	 2.000000	 flanked_bex_freq_4_amplitude_1_rep_3_b_D_2.0_ampflank_6.png	 D	 b	 b	 n.a.	 7.734706e-01
5	 1	 185	 flanked	 bex	 4	 3.000000	 2.000000	 flanked_bex_freq_4_amplitude_3_rep_7_r_H_2.0_ampflank_6.png	 H	 r	 r	 n.a.	 1.191344e+00
5	 1	 186	 flanked	 bex	 4	 0.500000	 2.000000	 flanked_bex_freq_4_amplitude_0.5_rep_0_b_K_2.0_ampflank_6.png	 K	 b	 l	 n.a.	 8.411216e-01
5	 1	 187	 flanked	 bex	 4	 5.000000	 2.000000	 flanked_bex_freq_4_amplitude_5_rep_1_t_D_2.0_ampflank_6.png	 D	 t	 t	 n.a.	 5.093301e-01
5	 1	 188	 flanked	 bex	 4	 5.000000	 2.000000	 flanked_bex_freq_4_amplitude_5_rep_4_r_H_2.0_ampflank_6.png	 H	 r	 r	 n.a.	 3.762875e-01
5	 1	 189	 flanked	 bex	 4	 3.000000	 2.000000	 flanked_bex_freq_4_amplitude_3_rep_0_b_H_2.0_ampflank_6.png	 H	 b	 l	 n.a.	 1.126871e+00
5	 1	 190	 flanked	 bex	 4	 0.500000	 2.000000	 flanked_bex_freq_4_amplitude_0.5_rep_4_l_N_2.0_ampflank_6.png	 N	 l	 t	 n.a.	 6.531590e-01
5	 1	 191	 flanked	 bex	 4	 4.000000	 2.000000	 flanked_bex_freq_4_amplitude_4_rep_6_l_K_2.0_ampflank_6.png	 K	 l	 l	 n.a.	 1.106761e+00
5	 1	 192	 flanked	 bex	 4	 0.500000	 2.000000	 flanked_bex_freq_4_amplitude_0.5_rep_3_b_K_2.0_ampflank_6.png	 K	 b	 t	 n.a.	 3.968761e-01
5	 1	 193	 flanked	 bex	 4	 3.000000	 2.000000	 flanked_bex_freq_4_amplitude_3_rep_6_l_H_2.0_ampflank_6.png	 H	 l	 b	 n.a.	 6.371856e-01
5	 1	 194	 flanked	 bex	 4	 6.000000	 2.000000	 flanked_bex_freq_4_amplitude_6_rep_4_t_N_2.0_ampflank_6.png	 N	 t	 t	 n.a.	 4.537248e-01
5	 1	 195	 flanked	 bex	 4	 0.500000	 2.000000	 flanked_bex_freq_4_amplitude_0.5_rep_4_l_N_2.0_ampflank_6.png	 N	 l	 b	 n.a.	 5.364493e-01
5	 1	 196	 flanked	 bex	 4	 6.000000	 2.000000	 flanked_bex_freq_4_amplitude_6_rep_2_t_D_2.0_ampflank_6.png	 D	 t	 t	 n.a.	 4.003974e-01
5	 1	 197	 flanked	 bex	 4	 5.000000	 2.000000	 flanked_bex_freq_4_amplitude_5_rep_7_l_H_2.0_ampflank_6.png	 H	 l	 l	 n.a.	 6.012734e-01
5	 1	 198	 flanked	 bex	 4	 3.000000	 2.000000	 flanked_bex_freq_4_amplitude_3_rep_1_b_D_2.0_ampflank_6.png	 D	 b	 t	 n.a.	 6.426653e-01
5	 1	 199	 flanked	 bex	 4	 4.000000	 2.000000	 flanked_bex_freq_4_amplitude_4_rep_5_b_H_2.0_ampflank_6.png	 H	 b	 b	 n.a.	 1.079969e+00
5	 1	 200	 flanked	 bex	 4	 0.500000	 2.000000	 flanked_bex_freq_4_amplitude_0.5_rep_7_b_N_2.0_ampflank_6.png	 N	 b	 r	 n.a.	 5.180523e-01
5	 1	 201	 flanked	 bex	 4	 4.000000	 2.000000	 flanked_bex_freq_4_amplitude_4_rep_4_r_D_2.0_ampflank_6.png	 D	 r	 t	 n.a.	 6.492677e-01
5	 1	 202	 flanked	 bex	 4	 2.000000	 2.000000	 flanked_bex_freq_4_amplitude_2_rep_4_t_K_2.0_ampflank_6.png	 K	 t	 t	 n.a.	 4.141295e-01
5	 1	 203	 flanked	 bex	 4	 6.000000	 2.000000	 flanked_bex_freq_4_amplitude_6_rep_7_l_D_2.0_ampflank_6.png	 D	 l	 l	 n.a.	 4.957425e-01
5	 1	 204	 flanked	 bex	 4	 0.500000	 2.000000	 flanked_bex_freq_4_amplitude_0.5_rep_2_b_N_2.0_ampflank_6.png	 N	 b	 r	 n.a.	 6.395551e-01
5	 1	 205	 flanked	 bex	 4	 6.000000	 2.000000	 flanked_bex_freq_4_amplitude_6_rep_2_t_D_2.0_ampflank_6.png	 D	 t	 t	 n.a.	 4.798762e-01
5	 1	 206	 flanked	 bex	 4	 5.000000	 2.000000	 flanked_bex_freq_4_amplitude_5_rep_5_l_K_2.0_ampflank_6.png	 K	 l	 b	 n.a.	 1.029424e+00
5	 1	 207	 flanked	 bex	 4	 3.000000	 2.000000	 flanked_bex_freq_4_amplitude_3_rep_3_t_D_2.0_ampflank_6.png	 D	 t	 t	 n.a.	 5.221420e-01
5	 1	 208	 flanked	 bex	 4	 1.000000	 2.000000	 flanked_bex_freq_4_amplitude_1_rep_4_r_H_2.0_ampflank_6.png	 H	 r	 r	 n.a.	 5.615983e-01
5	 1	 209	 flanked	 bex	 4	 5.000000	 2.000000	 flanked_bex_freq_4_amplitude_5_rep_8_r_D_2.0_ampflank_6.png	 D	 r	 t	 n.a.	 5.732767e-01
5	 1	 210	 flanked	 bex	 4	 5.000000	 2.000000	 flanked_bex_freq_4_amplitude_5_rep_9_l_K_2.0_ampflank_6.png	 K	 l	 l	 n.a.	 4.396825e-01
