subject	 session	 trial	 flanked	 distortion	 freq	 amplitude	 spacing	 im_name	 targ_letter	 targ_pos	 response	 eyemovement	 RT
2	 1	 1	 flanked	 rf	 4	 0.050000	 2.000000	 flanked_rf_freq_4_amplitude_0.05_rep_8_t_N_2.0.png	 N	 t	 b	 n.a.	 8.572877e-01
2	 1	 2	 flanked	 rf	 4	 0.050000	 2.000000	 flanked_rf_freq_4_amplitude_0.05_rep_3_b_H_2.0.png	 H	 b	 l	 n.a.	 5.607726e-01
2	 1	 3	 flanked	 rf	 4	 0.350000	 2.000000	 flanked_rf_freq_4_amplitude_0.35_rep_5_b_N_2.0.png	 N	 b	 b	 n.a.	 9.013498e-01
2	 1	 4	 flanked	 rf	 4	 0.200000	 2.000000	 flanked_rf_freq_4_amplitude_0.2_rep_4_r_H_2.0.png	 H	 r	 r	 n.a.	 7.878709e-01
2	 1	 5	 flanked	 rf	 4	 0.200000	 2.000000	 flanked_rf_freq_4_amplitude_0.2_rep_8_b_H_2.0.png	 H	 b	 b	 n.a.	 6.713118e-01
2	 1	 6	 flanked	 rf	 4	 0.275000	 2.000000	 flanked_rf_freq_4_amplitude_0.275_rep_6_l_K_2.0.png	 K	 l	 l	 n.a.	 9.849125e-01
2	 1	 7	 flanked	 rf	 4	 0.125000	 2.000000	 flanked_rf_freq_4_amplitude_0.125_rep_4_l_H_2.0.png	 H	 l	 b	 n.a.	 4.537929e-01
2	 1	 8	 flanked	 rf	 4	 0.350000	 2.000000	 flanked_rf_freq_4_amplitude_0.35_rep_8_t_H_2.0.png	 H	 t	 t	 n.a.	 7.096276e-01
2	 1	 9	 flanked	 rf	 4	 0.275000	 2.000000	 flanked_rf_freq_4_amplitude_0.275_rep_0_t_H_2.0.png	 H	 t	 r	 n.a.	 3.670542e-01
2	 1	 10	 flanked	 rf	 4	 0.200000	 2.000000	 flanked_rf_freq_4_amplitude_0.2_rep_1_l_K_2.0.png	 K	 l	 b	 n.a.	 3.273329e-01
2	 1	 11	 flanked	 rf	 4	 0.500000	 2.000000	 flanked_rf_freq_4_amplitude_0.5_rep_6_t_D_2.0.png	 D	 t	 b	 n.a.	 6.224801e-01
2	 1	 12	 flanked	 rf	 4	 0.350000	 2.000000	 flanked_rf_freq_4_amplitude_0.35_rep_0_l_D_2.0.png	 D	 l	 l	 n.a.	 6.676799e-01
2	 1	 13	 flanked	 rf	 4	 0.275000	 2.000000	 flanked_rf_freq_4_amplitude_0.275_rep_1_r_D_2.0.png	 D	 r	 b	 n.a.	 5.945670e-01
2	 1	 14	 flanked	 rf	 4	 0.275000	 2.000000	 flanked_rf_freq_4_amplitude_0.275_rep_5_l_D_2.0.png	 D	 l	 r	 n.a.	 6.452951e-01
2	 1	 15	 flanked	 rf	 4	 0.125000	 2.000000	 flanked_rf_freq_4_amplitude_0.125_rep_3_b_H_2.0.png	 H	 b	 b	 n.a.	 5.437844e-01
2	 1	 16	 flanked	 rf	 4	 0.200000	 2.000000	 flanked_rf_freq_4_amplitude_0.2_rep_5_r_D_2.0.png	 D	 r	 r	 n.a.	 5.163385e-01
2	 1	 17	 flanked	 rf	 4	 0.425000	 2.000000	 flanked_rf_freq_4_amplitude_0.425_rep_2_t_K_2.0.png	 K	 t	 b	 n.a.	 7.358570e-01
2	 1	 18	 flanked	 rf	 4	 0.500000	 2.000000	 flanked_rf_freq_4_amplitude_0.5_rep_4_b_H_2.0.png	 H	 b	 l	 n.a.	 6.004757e-01
2	 1	 19	 flanked	 rf	 4	 0.200000	 2.000000	 flanked_rf_freq_4_amplitude_0.2_rep_2_l_D_2.0.png	 D	 l	 b	 n.a.	 5.536257e-01
2	 1	 20	 flanked	 rf	 4	 0.050000	 2.000000	 flanked_rf_freq_4_amplitude_0.05_rep_3_b_H_2.0.png	 H	 b	 t	 n.a.	 3.857987e-01
2	 1	 21	 flanked	 rf	 4	 0.350000	 2.000000	 flanked_rf_freq_4_amplitude_0.35_rep_4_b_K_2.0.png	 K	 b	 b	 n.a.	 4.724261e-01
2	 1	 22	 flanked	 rf	 4	 0.125000	 2.000000	 flanked_rf_freq_4_amplitude_0.125_rep_5_t_N_2.0.png	 N	 t	 b	 n.a.	 5.132685e-01
2	 1	 23	 flanked	 rf	 4	 0.125000	 2.000000	 flanked_rf_freq_4_amplitude_0.125_rep_7_b_D_2.0.png	 D	 b	 r	 n.a.	 6.043906e-01
2	 1	 24	 flanked	 rf	 4	 0.425000	 2.000000	 flanked_rf_freq_4_amplitude_0.425_rep_6_t_K_2.0.png	 K	 t	 b	 n.a.	 5.327440e-01
2	 1	 25	 flanked	 rf	 4	 0.200000	 2.000000	 flanked_rf_freq_4_amplitude_0.2_rep_6_b_N_2.0.png	 N	 b	 b	 n.a.	 6.071751e-01
2	 1	 26	 flanked	 rf	 4	 0.500000	 2.000000	 flanked_rf_freq_4_amplitude_0.5_rep_2_r_H_2.0.png	 H	 r	 r	 n.a.	 9.707902e-01
2	 1	 27	 flanked	 rf	 4	 0.350000	 2.000000	 flanked_rf_freq_4_amplitude_0.35_rep_1_l_K_2.0.png	 K	 l	 r	 n.a.	 7.313618e-01
2	 1	 28	 flanked	 rf	 4	 0.425000	 2.000000	 flanked_rf_freq_4_amplitude_0.425_rep_9_r_D_2.0.png	 D	 r	 b	 n.a.	 4.053088e-01
2	 1	 29	 flanked	 rf	 4	 0.200000	 2.000000	 flanked_rf_freq_4_amplitude_0.2_rep_6_b_N_2.0.png	 N	 b	 l	 n.a.	 6.632562e-01
2	 1	 30	 flanked	 rf	 4	 0.050000	 2.000000	 flanked_rf_freq_4_amplitude_0.05_rep_5_b_K_2.0.png	 K	 b	 b	 n.a.	 5.572824e-01
2	 1	 31	 flanked	 rf	 4	 0.050000	 2.000000	 flanked_rf_freq_4_amplitude_0.05_rep_0_r_H_2.0.png	 H	 r	 r	 n.a.	 6.096165e-01
2	 1	 32	 flanked	 rf	 4	 0.500000	 2.000000	 flanked_rf_freq_4_amplitude_0.5_rep_9_l_K_2.0.png	 K	 l	 l	 n.a.	 9.723312e-01
2	 1	 33	 flanked	 rf	 4	 0.125000	 2.000000	 flanked_rf_freq_4_amplitude_0.125_rep_0_r_H_2.0.png	 H	 r	 l	 n.a.	 8.256302e-01
2	 1	 34	 flanked	 rf	 4	 0.500000	 2.000000	 flanked_rf_freq_4_amplitude_0.5_rep_0_b_N_2.0.png	 N	 b	 b	 n.a.	 5.454841e-01
2	 1	 35	 flanked	 rf	 4	 0.125000	 2.000000	 flanked_rf_freq_4_amplitude_0.125_rep_3_b_H_2.0.png	 H	 b	 r	 n.a.	 3.686959e-01
2	 1	 36	 flanked	 rf	 4	 0.500000	 2.000000	 flanked_rf_freq_4_amplitude_0.5_rep_7_t_D_2.0.png	 D	 t	 b	 n.a.	 5.996103e-01
2	 1	 37	 flanked	 rf	 4	 0.200000	 2.000000	 flanked_rf_freq_4_amplitude_0.2_rep_9_l_D_2.0.png	 D	 l	 r	 n.a.	 1.134237e+00
2	 1	 38	 flanked	 rf	 4	 0.425000	 2.000000	 flanked_rf_freq_4_amplitude_0.425_rep_3_t_K_2.0.png	 K	 t	 t	 n.a.	 7.188595e-01
2	 1	 39	 flanked	 rf	 4	 0.050000	 2.000000	 flanked_rf_freq_4_amplitude_0.05_rep_5_b_K_2.0.png	 K	 b	 l	 n.a.	 6.598449e-01
2	 1	 40	 flanked	 rf	 4	 0.125000	 2.000000	 flanked_rf_freq_4_amplitude_0.125_rep_1_l_K_2.0.png	 K	 l	 b	 n.a.	 4.181304e-01
2	 1	 41	 flanked	 rf	 4	 0.275000	 2.000000	 flanked_rf_freq_4_amplitude_0.275_rep_1_r_D_2.0.png	 D	 r	 r	 n.a.	 3.409836e-01
2	 1	 42	 flanked	 rf	 4	 0.050000	 2.000000	 flanked_rf_freq_4_amplitude_0.05_rep_2_t_N_2.0.png	 N	 t	 b	 n.a.	 5.487645e-01
2	 1	 43	 flanked	 rf	 4	 0.200000	 2.000000	 flanked_rf_freq_4_amplitude_0.2_rep_9_l_D_2.0.png	 D	 l	 l	 n.a.	 4.676015e-01
2	 1	 44	 flanked	 rf	 4	 0.350000	 2.000000	 flanked_rf_freq_4_amplitude_0.35_rep_1_l_K_2.0.png	 K	 l	 r	 n.a.	 8.671545e-01
2	 1	 45	 flanked	 rf	 4	 0.500000	 2.000000	 flanked_rf_freq_4_amplitude_0.5_rep_1_l_K_2.0.png	 K	 l	 l	 n.a.	 8.960859e-01
2	 1	 46	 flanked	 rf	 4	 0.200000	 2.000000	 flanked_rf_freq_4_amplitude_0.2_rep_3_r_K_2.0.png	 K	 r	 t	 n.a.	 6.050730e-01
2	 1	 47	 flanked	 rf	 4	 0.200000	 2.000000	 flanked_rf_freq_4_amplitude_0.2_rep_1_l_K_2.0.png	 K	 l	 l	 n.a.	 7.437776e-01
2	 1	 48	 flanked	 rf	 4	 0.125000	 2.000000	 flanked_rf_freq_4_amplitude_0.125_rep_1_l_K_2.0.png	 K	 l	 b	 n.a.	 6.507720e-01
2	 1	 49	 flanked	 rf	 4	 0.425000	 2.000000	 flanked_rf_freq_4_amplitude_0.425_rep_0_t_D_2.0.png	 D	 t	 r	 n.a.	 6.669344e-01
2	 1	 50	 flanked	 rf	 4	 0.500000	 2.000000	 flanked_rf_freq_4_amplitude_0.5_rep_5_l_N_2.0.png	 N	 l	 l	 n.a.	 1.197100e+00
2	 1	 51	 flanked	 rf	 4	 0.275000	 2.000000	 flanked_rf_freq_4_amplitude_0.275_rep_9_t_D_2.0.png	 D	 t	 l	 n.a.	 1.046863e+00
2	 1	 52	 flanked	 rf	 4	 0.275000	 2.000000	 flanked_rf_freq_4_amplitude_0.275_rep_3_b_N_2.0.png	 N	 b	 b	 n.a.	 8.060057e-01
2	 1	 53	 flanked	 rf	 4	 0.500000	 2.000000	 flanked_rf_freq_4_amplitude_0.5_rep_6_t_D_2.0.png	 D	 t	 b	 n.a.	 8.880920e-01
2	 1	 54	 flanked	 rf	 4	 0.500000	 2.000000	 flanked_rf_freq_4_amplitude_0.5_rep_2_r_H_2.0.png	 H	 r	 l	 n.a.	 8.166374e-01
2	 1	 55	 flanked	 rf	 4	 0.200000	 2.000000	 flanked_rf_freq_4_amplitude_0.2_rep_7_l_K_2.0.png	 K	 l	 b	 n.a.	 6.670055e-01
2	 1	 56	 flanked	 rf	 4	 0.200000	 2.000000	 flanked_rf_freq_4_amplitude_0.2_rep_6_b_N_2.0.png	 N	 b	 b	 n.a.	 7.859990e-01
2	 1	 57	 flanked	 rf	 4	 0.275000	 2.000000	 flanked_rf_freq_4_amplitude_0.275_rep_5_l_D_2.0.png	 D	 l	 l	 n.a.	 6.885931e-01
2	 1	 58	 flanked	 rf	 4	 0.275000	 2.000000	 flanked_rf_freq_4_amplitude_0.275_rep_9_t_D_2.0.png	 D	 t	 t	 n.a.	 1.246280e+00
2	 1	 59	 flanked	 rf	 4	 0.125000	 2.000000	 flanked_rf_freq_4_amplitude_0.125_rep_3_b_H_2.0.png	 H	 b	 l	 n.a.	 7.070671e-01
2	 1	 60	 flanked	 rf	 4	 0.125000	 2.000000	 flanked_rf_freq_4_amplitude_0.125_rep_5_t_N_2.0.png	 N	 t	 l	 n.a.	 5.754334e-01
2	 1	 61	 flanked	 rf	 4	 0.125000	 2.000000	 flanked_rf_freq_4_amplitude_0.125_rep_5_t_N_2.0.png	 N	 t	 b	 n.a.	 3.614821e-01
2	 1	 62	 flanked	 rf	 4	 0.275000	 2.000000	 flanked_rf_freq_4_amplitude_0.275_rep_2_t_H_2.0.png	 H	 t	 t	 n.a.	 6.567276e-01
2	 1	 63	 flanked	 rf	 4	 0.500000	 2.000000	 flanked_rf_freq_4_amplitude_0.5_rep_9_l_K_2.0.png	 K	 l	 b	 n.a.	 8.435647e-01
2	 1	 64	 flanked	 rf	 4	 0.200000	 2.000000	 flanked_rf_freq_4_amplitude_0.2_rep_0_t_D_2.0.png	 D	 t	 l	 n.a.	 7.475154e-01
2	 1	 65	 flanked	 rf	 4	 0.350000	 2.000000	 flanked_rf_freq_4_amplitude_0.35_rep_7_r_H_2.0.png	 H	 r	 l	 n.a.	 6.283430e-01
2	 1	 66	 flanked	 rf	 4	 0.350000	 2.000000	 flanked_rf_freq_4_amplitude_0.35_rep_3_b_H_2.0.png	 H	 b	 t	 n.a.	 9.163401e-01
2	 1	 67	 flanked	 rf	 4	 0.350000	 2.000000	 flanked_rf_freq_4_amplitude_0.35_rep_0_l_D_2.0.png	 D	 l	 l	 n.a.	 4.371644e-01
2	 1	 68	 flanked	 rf	 4	 0.050000	 2.000000	 flanked_rf_freq_4_amplitude_0.05_rep_0_r_H_2.0.png	 H	 r	 r	 n.a.	 5.123098e-01
2	 1	 69	 flanked	 rf	 4	 0.275000	 2.000000	 flanked_rf_freq_4_amplitude_0.275_rep_3_b_N_2.0.png	 N	 b	 l	 n.a.	 7.500006e-01
2	 1	 70	 flanked	 rf	 4	 0.350000	 2.000000	 flanked_rf_freq_4_amplitude_0.35_rep_3_b_H_2.0.png	 H	 b	 b	 n.a.	 6.351130e-01
2	 1	 71	 flanked	 rf	 4	 0.500000	 2.000000	 flanked_rf_freq_4_amplitude_0.5_rep_4_b_H_2.0.png	 H	 b	 b	 n.a.	 6.720743e-01
2	 1	 72	 flanked	 rf	 4	 0.275000	 2.000000	 flanked_rf_freq_4_amplitude_0.275_rep_5_l_D_2.0.png	 D	 l	 b	 n.a.	 7.923501e-01
2	 1	 73	 flanked	 rf	 4	 0.350000	 2.000000	 flanked_rf_freq_4_amplitude_0.35_rep_5_b_N_2.0.png	 N	 b	 l	 n.a.	 7.739936e-01
2	 1	 74	 flanked	 rf	 4	 0.350000	 2.000000	 flanked_rf_freq_4_amplitude_0.35_rep_0_l_D_2.0.png	 D	 l	 l	 n.a.	 6.222196e-01
2	 1	 75	 flanked	 rf	 4	 0.500000	 2.000000	 flanked_rf_freq_4_amplitude_0.5_rep_5_l_N_2.0.png	 N	 l	 b	 n.a.	 6.016711e-01
2	 1	 76	 flanked	 rf	 4	 0.050000	 2.000000	 flanked_rf_freq_4_amplitude_0.05_rep_2_t_N_2.0.png	 N	 t	 b	 n.a.	 4.591027e-01
2	 1	 77	 flanked	 rf	 4	 0.200000	 2.000000	 flanked_rf_freq_4_amplitude_0.2_rep_2_l_D_2.0.png	 D	 l	 b	 n.a.	 9.165832e-01
2	 1	 78	 flanked	 rf	 4	 0.125000	 2.000000	 flanked_rf_freq_4_amplitude_0.125_rep_4_l_H_2.0.png	 H	 l	 l	 n.a.	 8.112087e-01
2	 1	 79	 flanked	 rf	 4	 0.350000	 2.000000	 flanked_rf_freq_4_amplitude_0.35_rep_7_r_H_2.0.png	 H	 r	 l	 n.a.	 8.140481e-01
2	 1	 80	 flanked	 rf	 4	 0.500000	 2.000000	 flanked_rf_freq_4_amplitude_0.5_rep_3_t_H_2.0.png	 H	 t	 l	 n.a.	 1.081176e+00
2	 1	 81	 flanked	 rf	 4	 0.425000	 2.000000	 flanked_rf_freq_4_amplitude_0.425_rep_0_t_D_2.0.png	 D	 t	 r	 n.a.	 1.333586e+00
2	 1	 82	 flanked	 rf	 4	 0.200000	 2.000000	 flanked_rf_freq_4_amplitude_0.2_rep_2_l_D_2.0.png	 D	 l	 b	 n.a.	 5.909433e-01
2	 1	 83	 flanked	 rf	 4	 0.125000	 2.000000	 flanked_rf_freq_4_amplitude_0.125_rep_4_l_H_2.0.png	 H	 l	 t	 n.a.	 7.191191e-01
2	 1	 84	 flanked	 rf	 4	 0.350000	 2.000000	 flanked_rf_freq_4_amplitude_0.35_rep_9_b_H_2.0.png	 H	 b	 l	 n.a.	 8.411741e-01
2	 1	 85	 flanked	 rf	 4	 0.500000	 2.000000	 flanked_rf_freq_4_amplitude_0.5_rep_8_b_D_2.0.png	 D	 b	 b	 n.a.	 4.232746e-01
2	 1	 86	 flanked	 rf	 4	 0.050000	 2.000000	 flanked_rf_freq_4_amplitude_0.05_rep_4_l_N_2.0.png	 N	 l	 b	 n.a.	 5.946517e-01
2	 1	 87	 flanked	 rf	 4	 0.425000	 2.000000	 flanked_rf_freq_4_amplitude_0.425_rep_3_t_K_2.0.png	 K	 t	 t	 n.a.	 8.114114e-01
2	 1	 88	 flanked	 rf	 4	 0.350000	 2.000000	 flanked_rf_freq_4_amplitude_0.35_rep_1_l_K_2.0.png	 K	 l	 l	 n.a.	 7.625995e-01
2	 1	 89	 flanked	 rf	 4	 0.425000	 2.000000	 flanked_rf_freq_4_amplitude_0.425_rep_8_t_K_2.0.png	 K	 t	 l	 n.a.	 6.890994e-01
2	 1	 90	 flanked	 rf	 4	 0.425000	 2.000000	 flanked_rf_freq_4_amplitude_0.425_rep_9_r_D_2.0.png	 D	 r	 l	 n.a.	 8.501632e-01
2	 1	 91	 flanked	 rf	 4	 0.350000	 2.000000	 flanked_rf_freq_4_amplitude_0.35_rep_3_b_H_2.0.png	 H	 b	 b	 n.a.	 4.451731e-01
2	 1	 92	 flanked	 rf	 4	 0.425000	 2.000000	 flanked_rf_freq_4_amplitude_0.425_rep_2_t_K_2.0.png	 K	 t	 b	 n.a.	 1.086975e+00
2	 1	 93	 flanked	 rf	 4	 0.275000	 2.000000	 flanked_rf_freq_4_amplitude_0.275_rep_1_r_D_2.0.png	 D	 r	 l	 n.a.	 7.327143e-01
2	 1	 94	 flanked	 rf	 4	 0.050000	 2.000000	 flanked_rf_freq_4_amplitude_0.05_rep_6_t_N_2.0.png	 N	 t	 r	 n.a.	 5.000163e-01
2	 1	 95	 flanked	 rf	 4	 0.500000	 2.000000	 flanked_rf_freq_4_amplitude_0.5_rep_2_r_H_2.0.png	 H	 r	 t	 n.a.	 8.380843e-01
2	 1	 96	 flanked	 rf	 4	 0.200000	 2.000000	 flanked_rf_freq_4_amplitude_0.2_rep_7_l_K_2.0.png	 K	 l	 b	 n.a.	 6.331911e-01
2	 1	 97	 flanked	 rf	 4	 0.350000	 2.000000	 flanked_rf_freq_4_amplitude_0.35_rep_4_b_K_2.0.png	 K	 b	 r	 n.a.	 5.258466e-01
2	 1	 98	 flanked	 rf	 4	 0.425000	 2.000000	 flanked_rf_freq_4_amplitude_0.425_rep_1_b_K_2.0.png	 K	 b	 b	 n.a.	 8.536023e-01
2	 1	 99	 flanked	 rf	 4	 0.200000	 2.000000	 flanked_rf_freq_4_amplitude_0.2_rep_4_r_H_2.0.png	 H	 r	 b	 n.a.	 9.887163e-01
2	 1	 100	 flanked	 rf	 4	 0.125000	 2.000000	 flanked_rf_freq_4_amplitude_0.125_rep_8_t_K_2.0.png	 K	 t	 l	 n.a.	 7.311316e-01
2	 1	 101	 flanked	 rf	 4	 0.350000	 2.000000	 flanked_rf_freq_4_amplitude_0.35_rep_9_b_H_2.0.png	 H	 b	 b	 n.a.	 8.359390e-01
2	 1	 102	 flanked	 rf	 4	 0.500000	 2.000000	 flanked_rf_freq_4_amplitude_0.5_rep_4_b_H_2.0.png	 H	 b	 b	 n.a.	 8.996775e-01
2	 1	 103	 flanked	 rf	 4	 0.275000	 2.000000	 flanked_rf_freq_4_amplitude_0.275_rep_6_l_K_2.0.png	 K	 l	 b	 n.a.	 6.703351e-01
2	 1	 104	 flanked	 rf	 4	 0.275000	 2.000000	 flanked_rf_freq_4_amplitude_0.275_rep_0_t_H_2.0.png	 H	 t	 b	 n.a.	 5.954259e-01
2	 1	 105	 flanked	 rf	 4	 0.050000	 2.000000	 flanked_rf_freq_4_amplitude_0.05_rep_1_b_K_2.0.png	 K	 b	 t	 n.a.	 7.107463e-01
2	 1	 106	 flanked	 rf	 4	 0.275000	 2.000000	 flanked_rf_freq_4_amplitude_0.275_rep_7_b_K_2.0.png	 K	 b	 t	 n.a.	 8.116269e-01
2	 1	 107	 flanked	 rf	 4	 0.275000	 2.000000	 flanked_rf_freq_4_amplitude_0.275_rep_7_b_K_2.0.png	 K	 b	 l	 n.a.	 8.349936e-01
2	 1	 108	 flanked	 rf	 4	 0.350000	 2.000000	 flanked_rf_freq_4_amplitude_0.35_rep_6_l_H_2.0.png	 H	 l	 r	 n.a.	 9.190354e-01
2	 1	 109	 flanked	 rf	 4	 0.050000	 2.000000	 flanked_rf_freq_4_amplitude_0.05_rep_9_t_N_2.0.png	 N	 t	 t	 n.a.	 7.188767e-01
2	 1	 110	 flanked	 rf	 4	 0.200000	 2.000000	 flanked_rf_freq_4_amplitude_0.2_rep_0_t_D_2.0.png	 D	 t	 l	 n.a.	 7.923191e-01
2	 1	 111	 flanked	 rf	 4	 0.500000	 2.000000	 flanked_rf_freq_4_amplitude_0.5_rep_3_t_H_2.0.png	 H	 t	 l	 n.a.	 6.137702e-01
2	 1	 112	 flanked	 rf	 4	 0.425000	 2.000000	 flanked_rf_freq_4_amplitude_0.425_rep_1_b_K_2.0.png	 K	 b	 b	 n.a.	 3.720939e-01
2	 1	 113	 flanked	 rf	 4	 0.275000	 2.000000	 flanked_rf_freq_4_amplitude_0.275_rep_9_t_D_2.0.png	 D	 t	 l	 n.a.	 6.708436e-01
2	 1	 114	 flanked	 rf	 4	 0.200000	 2.000000	 flanked_rf_freq_4_amplitude_0.2_rep_1_l_K_2.0.png	 K	 l	 b	 n.a.	 4.192763e-01
2	 1	 115	 flanked	 rf	 4	 0.425000	 2.000000	 flanked_rf_freq_4_amplitude_0.425_rep_8_t_K_2.0.png	 K	 t	 l	 n.a.	 5.293709e-01
2	 1	 116	 flanked	 rf	 4	 0.425000	 2.000000	 flanked_rf_freq_4_amplitude_0.425_rep_7_t_H_2.0.png	 H	 t	 b	 n.a.	 4.302193e-01
2	 1	 117	 flanked	 rf	 4	 0.350000	 2.000000	 flanked_rf_freq_4_amplitude_0.35_rep_7_r_H_2.0.png	 H	 r	 b	 n.a.	 5.812420e-01
2	 1	 118	 flanked	 rf	 4	 0.275000	 2.000000	 flanked_rf_freq_4_amplitude_0.275_rep_4_l_H_2.0.png	 H	 l	 l	 n.a.	 6.033068e-01
2	 1	 119	 flanked	 rf	 4	 0.050000	 2.000000	 flanked_rf_freq_4_amplitude_0.05_rep_5_b_K_2.0.png	 K	 b	 t	 n.a.	 9.194925e-01
2	 1	 120	 flanked	 rf	 4	 0.275000	 2.000000	 flanked_rf_freq_4_amplitude_0.275_rep_8_b_N_2.0.png	 N	 b	 b	 n.a.	 5.349634e-01
2	 1	 121	 flanked	 rf	 4	 0.200000	 2.000000	 flanked_rf_freq_4_amplitude_0.2_rep_7_l_K_2.0.png	 K	 l	 b	 n.a.	 4.396289e-01
2	 1	 122	 flanked	 rf	 4	 0.425000	 2.000000	 flanked_rf_freq_4_amplitude_0.425_rep_4_l_H_2.0.png	 H	 l	 b	 n.a.	 1.043120e+00
2	 1	 123	 flanked	 rf	 4	 0.500000	 2.000000	 flanked_rf_freq_4_amplitude_0.5_rep_9_l_K_2.0.png	 K	 l	 l	 n.a.	 8.956816e-01
2	 1	 124	 flanked	 rf	 4	 0.050000	 2.000000	 flanked_rf_freq_4_amplitude_0.05_rep_4_l_N_2.0.png	 N	 l	 r	 n.a.	 1.106520e+00
2	 1	 125	 flanked	 rf	 4	 0.125000	 2.000000	 flanked_rf_freq_4_amplitude_0.125_rep_9_t_N_2.0.png	 N	 t	 b	 n.a.	 5.562138e-01
2	 1	 126	 flanked	 rf	 4	 0.200000	 2.000000	 flanked_rf_freq_4_amplitude_0.2_rep_3_r_K_2.0.png	 K	 r	 t	 n.a.	 9.370975e-01
2	 1	 127	 flanked	 rf	 4	 0.125000	 2.000000	 flanked_rf_freq_4_amplitude_0.125_rep_0_r_H_2.0.png	 H	 r	 l	 n.a.	 4.584430e-01
2	 1	 128	 flanked	 rf	 4	 0.500000	 2.000000	 flanked_rf_freq_4_amplitude_0.5_rep_8_b_D_2.0.png	 D	 b	 b	 n.a.	 3.712068e-01
2	 1	 129	 flanked	 rf	 4	 0.050000	 2.000000	 flanked_rf_freq_4_amplitude_0.05_rep_7_r_H_2.0.png	 H	 r	 l	 n.a.	 8.348610e-01
2	 1	 130	 flanked	 rf	 4	 0.275000	 2.000000	 flanked_rf_freq_4_amplitude_0.275_rep_3_b_N_2.0.png	 N	 b	 b	 n.a.	 7.182301e-01
2	 1	 131	 flanked	 rf	 4	 0.050000	 2.000000	 flanked_rf_freq_4_amplitude_0.05_rep_9_t_N_2.0.png	 N	 t	 t	 n.a.	 7.300354e-01
2	 1	 132	 flanked	 rf	 4	 0.350000	 2.000000	 flanked_rf_freq_4_amplitude_0.35_rep_8_t_H_2.0.png	 H	 t	 l	 n.a.	 7.020925e-01
2	 1	 133	 flanked	 rf	 4	 0.500000	 2.000000	 flanked_rf_freq_4_amplitude_0.5_rep_0_b_N_2.0.png	 N	 b	 t	 n.a.	 7.713298e-01
2	 1	 134	 flanked	 rf	 4	 0.050000	 2.000000	 flanked_rf_freq_4_amplitude_0.05_rep_7_r_H_2.0.png	 H	 r	 b	 n.a.	 3.576879e-01
2	 1	 135	 flanked	 rf	 4	 0.350000	 2.000000	 flanked_rf_freq_4_amplitude_0.35_rep_4_b_K_2.0.png	 K	 b	 b	 n.a.	 8.969616e-01
2	 1	 136	 flanked	 rf	 4	 0.350000	 2.000000	 flanked_rf_freq_4_amplitude_0.35_rep_2_b_K_2.0.png	 K	 b	 l	 n.a.	 1.027122e+00
2	 1	 137	 flanked	 rf	 4	 0.275000	 2.000000	 flanked_rf_freq_4_amplitude_0.275_rep_4_l_H_2.0.png	 H	 l	 l	 n.a.	 5.797708e-01
2	 1	 138	 flanked	 rf	 4	 0.200000	 2.000000	 flanked_rf_freq_4_amplitude_0.2_rep_8_b_H_2.0.png	 H	 b	 b	 n.a.	 4.398905e-01
2	 1	 139	 flanked	 rf	 4	 0.200000	 2.000000	 flanked_rf_freq_4_amplitude_0.2_rep_4_r_H_2.0.png	 H	 r	 r	 n.a.	 4.661059e-01
2	 1	 140	 flanked	 rf	 4	 0.125000	 2.000000	 flanked_rf_freq_4_amplitude_0.125_rep_0_r_H_2.0.png	 H	 r	 r	 n.a.	 9.036609e-01
2	 1	 141	 flanked	 rf	 4	 0.350000	 2.000000	 flanked_rf_freq_4_amplitude_0.35_rep_6_l_H_2.0.png	 H	 l	 b	 n.a.	 5.650143e-01
2	 1	 142	 flanked	 rf	 4	 0.125000	 2.000000	 flanked_rf_freq_4_amplitude_0.125_rep_1_l_K_2.0.png	 K	 l	 r	 n.a.	 4.472208e-01
2	 1	 143	 flanked	 rf	 4	 0.050000	 2.000000	 flanked_rf_freq_4_amplitude_0.05_rep_1_b_K_2.0.png	 K	 b	 l	 n.a.	 4.717613e-01
2	 1	 144	 flanked	 rf	 4	 0.125000	 2.000000	 flanked_rf_freq_4_amplitude_0.125_rep_6_b_N_2.0.png	 N	 b	 t	 n.a.	 9.703486e-01
2	 1	 145	 flanked	 rf	 4	 0.050000	 2.000000	 flanked_rf_freq_4_amplitude_0.05_rep_1_b_K_2.0.png	 K	 b	 b	 n.a.	 3.234143e-01
2	 1	 146	 flanked	 rf	 4	 0.125000	 2.000000	 flanked_rf_freq_4_amplitude_0.125_rep_7_b_D_2.0.png	 D	 b	 r	 n.a.	 4.197806e-01
2	 1	 147	 flanked	 rf	 4	 0.050000	 2.000000	 flanked_rf_freq_4_amplitude_0.05_rep_4_l_N_2.0.png	 N	 l	 b	 n.a.	 3.211040e-01
2	 1	 148	 flanked	 rf	 4	 0.425000	 2.000000	 flanked_rf_freq_4_amplitude_0.425_rep_0_t_D_2.0.png	 D	 t	 b	 n.a.	 5.090395e-01
2	 1	 149	 flanked	 rf	 4	 0.350000	 2.000000	 flanked_rf_freq_4_amplitude_0.35_rep_5_b_N_2.0.png	 N	 b	 l	 n.a.	 7.000405e-01
2	 1	 150	 flanked	 rf	 4	 0.350000	 2.000000	 flanked_rf_freq_4_amplitude_0.35_rep_6_l_H_2.0.png	 H	 l	 b	 n.a.	 5.285717e-01
2	 1	 151	 flanked	 rf	 4	 0.500000	 2.000000	 flanked_rf_freq_4_amplitude_0.5_rep_8_b_D_2.0.png	 D	 b	 b	 n.a.	 5.007152e-01
2	 1	 152	 flanked	 rf	 4	 0.425000	 2.000000	 flanked_rf_freq_4_amplitude_0.425_rep_6_t_K_2.0.png	 K	 t	 l	 n.a.	 7.016158e-01
2	 1	 153	 flanked	 rf	 4	 0.500000	 2.000000	 flanked_rf_freq_4_amplitude_0.5_rep_7_t_D_2.0.png	 D	 t	 b	 n.a.	 6.678164e-01
2	 1	 154	 flanked	 rf	 4	 0.125000	 2.000000	 flanked_rf_freq_4_amplitude_0.125_rep_6_b_N_2.0.png	 N	 b	 r	 n.a.	 1.186242e+00
2	 1	 155	 flanked	 rf	 4	 0.275000	 2.000000	 flanked_rf_freq_4_amplitude_0.275_rep_6_l_K_2.0.png	 K	 l	 t	 n.a.	 7.731114e-01
2	 1	 156	 flanked	 rf	 4	 0.050000	 2.000000	 flanked_rf_freq_4_amplitude_0.05_rep_2_t_N_2.0.png	 N	 t	 b	 n.a.	 6.378802e-01
2	 1	 157	 flanked	 rf	 4	 0.350000	 2.000000	 flanked_rf_freq_4_amplitude_0.35_rep_8_t_H_2.0.png	 H	 t	 l	 n.a.	 7.104162e-01
2	 1	 158	 flanked	 rf	 4	 0.425000	 2.000000	 flanked_rf_freq_4_amplitude_0.425_rep_8_t_K_2.0.png	 K	 t	 l	 n.a.	 9.853583e-01
2	 1	 159	 flanked	 rf	 4	 0.425000	 2.000000	 flanked_rf_freq_4_amplitude_0.425_rep_7_t_H_2.0.png	 H	 t	 t	 n.a.	 8.947889e-01
2	 1	 160	 flanked	 rf	 4	 0.200000	 2.000000	 flanked_rf_freq_4_amplitude_0.2_rep_8_b_H_2.0.png	 H	 b	 b	 n.a.	 6.299179e-01
2	 1	 161	 flanked	 rf	 4	 0.500000	 2.000000	 flanked_rf_freq_4_amplitude_0.5_rep_0_b_N_2.0.png	 N	 b	 b	 n.a.	 4.772792e-01
2	 1	 162	 flanked	 rf	 4	 0.500000	 2.000000	 flanked_rf_freq_4_amplitude_0.5_rep_5_l_N_2.0.png	 N	 l	 l	 n.a.	 5.140511e-01
2	 1	 163	 flanked	 rf	 4	 0.425000	 2.000000	 flanked_rf_freq_4_amplitude_0.425_rep_5_b_N_2.0.png	 N	 b	 b	 n.a.	 6.231895e-01
2	 1	 164	 flanked	 rf	 4	 0.125000	 2.000000	 flanked_rf_freq_4_amplitude_0.125_rep_9_t_N_2.0.png	 N	 t	 l	 n.a.	 7.406837e-01
2	 1	 165	 flanked	 rf	 4	 0.125000	 2.000000	 flanked_rf_freq_4_amplitude_0.125_rep_8_t_K_2.0.png	 K	 t	 b	 n.a.	 5.128218e-01
2	 1	 166	 flanked	 rf	 4	 0.275000	 2.000000	 flanked_rf_freq_4_amplitude_0.275_rep_4_l_H_2.0.png	 H	 l	 l	 n.a.	 8.713968e-01
2	 1	 167	 flanked	 rf	 4	 0.125000	 2.000000	 flanked_rf_freq_4_amplitude_0.125_rep_2_l_D_2.0.png	 D	 l	 r	 n.a.	 7.967979e-01
2	 1	 168	 flanked	 rf	 4	 0.125000	 2.000000	 flanked_rf_freq_4_amplitude_0.125_rep_8_t_K_2.0.png	 K	 t	 b	 n.a.	 5.773220e-01
2	 1	 169	 flanked	 rf	 4	 0.350000	 2.000000	 flanked_rf_freq_4_amplitude_0.35_rep_2_b_K_2.0.png	 K	 b	 l	 n.a.	 3.919092e-01
2	 1	 170	 flanked	 rf	 4	 0.125000	 2.000000	 flanked_rf_freq_4_amplitude_0.125_rep_6_b_N_2.0.png	 N	 b	 b	 n.a.	 5.877697e-01
2	 1	 171	 flanked	 rf	 4	 0.050000	 2.000000	 flanked_rf_freq_4_amplitude_0.05_rep_6_t_N_2.0.png	 N	 t	 t	 n.a.	 7.337565e-01
2	 1	 172	 flanked	 rf	 4	 0.425000	 2.000000	 flanked_rf_freq_4_amplitude_0.425_rep_6_t_K_2.0.png	 K	 t	 l	 n.a.	 6.122114e-01
2	 1	 173	 flanked	 rf	 4	 0.125000	 2.000000	 flanked_rf_freq_4_amplitude_0.125_rep_9_t_N_2.0.png	 N	 t	 b	 n.a.	 3.790315e-01
2	 1	 174	 flanked	 rf	 4	 0.050000	 2.000000	 flanked_rf_freq_4_amplitude_0.05_rep_6_t_N_2.0.png	 N	 t	 t	 n.a.	 6.960231e-01
2	 1	 175	 flanked	 rf	 4	 0.275000	 2.000000	 flanked_rf_freq_4_amplitude_0.275_rep_7_b_K_2.0.png	 K	 b	 b	 n.a.	 6.466725e-01
2	 1	 176	 flanked	 rf	 4	 0.200000	 2.000000	 flanked_rf_freq_4_amplitude_0.2_rep_0_t_D_2.0.png	 D	 t	 t	 n.a.	 8.029277e-01
2	 1	 177	 flanked	 rf	 4	 0.275000	 2.000000	 flanked_rf_freq_4_amplitude_0.275_rep_8_b_N_2.0.png	 N	 b	 l	 n.a.	 1.354926e+00
2	 1	 178	 flanked	 rf	 4	 0.200000	 2.000000	 flanked_rf_freq_4_amplitude_0.2_rep_5_r_D_2.0.png	 D	 r	 b	 n.a.	 9.553537e-01
2	 1	 179	 flanked	 rf	 4	 0.275000	 2.000000	 flanked_rf_freq_4_amplitude_0.275_rep_2_t_H_2.0.png	 H	 t	 t	 n.a.	 1.017114e+00
2	 1	 180	 flanked	 rf	 4	 0.275000	 2.000000	 flanked_rf_freq_4_amplitude_0.275_rep_0_t_H_2.0.png	 H	 t	 l	 n.a.	 8.913934e-01
2	 1	 181	 flanked	 rf	 4	 0.350000	 2.000000	 flanked_rf_freq_4_amplitude_0.35_rep_9_b_H_2.0.png	 H	 b	 t	 n.a.	 8.804853e-01
2	 1	 182	 flanked	 rf	 4	 0.500000	 2.000000	 flanked_rf_freq_4_amplitude_0.5_rep_3_t_H_2.0.png	 H	 t	 b	 n.a.	 5.090783e-01
2	 1	 183	 flanked	 rf	 4	 0.125000	 2.000000	 flanked_rf_freq_4_amplitude_0.125_rep_2_l_D_2.0.png	 D	 l	 t	 n.a.	 7.171795e-01
2	 1	 184	 flanked	 rf	 4	 0.425000	 2.000000	 flanked_rf_freq_4_amplitude_0.425_rep_9_r_D_2.0.png	 D	 r	 r	 n.a.	 6.924772e-01
2	 1	 185	 flanked	 rf	 4	 0.200000	 2.000000	 flanked_rf_freq_4_amplitude_0.2_rep_9_l_D_2.0.png	 D	 l	 l	 n.a.	 7.934329e-01
2	 1	 186	 flanked	 rf	 4	 0.500000	 2.000000	 flanked_rf_freq_4_amplitude_0.5_rep_1_l_K_2.0.png	 K	 l	 l	 n.a.	 8.311594e-01
2	 1	 187	 flanked	 rf	 4	 0.425000	 2.000000	 flanked_rf_freq_4_amplitude_0.425_rep_5_b_N_2.0.png	 N	 b	 b	 n.a.	 6.065714e-01
2	 1	 188	 flanked	 rf	 4	 0.050000	 2.000000	 flanked_rf_freq_4_amplitude_0.05_rep_8_t_N_2.0.png	 N	 t	 t	 n.a.	 8.757518e-01
2	 1	 189	 flanked	 rf	 4	 0.200000	 2.000000	 flanked_rf_freq_4_amplitude_0.2_rep_5_r_D_2.0.png	 D	 r	 l	 n.a.	 5.025123e-01
2	 1	 190	 flanked	 rf	 4	 0.500000	 2.000000	 flanked_rf_freq_4_amplitude_0.5_rep_6_t_D_2.0.png	 D	 t	 b	 n.a.	 5.187761e-01
2	 1	 191	 flanked	 rf	 4	 0.125000	 2.000000	 flanked_rf_freq_4_amplitude_0.125_rep_7_b_D_2.0.png	 D	 b	 t	 n.a.	 4.960560e-01
2	 1	 192	 flanked	 rf	 4	 0.425000	 2.000000	 flanked_rf_freq_4_amplitude_0.425_rep_4_l_H_2.0.png	 H	 l	 r	 n.a.	 8.944236e-01
2	 1	 193	 flanked	 rf	 4	 0.200000	 2.000000	 flanked_rf_freq_4_amplitude_0.2_rep_3_r_K_2.0.png	 K	 r	 b	 n.a.	 6.448126e-01
2	 1	 194	 flanked	 rf	 4	 0.425000	 2.000000	 flanked_rf_freq_4_amplitude_0.425_rep_7_t_H_2.0.png	 H	 t	 l	 n.a.	 9.667120e-01
2	 1	 195	 flanked	 rf	 4	 0.050000	 2.000000	 flanked_rf_freq_4_amplitude_0.05_rep_9_t_N_2.0.png	 N	 t	 t	 n.a.	 6.479813e-01
2	 1	 196	 flanked	 rf	 4	 0.425000	 2.000000	 flanked_rf_freq_4_amplitude_0.425_rep_1_b_K_2.0.png	 K	 b	 t	 n.a.	 1.275312e+00
2	 1	 197	 flanked	 rf	 4	 0.125000	 2.000000	 flanked_rf_freq_4_amplitude_0.125_rep_2_l_D_2.0.png	 D	 l	 l	 n.a.	 6.525467e-01
2	 1	 198	 flanked	 rf	 4	 0.050000	 2.000000	 flanked_rf_freq_4_amplitude_0.05_rep_8_t_N_2.0.png	 N	 t	 b	 n.a.	 4.731911e-01
2	 1	 199	 flanked	 rf	 4	 0.050000	 2.000000	 flanked_rf_freq_4_amplitude_0.05_rep_7_r_H_2.0.png	 H	 r	 t	 n.a.	 4.387211e-01
2	 1	 200	 flanked	 rf	 4	 0.275000	 2.000000	 flanked_rf_freq_4_amplitude_0.275_rep_2_t_H_2.0.png	 H	 t	 l	 n.a.	 6.814999e-01
2	 1	 201	 flanked	 rf	 4	 0.425000	 2.000000	 flanked_rf_freq_4_amplitude_0.425_rep_5_b_N_2.0.png	 N	 b	 r	 n.a.	 7.432864e-01
2	 1	 202	 flanked	 rf	 4	 0.275000	 2.000000	 flanked_rf_freq_4_amplitude_0.275_rep_8_b_N_2.0.png	 N	 b	 b	 n.a.	 5.305514e-01
2	 1	 203	 flanked	 rf	 4	 0.050000	 2.000000	 flanked_rf_freq_4_amplitude_0.05_rep_3_b_H_2.0.png	 H	 b	 l	 n.a.	 4.975756e-01
2	 1	 204	 flanked	 rf	 4	 0.050000	 2.000000	 flanked_rf_freq_4_amplitude_0.05_rep_0_r_H_2.0.png	 H	 r	 b	 n.a.	 4.964306e-01
2	 1	 205	 flanked	 rf	 4	 0.350000	 2.000000	 flanked_rf_freq_4_amplitude_0.35_rep_2_b_K_2.0.png	 K	 b	 r	 n.a.	 8.522093e-01
2	 1	 206	 flanked	 rf	 4	 0.425000	 2.000000	 flanked_rf_freq_4_amplitude_0.425_rep_4_l_H_2.0.png	 H	 l	 l	 n.a.	 8.278618e-01
2	 1	 207	 flanked	 rf	 4	 0.500000	 2.000000	 flanked_rf_freq_4_amplitude_0.5_rep_7_t_D_2.0.png	 D	 t	 l	 n.a.	 8.957717e-01
2	 1	 208	 flanked	 rf	 4	 0.500000	 2.000000	 flanked_rf_freq_4_amplitude_0.5_rep_1_l_K_2.0.png	 K	 l	 b	 n.a.	 1.281407e+00
2	 1	 209	 flanked	 rf	 4	 0.425000	 2.000000	 flanked_rf_freq_4_amplitude_0.425_rep_3_t_K_2.0.png	 K	 t	 b	 n.a.	 1.535356e+00
2	 1	 210	 flanked	 rf	 4	 0.425000	 2.000000	 flanked_rf_freq_4_amplitude_0.425_rep_2_t_K_2.0.png	 K	 t	 r	 n.a.	 1.862329e+00
