subject	 session	 trial	 flanked	 distortion	 freq	 amplitude	 spacing	 im_name	 targ_letter	 targ_pos	 response	 eyemovement	 RT
2	 1	 1	 flanked	 bex	 4	 1.000000	 2.000000	 flanked_bex_freq_4_amplitude_1_rep_2_l_D_2.0.png	 D	 l	 b	 n.a.	 9.836215e-01
2	 1	 2	 flanked	 bex	 4	 1.000000	 2.000000	 flanked_bex_freq_4_amplitude_1_rep_7_b_H_2.0.png	 H	 b	 l	 n.a.	 5.083051e-01
2	 1	 3	 flanked	 bex	 4	 1.000000	 2.000000	 flanked_bex_freq_4_amplitude_1_rep_5_b_N_2.0.png	 N	 b	 t	 n.a.	 8.772891e-01
2	 1	 4	 flanked	 bex	 4	 3.000000	 2.000000	 flanked_bex_freq_4_amplitude_3_rep_3_l_N_2.0.png	 N	 l	 r	 n.a.	 1.094055e+00
2	 1	 5	 flanked	 bex	 4	 3.000000	 2.000000	 flanked_bex_freq_4_amplitude_3_rep_9_b_K_2.0.png	 K	 b	 l	 n.a.	 9.404898e-01
2	 1	 6	 flanked	 bex	 4	 3.000000	 2.000000	 flanked_bex_freq_4_amplitude_3_rep_5_l_H_2.0.png	 H	 l	 l	 n.a.	 7.375308e-01
2	 1	 7	 flanked	 bex	 4	 7.000000	 2.000000	 flanked_bex_freq_4_amplitude_7_rep_3_b_D_2.0.png	 D	 b	 b	 n.a.	 1.686974e+00
2	 1	 8	 flanked	 bex	 4	 2.000000	 2.000000	 flanked_bex_freq_4_amplitude_2_rep_1_t_D_2.0.png	 D	 t	 t	 n.a.	 8.603364e-01
2	 1	 9	 flanked	 bex	 4	 4.000000	 2.000000	 flanked_bex_freq_4_amplitude_4_rep_1_l_N_2.0.png	 N	 l	 r	 n.a.	 1.292814e+00
2	 1	 10	 flanked	 bex	 4	 3.000000	 2.000000	 flanked_bex_freq_4_amplitude_3_rep_4_t_H_2.0.png	 H	 t	 l	 n.a.	 1.009033e+00
2	 1	 11	 flanked	 bex	 4	 6.000000	 2.000000	 flanked_bex_freq_4_amplitude_6_rep_0_b_K_2.0.png	 K	 b	 l	 n.a.	 8.256388e-01
2	 1	 12	 flanked	 bex	 4	 6.000000	 2.000000	 flanked_bex_freq_4_amplitude_6_rep_9_b_K_2.0.png	 K	 b	 r	 n.a.	 7.692032e-01
2	 1	 13	 flanked	 bex	 4	 1.000000	 2.000000	 flanked_bex_freq_4_amplitude_1_rep_8_t_K_2.0.png	 K	 t	 r	 n.a.	 1.031695e+00
2	 1	 14	 flanked	 bex	 4	 1.000000	 2.000000	 flanked_bex_freq_4_amplitude_1_rep_9_b_D_2.0.png	 D	 b	 b	 n.a.	 4.967206e-01
2	 1	 15	 flanked	 bex	 4	 4.000000	 2.000000	 flanked_bex_freq_4_amplitude_4_rep_5_t_H_2.0.png	 H	 t	 t	 n.a.	 6.683950e-01
2	 1	 16	 flanked	 bex	 4	 5.000000	 2.000000	 flanked_bex_freq_4_amplitude_5_rep_5_r_D_2.0.png	 D	 r	 r	 n.a.	 7.675257e-01
2	 1	 17	 flanked	 bex	 4	 7.000000	 2.000000	 flanked_bex_freq_4_amplitude_7_rep_9_r_N_2.0.png	 N	 r	 r	 n.a.	 5.851314e-01
2	 1	 18	 flanked	 bex	 4	 3.000000	 2.000000	 flanked_bex_freq_4_amplitude_3_rep_1_l_D_2.0.png	 D	 l	 r	 n.a.	 4.912662e-01
2	 1	 19	 flanked	 bex	 4	 1.000000	 2.000000	 flanked_bex_freq_4_amplitude_1_rep_3_b_K_2.0.png	 K	 b	 b	 n.a.	 4.076561e-01
2	 1	 20	 flanked	 bex	 4	 1.000000	 2.000000	 flanked_bex_freq_4_amplitude_1_rep_0_l_H_2.0.png	 H	 l	 l	 n.a.	 5.055244e-01
2	 1	 21	 flanked	 bex	 4	 4.000000	 2.000000	 flanked_bex_freq_4_amplitude_4_rep_4_l_N_2.0.png	 N	 l	 l	 n.a.	 9.273723e-01
2	 1	 22	 flanked	 bex	 4	 7.000000	 2.000000	 flanked_bex_freq_4_amplitude_7_rep_3_b_D_2.0.png	 D	 b	 b	 n.a.	 7.121886e-01
2	 1	 23	 flanked	 bex	 4	 7.000000	 2.000000	 flanked_bex_freq_4_amplitude_7_rep_1_b_K_2.0.png	 K	 b	 t	 n.a.	 3.373383e-01
2	 1	 24	 flanked	 bex	 4	 2.000000	 2.000000	 flanked_bex_freq_4_amplitude_2_rep_8_b_H_2.0.png	 H	 b	 l	 n.a.	 3.397328e-01
2	 1	 25	 flanked	 bex	 4	 2.000000	 2.000000	 flanked_bex_freq_4_amplitude_2_rep_7_l_H_2.0.png	 H	 l	 b	 n.a.	 1.563849e-01
2	 1	 26	 flanked	 bex	 4	 4.000000	 2.000000	 flanked_bex_freq_4_amplitude_4_rep_0_b_H_2.0.png	 H	 b	 t	 n.a.	 2.380752e-01
2	 1	 27	 flanked	 bex	 4	 2.000000	 2.000000	 flanked_bex_freq_4_amplitude_2_rep_9_r_D_2.0.png	 D	 r	 r	 n.a.	 5.564411e-01
2	 1	 28	 flanked	 bex	 4	 6.000000	 2.000000	 flanked_bex_freq_4_amplitude_6_rep_3_b_D_2.0.png	 D	 b	 l	 n.a.	 5.496825e-01
2	 1	 29	 flanked	 bex	 4	 5.000000	 2.000000	 flanked_bex_freq_4_amplitude_5_rep_4_t_N_2.0.png	 N	 t	 b	 n.a.	 2.786876e-01
2	 1	 30	 flanked	 bex	 4	 7.000000	 2.000000	 flanked_bex_freq_4_amplitude_7_rep_8_b_K_2.0.png	 K	 b	 r	 n.a.	 2.181378e-01
2	 1	 31	 flanked	 bex	 4	 1.000000	 2.000000	 flanked_bex_freq_4_amplitude_1_rep_5_b_N_2.0.png	 N	 b	 t	 n.a.	 5.733662e-01
2	 1	 32	 flanked	 bex	 4	 2.000000	 2.000000	 flanked_bex_freq_4_amplitude_2_rep_5_r_N_2.0.png	 N	 r	 b	 n.a.	 3.100452e-01
2	 1	 33	 flanked	 bex	 4	 6.000000	 2.000000	 flanked_bex_freq_4_amplitude_6_rep_9_b_K_2.0.png	 K	 b	 r	 n.a.	 8.169468e-01
2	 1	 34	 flanked	 bex	 4	 2.000000	 2.000000	 flanked_bex_freq_4_amplitude_2_rep_2_b_N_2.0.png	 N	 b	 t	 n.a.	 7.145771e-01
2	 1	 35	 flanked	 bex	 4	 7.000000	 2.000000	 flanked_bex_freq_4_amplitude_7_rep_1_b_K_2.0.png	 K	 b	 r	 n.a.	 1.053942e+00
2	 1	 36	 flanked	 bex	 4	 1.000000	 2.000000	 flanked_bex_freq_4_amplitude_1_rep_9_b_D_2.0.png	 D	 b	 b	 n.a.	 4.363629e-01
2	 1	 37	 flanked	 bex	 4	 3.000000	 2.000000	 flanked_bex_freq_4_amplitude_3_rep_1_l_D_2.0.png	 D	 l	 l	 n.a.	 7.090554e-01
2	 1	 38	 flanked	 bex	 4	 2.000000	 2.000000	 flanked_bex_freq_4_amplitude_2_rep_9_r_D_2.0.png	 D	 r	 t	 n.a.	 5.961918e-01
2	 1	 39	 flanked	 bex	 4	 6.000000	 2.000000	 flanked_bex_freq_4_amplitude_6_rep_6_l_D_2.0.png	 D	 l	 l	 n.a.	 4.998785e-01
2	 1	 40	 flanked	 bex	 4	 2.000000	 2.000000	 flanked_bex_freq_4_amplitude_2_rep_0_t_H_2.0.png	 H	 t	 t	 n.a.	 5.839466e-01
2	 1	 41	 flanked	 bex	 4	 7.000000	 2.000000	 flanked_bex_freq_4_amplitude_7_rep_4_t_K_2.0.png	 K	 t	 r	 n.a.	 1.010207e+00
2	 1	 42	 flanked	 bex	 4	 4.000000	 2.000000	 flanked_bex_freq_4_amplitude_4_rep_7_l_D_2.0.png	 D	 l	 l	 n.a.	 6.444830e-01
2	 1	 43	 flanked	 bex	 4	 3.000000	 2.000000	 flanked_bex_freq_4_amplitude_3_rep_3_l_N_2.0.png	 N	 l	 l	 n.a.	 5.809165e-01
2	 1	 44	 flanked	 bex	 4	 2.000000	 2.000000	 flanked_bex_freq_4_amplitude_2_rep_1_t_D_2.0.png	 D	 t	 t	 n.a.	 9.808016e-01
2	 1	 45	 flanked	 bex	 4	 7.000000	 2.000000	 flanked_bex_freq_4_amplitude_7_rep_9_r_N_2.0.png	 N	 r	 r	 n.a.	 6.747327e-01
2	 1	 46	 flanked	 bex	 4	 6.000000	 2.000000	 flanked_bex_freq_4_amplitude_6_rep_3_b_D_2.0.png	 D	 b	 r	 n.a.	 8.661356e-01
2	 1	 47	 flanked	 bex	 4	 6.000000	 2.000000	 flanked_bex_freq_4_amplitude_6_rep_0_b_K_2.0.png	 K	 b	 b	 n.a.	 6.417949e-01
2	 1	 48	 flanked	 bex	 4	 6.000000	 2.000000	 flanked_bex_freq_4_amplitude_6_rep_5_l_N_2.0.png	 N	 l	 l	 n.a.	 6.339259e-01
2	 1	 49	 flanked	 bex	 4	 1.000000	 2.000000	 flanked_bex_freq_4_amplitude_1_rep_1_b_K_2.0.png	 K	 b	 b	 n.a.	 5.025377e-01
2	 1	 50	 flanked	 bex	 4	 1.000000	 2.000000	 flanked_bex_freq_4_amplitude_1_rep_8_t_K_2.0.png	 K	 t	 r	 n.a.	 3.573803e-01
2	 1	 51	 flanked	 bex	 4	 6.000000	 2.000000	 flanked_bex_freq_4_amplitude_6_rep_1_l_N_2.0.png	 N	 l	 l	 n.a.	 4.155794e-01
2	 1	 52	 flanked	 bex	 4	 3.000000	 2.000000	 flanked_bex_freq_4_amplitude_3_rep_0_l_N_2.0.png	 N	 l	 t	 n.a.	 4.286077e-01
2	 1	 53	 flanked	 bex	 4	 1.000000	 2.000000	 flanked_bex_freq_4_amplitude_1_rep_3_b_K_2.0.png	 K	 b	 l	 n.a.	 5.388652e-01
2	 1	 54	 flanked	 bex	 4	 4.000000	 2.000000	 flanked_bex_freq_4_amplitude_4_rep_4_l_N_2.0.png	 N	 l	 l	 n.a.	 3.940928e-01
2	 1	 55	 flanked	 bex	 4	 1.000000	 2.000000	 flanked_bex_freq_4_amplitude_1_rep_6_b_K_2.0.png	 K	 b	 l	 n.a.	 5.487134e-01
2	 1	 56	 flanked	 bex	 4	 2.000000	 2.000000	 flanked_bex_freq_4_amplitude_2_rep_6_b_D_2.0.png	 D	 b	 b	 n.a.	 2.760814e-01
2	 1	 57	 flanked	 bex	 4	 4.000000	 2.000000	 flanked_bex_freq_4_amplitude_4_rep_6_b_K_2.0.png	 K	 b	 r	 n.a.	 2.081197e-01
2	 1	 58	 flanked	 bex	 4	 7.000000	 2.000000	 flanked_bex_freq_4_amplitude_7_rep_6_l_N_2.0.png	 N	 l	 r	 n.a.	 7.590905e-01
2	 1	 59	 flanked	 bex	 4	 5.000000	 2.000000	 flanked_bex_freq_4_amplitude_5_rep_9_b_D_2.0.png	 D	 b	 b	 n.a.	 3.829715e-01
2	 1	 60	 flanked	 bex	 4	 7.000000	 2.000000	 flanked_bex_freq_4_amplitude_7_rep_2_t_H_2.0.png	 H	 t	 l	 n.a.	 8.127828e-01
2	 1	 61	 flanked	 bex	 4	 7.000000	 2.000000	 flanked_bex_freq_4_amplitude_7_rep_3_b_D_2.0.png	 D	 b	 r	 n.a.	 5.811350e-01
2	 1	 62	 flanked	 bex	 4	 1.000000	 2.000000	 flanked_bex_freq_4_amplitude_1_rep_1_b_K_2.0.png	 K	 b	 t	 n.a.	 6.505496e-01
2	 1	 63	 flanked	 bex	 4	 3.000000	 2.000000	 flanked_bex_freq_4_amplitude_3_rep_4_t_H_2.0.png	 H	 t	 l	 n.a.	 8.134266e-01
2	 1	 64	 flanked	 bex	 4	 7.000000	 2.000000	 flanked_bex_freq_4_amplitude_7_rep_5_b_D_2.0.png	 D	 b	 b	 n.a.	 8.157854e-01
2	 1	 65	 flanked	 bex	 4	 7.000000	 2.000000	 flanked_bex_freq_4_amplitude_7_rep_2_t_H_2.0.png	 H	 t	 r	 n.a.	 9.295198e-01
2	 1	 66	 flanked	 bex	 4	 3.000000	 2.000000	 flanked_bex_freq_4_amplitude_3_rep_0_l_N_2.0.png	 N	 l	 r	 n.a.	 7.342997e-01
2	 1	 67	 flanked	 bex	 4	 2.000000	 2.000000	 flanked_bex_freq_4_amplitude_2_rep_0_t_H_2.0.png	 H	 t	 l	 n.a.	 3.117214e-01
2	 1	 68	 flanked	 bex	 4	 3.000000	 2.000000	 flanked_bex_freq_4_amplitude_3_rep_9_b_K_2.0.png	 K	 b	 b	 n.a.	 3.842719e-01
2	 1	 69	 flanked	 bex	 4	 6.000000	 2.000000	 flanked_bex_freq_4_amplitude_6_rep_5_l_N_2.0.png	 N	 l	 t	 n.a.	 3.656063e-01
2	 1	 70	 flanked	 bex	 4	 7.000000	 2.000000	 flanked_bex_freq_4_amplitude_7_rep_1_b_K_2.0.png	 K	 b	 r	 n.a.	 5.397215e-01
2	 1	 71	 flanked	 bex	 4	 3.000000	 2.000000	 flanked_bex_freq_4_amplitude_3_rep_7_l_K_2.0.png	 K	 l	 r	 n.a.	 4.985187e-01
2	 1	 72	 flanked	 bex	 4	 5.000000	 2.000000	 flanked_bex_freq_4_amplitude_5_rep_7_t_H_2.0.png	 H	 t	 r	 n.a.	 4.500223e-01
2	 1	 73	 flanked	 bex	 4	 1.000000	 2.000000	 flanked_bex_freq_4_amplitude_1_rep_8_t_K_2.0.png	 K	 t	 t	 n.a.	 4.855662e-01
2	 1	 74	 flanked	 bex	 4	 7.000000	 2.000000	 flanked_bex_freq_4_amplitude_7_rep_6_l_N_2.0.png	 N	 l	 r	 n.a.	 9.472954e-01
2	 1	 75	 flanked	 bex	 4	 6.000000	 2.000000	 flanked_bex_freq_4_amplitude_6_rep_5_l_N_2.0.png	 N	 l	 l	 n.a.	 5.146549e-01
2	 1	 76	 flanked	 bex	 4	 1.000000	 2.000000	 flanked_bex_freq_4_amplitude_1_rep_3_b_K_2.0.png	 K	 b	 b	 n.a.	 1.083986e-01
2	 1	 77	 flanked	 bex	 4	 5.000000	 2.000000	 flanked_bex_freq_4_amplitude_5_rep_1_b_H_2.0.png	 H	 b	 r	 n.a.	 3.943535e-01
2	 1	 78	 flanked	 bex	 4	 6.000000	 2.000000	 flanked_bex_freq_4_amplitude_6_rep_6_l_D_2.0.png	 D	 l	 l	 n.a.	 3.900891e-01
2	 1	 79	 flanked	 bex	 4	 5.000000	 2.000000	 flanked_bex_freq_4_amplitude_5_rep_6_t_D_2.0.png	 D	 t	 b	 n.a.	 5.939326e-01
2	 1	 80	 flanked	 bex	 4	 6.000000	 2.000000	 flanked_bex_freq_4_amplitude_6_rep_4_l_K_2.0.png	 K	 l	 l	 n.a.	 4.676582e-01
2	 1	 81	 flanked	 bex	 4	 6.000000	 2.000000	 flanked_bex_freq_4_amplitude_6_rep_2_r_H_2.0.png	 H	 r	 r	 n.a.	 3.679294e-01
2	 1	 82	 flanked	 bex	 4	 2.000000	 2.000000	 flanked_bex_freq_4_amplitude_2_rep_7_l_H_2.0.png	 H	 l	 r	 n.a.	 3.097499e-01
2	 1	 83	 flanked	 bex	 4	 1.000000	 2.000000	 flanked_bex_freq_4_amplitude_1_rep_0_l_H_2.0.png	 H	 l	 b	 n.a.	 4.195737e-01
2	 1	 84	 flanked	 bex	 4	 7.000000	 2.000000	 flanked_bex_freq_4_amplitude_7_rep_0_b_K_2.0.png	 K	 b	 l	 n.a.	 4.359207e-01
2	 1	 85	 flanked	 bex	 4	 5.000000	 2.000000	 flanked_bex_freq_4_amplitude_5_rep_8_r_K_2.0.png	 K	 r	 r	 n.a.	 3.564234e-01
2	 1	 86	 flanked	 bex	 4	 4.000000	 2.000000	 flanked_bex_freq_4_amplitude_4_rep_7_l_D_2.0.png	 D	 l	 l	 n.a.	 7.395821e-01
2	 1	 87	 flanked	 bex	 4	 5.000000	 2.000000	 flanked_bex_freq_4_amplitude_5_rep_2_b_H_2.0.png	 H	 b	 r	 n.a.	 5.197358e-01
2	 1	 88	 flanked	 bex	 4	 6.000000	 2.000000	 flanked_bex_freq_4_amplitude_6_rep_8_r_D_2.0.png	 D	 r	 b	 n.a.	 2.641374e-01
2	 1	 89	 flanked	 bex	 4	 2.000000	 2.000000	 flanked_bex_freq_4_amplitude_2_rep_8_b_H_2.0.png	 H	 b	 b	 n.a.	 7.284254e-01
2	 1	 90	 flanked	 bex	 4	 6.000000	 2.000000	 flanked_bex_freq_4_amplitude_6_rep_9_b_K_2.0.png	 K	 b	 r	 n.a.	 7.013376e-01
2	 1	 91	 flanked	 bex	 4	 6.000000	 2.000000	 flanked_bex_freq_4_amplitude_6_rep_4_l_K_2.0.png	 K	 l	 b	 n.a.	 3.222883e-01
2	 1	 92	 flanked	 bex	 4	 4.000000	 2.000000	 flanked_bex_freq_4_amplitude_4_rep_0_b_H_2.0.png	 H	 b	 b	 n.a.	 1.323929e+00
2	 1	 93	 flanked	 bex	 4	 1.000000	 2.000000	 flanked_bex_freq_4_amplitude_1_rep_4_r_D_2.0.png	 D	 r	 l	 n.a.	 6.545504e-01
2	 1	 94	 flanked	 bex	 4	 6.000000	 2.000000	 flanked_bex_freq_4_amplitude_6_rep_7_b_N_2.0.png	 N	 b	 b	 n.a.	 7.266232e-01
2	 1	 95	 flanked	 bex	 4	 6.000000	 2.000000	 flanked_bex_freq_4_amplitude_6_rep_6_l_D_2.0.png	 D	 l	 l	 n.a.	 5.102384e-01
2	 1	 96	 flanked	 bex	 4	 5.000000	 2.000000	 flanked_bex_freq_4_amplitude_5_rep_0_r_D_2.0.png	 D	 r	 r	 n.a.	 4.120140e-01
2	 1	 97	 flanked	 bex	 4	 6.000000	 2.000000	 flanked_bex_freq_4_amplitude_6_rep_8_r_D_2.0.png	 D	 r	 r	 n.a.	 4.403437e-01
2	 1	 98	 flanked	 bex	 4	 6.000000	 2.000000	 flanked_bex_freq_4_amplitude_6_rep_7_b_N_2.0.png	 N	 b	 b	 n.a.	 7.974762e-01
2	 1	 99	 flanked	 bex	 4	 6.000000	 2.000000	 flanked_bex_freq_4_amplitude_6_rep_2_r_H_2.0.png	 H	 r	 r	 n.a.	 4.600247e-01
2	 1	 100	 flanked	 bex	 4	 7.000000	 2.000000	 flanked_bex_freq_4_amplitude_7_rep_7_t_N_2.0.png	 N	 t	 b	 n.a.	 6.430243e-01
2	 1	 101	 flanked	 bex	 4	 7.000000	 2.000000	 flanked_bex_freq_4_amplitude_7_rep_4_t_K_2.0.png	 K	 t	 b	 n.a.	 6.019998e-01
2	 1	 102	 flanked	 bex	 4	 3.000000	 2.000000	 flanked_bex_freq_4_amplitude_3_rep_6_b_N_2.0.png	 N	 b	 b	 n.a.	 7.276417e-01
2	 1	 103	 flanked	 bex	 4	 3.000000	 2.000000	 flanked_bex_freq_4_amplitude_3_rep_2_l_K_2.0.png	 K	 l	 l	 n.a.	 5.420874e-01
2	 1	 104	 flanked	 bex	 4	 7.000000	 2.000000	 flanked_bex_freq_4_amplitude_7_rep_0_b_K_2.0.png	 K	 b	 b	 n.a.	 5.488734e-01
2	 1	 105	 flanked	 bex	 4	 2.000000	 2.000000	 flanked_bex_freq_4_amplitude_2_rep_2_b_N_2.0.png	 N	 b	 r	 n.a.	 3.303248e-01
2	 1	 106	 flanked	 bex	 4	 3.000000	 2.000000	 flanked_bex_freq_4_amplitude_3_rep_2_l_K_2.0.png	 K	 l	 l	 n.a.	 6.450814e-01
2	 1	 107	 flanked	 bex	 4	 1.000000	 2.000000	 flanked_bex_freq_4_amplitude_1_rep_7_b_H_2.0.png	 H	 b	 b	 n.a.	 3.853106e-01
2	 1	 108	 flanked	 bex	 4	 5.000000	 2.000000	 flanked_bex_freq_4_amplitude_5_rep_0_r_D_2.0.png	 D	 r	 r	 n.a.	 4.671709e-01
2	 1	 109	 flanked	 bex	 4	 5.000000	 2.000000	 flanked_bex_freq_4_amplitude_5_rep_8_r_K_2.0.png	 K	 r	 r	 n.a.	 4.483997e-01
2	 1	 110	 flanked	 bex	 4	 6.000000	 2.000000	 flanked_bex_freq_4_amplitude_6_rep_4_l_K_2.0.png	 K	 l	 l	 n.a.	 4.773470e-01
2	 1	 111	 flanked	 bex	 4	 7.000000	 2.000000	 flanked_bex_freq_4_amplitude_7_rep_7_t_N_2.0.png	 N	 t	 b	 n.a.	 4.252169e-01
2	 1	 112	 flanked	 bex	 4	 4.000000	 2.000000	 flanked_bex_freq_4_amplitude_4_rep_6_b_K_2.0.png	 K	 b	 b	 n.a.	 8.801386e-01
2	 1	 113	 flanked	 bex	 4	 5.000000	 2.000000	 flanked_bex_freq_4_amplitude_5_rep_3_r_K_2.0.png	 K	 r	 r	 n.a.	 4.790633e-01
2	 1	 114	 flanked	 bex	 4	 2.000000	 2.000000	 flanked_bex_freq_4_amplitude_2_rep_7_l_H_2.0.png	 H	 l	 t	 n.a.	 7.492530e-01
2	 1	 115	 flanked	 bex	 4	 7.000000	 2.000000	 flanked_bex_freq_4_amplitude_7_rep_9_r_N_2.0.png	 N	 r	 r	 n.a.	 5.043060e-01
2	 1	 116	 flanked	 bex	 4	 1.000000	 2.000000	 flanked_bex_freq_4_amplitude_1_rep_2_l_D_2.0.png	 D	 l	 b	 n.a.	 4.805818e-01
2	 1	 117	 flanked	 bex	 4	 1.000000	 2.000000	 flanked_bex_freq_4_amplitude_1_rep_9_b_D_2.0.png	 D	 b	 l	 n.a.	 4.446654e-01
2	 1	 118	 flanked	 bex	 4	 2.000000	 2.000000	 flanked_bex_freq_4_amplitude_2_rep_6_b_D_2.0.png	 D	 b	 b	 n.a.	 5.623074e-01
2	 1	 119	 flanked	 bex	 4	 3.000000	 2.000000	 flanked_bex_freq_4_amplitude_3_rep_8_r_N_2.0.png	 N	 r	 l	 n.a.	 6.415132e-01
2	 1	 120	 flanked	 bex	 4	 4.000000	 2.000000	 flanked_bex_freq_4_amplitude_4_rep_1_l_N_2.0.png	 N	 l	 r	 n.a.	 6.010962e-01
2	 1	 121	 flanked	 bex	 4	 4.000000	 2.000000	 flanked_bex_freq_4_amplitude_4_rep_6_b_K_2.0.png	 K	 b	 b	 n.a.	 7.681364e-01
2	 1	 122	 flanked	 bex	 4	 3.000000	 2.000000	 flanked_bex_freq_4_amplitude_3_rep_0_l_N_2.0.png	 N	 l	 l	 n.a.	 4.923568e-01
2	 1	 123	 flanked	 bex	 4	 2.000000	 2.000000	 flanked_bex_freq_4_amplitude_2_rep_5_r_N_2.0.png	 N	 r	 r	 n.a.	 4.772564e-01
2	 1	 124	 flanked	 bex	 4	 2.000000	 2.000000	 flanked_bex_freq_4_amplitude_2_rep_9_r_D_2.0.png	 D	 r	 l	 n.a.	 7.409454e-01
2	 1	 125	 flanked	 bex	 4	 3.000000	 2.000000	 flanked_bex_freq_4_amplitude_3_rep_6_b_N_2.0.png	 N	 b	 t	 n.a.	 4.061311e-01
2	 1	 126	 flanked	 bex	 4	 6.000000	 2.000000	 flanked_bex_freq_4_amplitude_6_rep_1_l_N_2.0.png	 N	 l	 l	 n.a.	 7.668457e-01
2	 1	 127	 flanked	 bex	 4	 5.000000	 2.000000	 flanked_bex_freq_4_amplitude_5_rep_5_r_D_2.0.png	 D	 r	 r	 n.a.	 3.856186e-01
2	 1	 128	 flanked	 bex	 4	 1.000000	 2.000000	 flanked_bex_freq_4_amplitude_1_rep_6_b_K_2.0.png	 K	 b	 r	 n.a.	 5.610491e-01
2	 1	 129	 flanked	 bex	 4	 6.000000	 2.000000	 flanked_bex_freq_4_amplitude_6_rep_8_r_D_2.0.png	 D	 r	 r	 n.a.	 4.622846e-01
2	 1	 130	 flanked	 bex	 4	 4.000000	 2.000000	 flanked_bex_freq_4_amplitude_4_rep_3_t_H_2.0.png	 H	 t	 l	 n.a.	 6.150051e-01
2	 1	 131	 flanked	 bex	 4	 7.000000	 2.000000	 flanked_bex_freq_4_amplitude_7_rep_0_b_K_2.0.png	 K	 b	 b	 n.a.	 5.615002e-01
2	 1	 132	 flanked	 bex	 4	 5.000000	 2.000000	 flanked_bex_freq_4_amplitude_5_rep_6_t_D_2.0.png	 D	 t	 t	 n.a.	 7.025439e-01
2	 1	 133	 flanked	 bex	 4	 3.000000	 2.000000	 flanked_bex_freq_4_amplitude_3_rep_2_l_K_2.0.png	 K	 l	 l	 n.a.	 4.664704e-01
2	 1	 134	 flanked	 bex	 4	 7.000000	 2.000000	 flanked_bex_freq_4_amplitude_7_rep_8_b_K_2.0.png	 K	 b	 r	 n.a.	 7.824269e-01
2	 1	 135	 flanked	 bex	 4	 1.000000	 2.000000	 flanked_bex_freq_4_amplitude_1_rep_4_r_D_2.0.png	 D	 r	 r	 n.a.	 5.724107e-01
2	 1	 136	 flanked	 bex	 4	 7.000000	 2.000000	 flanked_bex_freq_4_amplitude_7_rep_4_t_K_2.0.png	 K	 t	 r	 n.a.	 9.189625e-01
2	 1	 137	 flanked	 bex	 4	 2.000000	 2.000000	 flanked_bex_freq_4_amplitude_2_rep_2_b_N_2.0.png	 N	 b	 b	 n.a.	 8.205387e-01
2	 1	 138	 flanked	 bex	 4	 6.000000	 2.000000	 flanked_bex_freq_4_amplitude_6_rep_0_b_K_2.0.png	 K	 b	 l	 n.a.	 4.688201e-01
2	 1	 139	 flanked	 bex	 4	 5.000000	 2.000000	 flanked_bex_freq_4_amplitude_5_rep_3_r_K_2.0.png	 K	 r	 r	 n.a.	 4.835222e-01
2	 1	 140	 flanked	 bex	 4	 4.000000	 2.000000	 flanked_bex_freq_4_amplitude_4_rep_7_l_D_2.0.png	 D	 l	 b	 n.a.	 8.908053e-01
2	 1	 141	 flanked	 bex	 4	 4.000000	 2.000000	 flanked_bex_freq_4_amplitude_4_rep_2_t_H_2.0.png	 H	 t	 t	 n.a.	 6.675022e-01
2	 1	 142	 flanked	 bex	 4	 4.000000	 2.000000	 flanked_bex_freq_4_amplitude_4_rep_9_b_N_2.0.png	 N	 b	 l	 n.a.	 5.967584e-01
2	 1	 143	 flanked	 bex	 4	 5.000000	 2.000000	 flanked_bex_freq_4_amplitude_5_rep_5_r_D_2.0.png	 D	 r	 r	 n.a.	 4.435492e-01
2	 1	 144	 flanked	 bex	 4	 5.000000	 2.000000	 flanked_bex_freq_4_amplitude_5_rep_8_r_K_2.0.png	 K	 r	 r	 n.a.	 3.888312e-01
2	 1	 145	 flanked	 bex	 4	 2.000000	 2.000000	 flanked_bex_freq_4_amplitude_2_rep_3_b_D_2.0.png	 D	 b	 b	 n.a.	 6.070630e-01
2	 1	 146	 flanked	 bex	 4	 1.000000	 2.000000	 flanked_bex_freq_4_amplitude_1_rep_7_b_H_2.0.png	 H	 b	 b	 n.a.	 6.158479e-01
2	 1	 147	 flanked	 bex	 4	 5.000000	 2.000000	 flanked_bex_freq_4_amplitude_5_rep_2_b_H_2.0.png	 H	 b	 b	 n.a.	 7.396356e-01
2	 1	 148	 flanked	 bex	 4	 7.000000	 2.000000	 flanked_bex_freq_4_amplitude_7_rep_2_t_H_2.0.png	 H	 t	 t	 n.a.	 5.716856e-01
2	 1	 149	 flanked	 bex	 4	 2.000000	 2.000000	 flanked_bex_freq_4_amplitude_2_rep_4_b_K_2.0.png	 K	 b	 r	 n.a.	 4.414666e-01
2	 1	 150	 flanked	 bex	 4	 1.000000	 2.000000	 flanked_bex_freq_4_amplitude_1_rep_5_b_N_2.0.png	 N	 b	 b	 n.a.	 3.328843e-01
2	 1	 151	 flanked	 bex	 4	 4.000000	 2.000000	 flanked_bex_freq_4_amplitude_4_rep_2_t_H_2.0.png	 H	 t	 r	 n.a.	 7.184007e-01
2	 1	 152	 flanked	 bex	 4	 2.000000	 2.000000	 flanked_bex_freq_4_amplitude_2_rep_4_b_K_2.0.png	 K	 b	 b	 n.a.	 7.862124e-01
2	 1	 153	 flanked	 bex	 4	 5.000000	 2.000000	 flanked_bex_freq_4_amplitude_5_rep_0_r_D_2.0.png	 D	 r	 r	 n.a.	 8.224603e-01
2	 1	 154	 flanked	 bex	 4	 5.000000	 2.000000	 flanked_bex_freq_4_amplitude_5_rep_2_b_H_2.0.png	 H	 b	 r	 n.a.	 4.085264e-01
2	 1	 155	 flanked	 bex	 4	 4.000000	 2.000000	 flanked_bex_freq_4_amplitude_4_rep_5_t_H_2.0.png	 H	 t	 t	 n.a.	 4.491684e-01
2	 1	 156	 flanked	 bex	 4	 1.000000	 2.000000	 flanked_bex_freq_4_amplitude_1_rep_1_b_K_2.0.png	 K	 b	 b	 n.a.	 5.227464e-01
2	 1	 157	 flanked	 bex	 4	 1.000000	 2.000000	 flanked_bex_freq_4_amplitude_1_rep_6_b_K_2.0.png	 K	 b	 l	 n.a.	 4.725233e-01
2	 1	 158	 flanked	 bex	 4	 4.000000	 2.000000	 flanked_bex_freq_4_amplitude_4_rep_2_t_H_2.0.png	 H	 t	 r	 n.a.	 6.487580e-01
2	 1	 159	 flanked	 bex	 4	 3.000000	 2.000000	 flanked_bex_freq_4_amplitude_3_rep_1_l_D_2.0.png	 D	 l	 t	 n.a.	 4.827520e-01
2	 1	 160	 flanked	 bex	 4	 4.000000	 2.000000	 flanked_bex_freq_4_amplitude_4_rep_0_b_H_2.0.png	 H	 b	 b	 n.a.	 3.048328e-01
2	 1	 161	 flanked	 bex	 4	 5.000000	 2.000000	 flanked_bex_freq_4_amplitude_5_rep_7_t_H_2.0.png	 H	 t	 r	 n.a.	 4.568576e-01
2	 1	 162	 flanked	 bex	 4	 4.000000	 2.000000	 flanked_bex_freq_4_amplitude_4_rep_8_r_D_2.0.png	 D	 r	 r	 n.a.	 5.572665e-01
2	 1	 163	 flanked	 bex	 4	 3.000000	 2.000000	 flanked_bex_freq_4_amplitude_3_rep_3_l_N_2.0.png	 N	 l	 l	 n.a.	 4.756566e-01
2	 1	 164	 flanked	 bex	 4	 1.000000	 2.000000	 flanked_bex_freq_4_amplitude_1_rep_4_r_D_2.0.png	 D	 r	 r	 n.a.	 5.410395e-01
2	 1	 165	 flanked	 bex	 4	 4.000000	 2.000000	 flanked_bex_freq_4_amplitude_4_rep_1_l_N_2.0.png	 N	 l	 r	 n.a.	 7.365190e-01
2	 1	 166	 flanked	 bex	 4	 1.000000	 2.000000	 flanked_bex_freq_4_amplitude_1_rep_0_l_H_2.0.png	 H	 l	 b	 n.a.	 3.759592e-01
2	 1	 167	 flanked	 bex	 4	 6.000000	 2.000000	 flanked_bex_freq_4_amplitude_6_rep_2_r_H_2.0.png	 H	 r	 r	 n.a.	 4.311884e-01
2	 1	 168	 flanked	 bex	 4	 4.000000	 2.000000	 flanked_bex_freq_4_amplitude_4_rep_9_b_N_2.0.png	 N	 b	 l	 n.a.	 5.985280e-01
2	 1	 169	 flanked	 bex	 4	 5.000000	 2.000000	 flanked_bex_freq_4_amplitude_5_rep_1_b_H_2.0.png	 H	 b	 l	 n.a.	 7.304763e-01
2	 1	 170	 flanked	 bex	 4	 7.000000	 2.000000	 flanked_bex_freq_4_amplitude_7_rep_8_b_K_2.0.png	 K	 b	 l	 n.a.	 1.405919e+00
2	 1	 171	 flanked	 bex	 4	 2.000000	 2.000000	 flanked_bex_freq_4_amplitude_2_rep_3_b_D_2.0.png	 D	 b	 r	 n.a.	 4.716742e-01
2	 1	 172	 flanked	 bex	 4	 2.000000	 2.000000	 flanked_bex_freq_4_amplitude_2_rep_0_t_H_2.0.png	 H	 t	 b	 n.a.	 6.116267e-01
2	 1	 173	 flanked	 bex	 4	 2.000000	 2.000000	 flanked_bex_freq_4_amplitude_2_rep_1_t_D_2.0.png	 D	 t	 t	 n.a.	 4.101144e-01
2	 1	 174	 flanked	 bex	 4	 3.000000	 2.000000	 flanked_bex_freq_4_amplitude_3_rep_8_r_N_2.0.png	 N	 r	 r	 n.a.	 7.814513e-01
2	 1	 175	 flanked	 bex	 4	 4.000000	 2.000000	 flanked_bex_freq_4_amplitude_4_rep_3_t_H_2.0.png	 H	 t	 r	 n.a.	 7.462915e-01
2	 1	 176	 flanked	 bex	 4	 3.000000	 2.000000	 flanked_bex_freq_4_amplitude_3_rep_4_t_H_2.0.png	 H	 t	 b	 n.a.	 7.363184e-01
2	 1	 177	 flanked	 bex	 4	 4.000000	 2.000000	 flanked_bex_freq_4_amplitude_4_rep_5_t_H_2.0.png	 H	 t	 l	 n.a.	 6.947989e-01
2	 1	 178	 flanked	 bex	 4	 1.000000	 2.000000	 flanked_bex_freq_4_amplitude_1_rep_2_l_D_2.0.png	 D	 l	 r	 n.a.	 4.598606e-01
2	 1	 179	 flanked	 bex	 4	 7.000000	 2.000000	 flanked_bex_freq_4_amplitude_7_rep_5_b_D_2.0.png	 D	 b	 b	 n.a.	 8.875799e-01
2	 1	 180	 flanked	 bex	 4	 7.000000	 2.000000	 flanked_bex_freq_4_amplitude_7_rep_7_t_N_2.0.png	 N	 t	 r	 n.a.	 1.005021e+00
2	 1	 181	 flanked	 bex	 4	 2.000000	 2.000000	 flanked_bex_freq_4_amplitude_2_rep_3_b_D_2.0.png	 D	 b	 l	 n.a.	 5.249953e-01
2	 1	 182	 flanked	 bex	 4	 6.000000	 2.000000	 flanked_bex_freq_4_amplitude_6_rep_7_b_N_2.0.png	 N	 b	 r	 n.a.	 5.129761e-01
2	 1	 183	 flanked	 bex	 4	 4.000000	 2.000000	 flanked_bex_freq_4_amplitude_4_rep_3_t_H_2.0.png	 H	 t	 b	 n.a.	 5.371377e-01
2	 1	 184	 flanked	 bex	 4	 5.000000	 2.000000	 flanked_bex_freq_4_amplitude_5_rep_4_t_N_2.0.png	 N	 t	 r	 n.a.	 5.451935e-01
2	 1	 185	 flanked	 bex	 4	 3.000000	 2.000000	 flanked_bex_freq_4_amplitude_3_rep_5_l_H_2.0.png	 H	 l	 t	 n.a.	 7.740680e-01
2	 1	 186	 flanked	 bex	 4	 5.000000	 2.000000	 flanked_bex_freq_4_amplitude_5_rep_7_t_H_2.0.png	 H	 t	 r	 n.a.	 4.328594e-01
2	 1	 187	 flanked	 bex	 4	 4.000000	 2.000000	 flanked_bex_freq_4_amplitude_4_rep_9_b_N_2.0.png	 N	 b	 l	 n.a.	 4.759640e-01
2	 1	 188	 flanked	 bex	 4	 2.000000	 2.000000	 flanked_bex_freq_4_amplitude_2_rep_6_b_D_2.0.png	 D	 b	 b	 n.a.	 5.355166e-01
2	 1	 189	 flanked	 bex	 4	 6.000000	 2.000000	 flanked_bex_freq_4_amplitude_6_rep_1_l_N_2.0.png	 N	 l	 l	 n.a.	 5.452881e-01
2	 1	 190	 flanked	 bex	 4	 4.000000	 2.000000	 flanked_bex_freq_4_amplitude_4_rep_8_r_D_2.0.png	 D	 r	 t	 n.a.	 7.613802e-01
2	 1	 191	 flanked	 bex	 4	 2.000000	 2.000000	 flanked_bex_freq_4_amplitude_2_rep_4_b_K_2.0.png	 K	 b	 r	 n.a.	 4.835266e-01
2	 1	 192	 flanked	 bex	 4	 5.000000	 2.000000	 flanked_bex_freq_4_amplitude_5_rep_9_b_D_2.0.png	 D	 b	 b	 n.a.	 3.436997e-01
2	 1	 193	 flanked	 bex	 4	 3.000000	 2.000000	 flanked_bex_freq_4_amplitude_3_rep_9_b_K_2.0.png	 K	 b	 l	 n.a.	 5.781864e-01
2	 1	 194	 flanked	 bex	 4	 2.000000	 2.000000	 flanked_bex_freq_4_amplitude_2_rep_8_b_H_2.0.png	 H	 b	 r	 n.a.	 5.126384e-01
2	 1	 195	 flanked	 bex	 4	 5.000000	 2.000000	 flanked_bex_freq_4_amplitude_5_rep_4_t_N_2.0.png	 N	 t	 r	 n.a.	 6.522453e-01
2	 1	 196	 flanked	 bex	 4	 5.000000	 2.000000	 flanked_bex_freq_4_amplitude_5_rep_3_r_K_2.0.png	 K	 r	 l	 n.a.	 7.454829e-01
2	 1	 197	 flanked	 bex	 4	 3.000000	 2.000000	 flanked_bex_freq_4_amplitude_3_rep_6_b_N_2.0.png	 N	 b	 b	 n.a.	 3.438253e-01
2	 1	 198	 flanked	 bex	 4	 6.000000	 2.000000	 flanked_bex_freq_4_amplitude_6_rep_3_b_D_2.0.png	 D	 b	 b	 n.a.	 5.373390e-01
2	 1	 199	 flanked	 bex	 4	 7.000000	 2.000000	 flanked_bex_freq_4_amplitude_7_rep_6_l_N_2.0.png	 N	 l	 b	 n.a.	 7.252494e-01
2	 1	 200	 flanked	 bex	 4	 4.000000	 2.000000	 flanked_bex_freq_4_amplitude_4_rep_8_r_D_2.0.png	 D	 r	 r	 n.a.	 4.357027e-01
2	 1	 201	 flanked	 bex	 4	 2.000000	 2.000000	 flanked_bex_freq_4_amplitude_2_rep_5_r_N_2.0.png	 N	 r	 l	 n.a.	 5.519669e-01
2	 1	 202	 flanked	 bex	 4	 5.000000	 2.000000	 flanked_bex_freq_4_amplitude_5_rep_1_b_H_2.0.png	 H	 b	 b	 n.a.	 4.313151e-01
2	 1	 203	 flanked	 bex	 4	 3.000000	 2.000000	 flanked_bex_freq_4_amplitude_3_rep_8_r_N_2.0.png	 N	 r	 r	 n.a.	 4.263601e-01
2	 1	 204	 flanked	 bex	 4	 3.000000	 2.000000	 flanked_bex_freq_4_amplitude_3_rep_5_l_H_2.0.png	 H	 l	 r	 n.a.	 3.772315e-01
2	 1	 205	 flanked	 bex	 4	 7.000000	 2.000000	 flanked_bex_freq_4_amplitude_7_rep_5_b_D_2.0.png	 D	 b	 b	 n.a.	 4.059221e-01
2	 1	 206	 flanked	 bex	 4	 3.000000	 2.000000	 flanked_bex_freq_4_amplitude_3_rep_7_l_K_2.0.png	 K	 l	 b	 n.a.	 7.632520e-01
2	 1	 207	 flanked	 bex	 4	 5.000000	 2.000000	 flanked_bex_freq_4_amplitude_5_rep_9_b_D_2.0.png	 D	 b	 b	 n.a.	 5.965318e-01
2	 1	 208	 flanked	 bex	 4	 4.000000	 2.000000	 flanked_bex_freq_4_amplitude_4_rep_4_l_N_2.0.png	 N	 l	 l	 n.a.	 5.593335e-01
2	 1	 209	 flanked	 bex	 4	 5.000000	 2.000000	 flanked_bex_freq_4_amplitude_5_rep_6_t_D_2.0.png	 D	 t	 b	 n.a.	 6.988622e-01
2	 1	 210	 flanked	 bex	 4	 3.000000	 2.000000	 flanked_bex_freq_4_amplitude_3_rep_7_l_K_2.0.png	 K	 l	 t	 n.a.	 4.894996e-01
