subject	 session	 trial	 flanked	 distortion	 freq	 amplitude	 spacing	 im_name	 targ_letter	 targ_pos	 response	 eyemovement	 RT
5	 2	 1	 flanked	 bex	 4	 1.000000	 2.000000	 flanked_bex_freq_4_amplitude_1_rep_5_r_H_2.0_ampflank_6.png	 H	 r	 b	 n.a.	 1.108287e+00
5	 2	 2	 flanked	 bex	 4	 5.000000	 2.000000	 flanked_bex_freq_4_amplitude_5_rep_6_l_N_2.0_ampflank_6.png	 N	 l	 t	 n.a.	 6.879974e-01
5	 2	 3	 flanked	 bex	 4	 5.000000	 2.000000	 flanked_bex_freq_4_amplitude_5_rep_0_r_K_2.0_ampflank_6.png	 K	 r	 r	 n.a.	 3.758595e-01
5	 2	 4	 flanked	 bex	 4	 3.000000	 2.000000	 flanked_bex_freq_4_amplitude_3_rep_6_l_H_2.0_ampflank_6.png	 H	 l	 b	 n.a.	 1.336577e+00
5	 2	 5	 flanked	 bex	 4	 6.000000	 2.000000	 flanked_bex_freq_4_amplitude_6_rep_7_l_D_2.0_ampflank_6.png	 D	 l	 r	 n.a.	 7.966808e-01
5	 2	 6	 flanked	 bex	 4	 1.000000	 2.000000	 flanked_bex_freq_4_amplitude_1_rep_6_r_N_2.0_ampflank_6.png	 N	 r	 b	 n.a.	 9.624889e-01
5	 2	 7	 flanked	 bex	 4	 5.000000	 2.000000	 flanked_bex_freq_4_amplitude_5_rep_5_l_K_2.0_ampflank_6.png	 K	 l	 t	 n.a.	 5.370195e-01
5	 2	 8	 flanked	 bex	 4	 6.000000	 2.000000	 flanked_bex_freq_4_amplitude_6_rep_9_t_K_2.0_ampflank_6.png	 K	 t	 t	 n.a.	 4.468016e-01
5	 2	 9	 flanked	 bex	 4	 3.000000	 2.000000	 flanked_bex_freq_4_amplitude_3_rep_5_t_H_2.0_ampflank_6.png	 H	 t	 l	 n.a.	 1.148842e+00
5	 2	 10	 flanked	 bex	 4	 0.500000	 2.000000	 flanked_bex_freq_4_amplitude_0.5_rep_1_b_K_2.0_ampflank_6.png	 K	 b	 r	 n.a.	 1.163866e+00
5	 2	 11	 flanked	 bex	 4	 0.500000	 2.000000	 flanked_bex_freq_4_amplitude_0.5_rep_9_r_H_2.0_ampflank_6.png	 H	 r	 t	 n.a.	 4.142368e-01
5	 2	 12	 flanked	 bex	 4	 2.000000	 2.000000	 flanked_bex_freq_4_amplitude_2_rep_7_t_H_2.0_ampflank_6.png	 H	 t	 t	 n.a.	 4.755491e-01
5	 2	 13	 flanked	 bex	 4	 0.500000	 2.000000	 flanked_bex_freq_4_amplitude_0.5_rep_2_b_N_2.0_ampflank_6.png	 N	 b	 b	 n.a.	 7.931555e-01
5	 2	 14	 flanked	 bex	 4	 2.000000	 2.000000	 flanked_bex_freq_4_amplitude_2_rep_9_t_D_2.0_ampflank_6.png	 D	 t	 t	 n.a.	 5.059961e-01
5	 2	 15	 flanked	 bex	 4	 2.000000	 2.000000	 flanked_bex_freq_4_amplitude_2_rep_9_t_D_2.0_ampflank_6.png	 D	 t	 t	 n.a.	 5.486017e-01
5	 2	 16	 flanked	 bex	 4	 6.000000	 2.000000	 flanked_bex_freq_4_amplitude_6_rep_7_l_D_2.0_ampflank_6.png	 D	 l	 t	 n.a.	 4.738216e-01
5	 2	 17	 flanked	 bex	 4	 4.000000	 2.000000	 flanked_bex_freq_4_amplitude_4_rep_4_r_D_2.0_ampflank_6.png	 D	 r	 r	 n.a.	 4.154119e-01
5	 2	 18	 flanked	 bex	 4	 4.000000	 2.000000	 flanked_bex_freq_4_amplitude_4_rep_7_l_K_2.0_ampflank_6.png	 K	 l	 r	 n.a.	 7.480601e-01
5	 2	 19	 flanked	 bex	 4	 1.000000	 2.000000	 flanked_bex_freq_4_amplitude_1_rep_4_r_H_2.0_ampflank_6.png	 H	 r	 r	 n.a.	 7.338792e-01
5	 2	 20	 flanked	 bex	 4	 3.000000	 2.000000	 flanked_bex_freq_4_amplitude_3_rep_9_t_D_2.0_ampflank_6.png	 D	 t	 t	 n.a.	 7.729786e-01
5	 2	 21	 flanked	 bex	 4	 6.000000	 2.000000	 flanked_bex_freq_4_amplitude_6_rep_5_b_D_2.0_ampflank_6.png	 D	 b	 t	 n.a.	 5.335118e-01
5	 2	 22	 flanked	 bex	 4	 6.000000	 2.000000	 flanked_bex_freq_4_amplitude_6_rep_1_l_K_2.0_ampflank_6.png	 K	 l	 t	 n.a.	 4.230893e-01
5	 2	 23	 flanked	 bex	 4	 2.000000	 2.000000	 flanked_bex_freq_4_amplitude_2_rep_9_t_D_2.0_ampflank_6.png	 D	 t	 t	 n.a.	 4.497029e-01
5	 2	 24	 flanked	 bex	 4	 5.000000	 2.000000	 flanked_bex_freq_4_amplitude_5_rep_5_l_K_2.0_ampflank_6.png	 K	 l	 l	 n.a.	 6.500838e-01
5	 2	 25	 flanked	 bex	 4	 5.000000	 2.000000	 flanked_bex_freq_4_amplitude_5_rep_2_b_H_2.0_ampflank_6.png	 H	 b	 b	 n.a.	 3.943181e-01
5	 2	 26	 flanked	 bex	 4	 6.000000	 2.000000	 flanked_bex_freq_4_amplitude_6_rep_9_t_K_2.0_ampflank_6.png	 K	 t	 t	 n.a.	 5.334643e-01
5	 2	 27	 flanked	 bex	 4	 4.000000	 2.000000	 flanked_bex_freq_4_amplitude_4_rep_7_l_K_2.0_ampflank_6.png	 K	 l	 r	 n.a.	 1.192094e+00
5	 2	 28	 flanked	 bex	 4	 5.000000	 2.000000	 flanked_bex_freq_4_amplitude_5_rep_3_r_K_2.0_ampflank_6.png	 K	 r	 t	 n.a.	 5.591201e-01
5	 2	 29	 flanked	 bex	 4	 3.000000	 2.000000	 flanked_bex_freq_4_amplitude_3_rep_6_l_H_2.0_ampflank_6.png	 H	 l	 b	 n.a.	 8.791734e-01
5	 2	 30	 flanked	 bex	 4	 1.000000	 2.000000	 flanked_bex_freq_4_amplitude_1_rep_8_l_H_2.0_ampflank_6.png	 H	 l	 t	 n.a.	 4.339161e-01
5	 2	 31	 flanked	 bex	 4	 5.000000	 2.000000	 flanked_bex_freq_4_amplitude_5_rep_4_r_H_2.0_ampflank_6.png	 H	 r	 t	 n.a.	 4.726501e-01
5	 2	 32	 flanked	 bex	 4	 2.000000	 2.000000	 flanked_bex_freq_4_amplitude_2_rep_6_b_D_2.0_ampflank_6.png	 D	 b	 r	 n.a.	 9.469975e-01
5	 2	 33	 flanked	 bex	 4	 1.000000	 2.000000	 flanked_bex_freq_4_amplitude_1_rep_1_r_N_2.0_ampflank_6.png	 N	 r	 t	 n.a.	 3.624237e-01
5	 2	 34	 flanked	 bex	 4	 1.000000	 2.000000	 flanked_bex_freq_4_amplitude_1_rep_5_r_H_2.0_ampflank_6.png	 H	 r	 t	 n.a.	 6.563830e-01
5	 2	 35	 flanked	 bex	 4	 3.000000	 2.000000	 flanked_bex_freq_4_amplitude_3_rep_3_t_D_2.0_ampflank_6.png	 D	 t	 t	 n.a.	 7.048117e-01
5	 2	 36	 flanked	 bex	 4	 5.000000	 2.000000	 flanked_bex_freq_4_amplitude_5_rep_3_r_K_2.0_ampflank_6.png	 K	 r	 r	 n.a.	 6.001879e-01
5	 2	 37	 flanked	 bex	 4	 6.000000	 2.000000	 flanked_bex_freq_4_amplitude_6_rep_5_b_D_2.0_ampflank_6.png	 D	 b	 t	 n.a.	 1.048242e+00
5	 2	 38	 flanked	 bex	 4	 4.000000	 2.000000	 flanked_bex_freq_4_amplitude_4_rep_5_b_H_2.0_ampflank_6.png	 H	 b	 t	 n.a.	 1.371500e+00
5	 2	 39	 flanked	 bex	 4	 1.000000	 2.000000	 flanked_bex_freq_4_amplitude_1_rep_4_r_H_2.0_ampflank_6.png	 H	 r	 r	 n.a.	 7.924313e-01
5	 2	 40	 flanked	 bex	 4	 1.000000	 2.000000	 flanked_bex_freq_4_amplitude_1_rep_2_l_K_2.0_ampflank_6.png	 K	 l	 t	 n.a.	 1.122957e+00
5	 2	 41	 flanked	 bex	 4	 3.000000	 2.000000	 flanked_bex_freq_4_amplitude_3_rep_7_r_H_2.0_ampflank_6.png	 H	 r	 r	 n.a.	 4.273080e-01
5	 2	 42	 flanked	 bex	 4	 3.000000	 2.000000	 flanked_bex_freq_4_amplitude_3_rep_3_t_D_2.0_ampflank_6.png	 D	 t	 t	 n.a.	 6.264767e-01
5	 2	 43	 flanked	 bex	 4	 1.000000	 2.000000	 flanked_bex_freq_4_amplitude_1_rep_7_b_D_2.0_ampflank_6.png	 D	 b	 r	 n.a.	 1.086864e+00
5	 2	 44	 flanked	 bex	 4	 1.000000	 2.000000	 flanked_bex_freq_4_amplitude_1_rep_8_l_H_2.0_ampflank_6.png	 H	 l	 t	 n.a.	 3.388593e-01
5	 2	 45	 flanked	 bex	 4	 1.000000	 2.000000	 flanked_bex_freq_4_amplitude_1_rep_9_l_H_2.0_ampflank_6.png	 H	 l	 b	 n.a.	 1.234558e+00
5	 2	 46	 flanked	 bex	 4	 0.500000	 2.000000	 flanked_bex_freq_4_amplitude_0.5_rep_8_t_D_2.0_ampflank_6.png	 D	 t	 l	 n.a.	 1.169956e+00
5	 2	 47	 flanked	 bex	 4	 0.500000	 2.000000	 flanked_bex_freq_4_amplitude_0.5_rep_7_b_N_2.0_ampflank_6.png	 N	 b	 t	 n.a.	 3.289682e-01
5	 2	 48	 flanked	 bex	 4	 2.000000	 2.000000	 flanked_bex_freq_4_amplitude_2_rep_3_r_D_2.0_ampflank_6.png	 D	 r	 t	 n.a.	 4.308227e-01
5	 2	 49	 flanked	 bex	 4	 6.000000	 2.000000	 flanked_bex_freq_4_amplitude_6_rep_3_r_K_2.0_ampflank_6.png	 K	 r	 r	 n.a.	 1.123586e+00
5	 2	 50	 flanked	 bex	 4	 3.000000	 2.000000	 flanked_bex_freq_4_amplitude_3_rep_9_t_D_2.0_ampflank_6.png	 D	 t	 b	 n.a.	 5.340670e-01
5	 2	 51	 flanked	 bex	 4	 3.000000	 2.000000	 flanked_bex_freq_4_amplitude_3_rep_2_b_H_2.0_ampflank_6.png	 H	 b	 t	 n.a.	 4.275557e-01
5	 2	 52	 flanked	 bex	 4	 6.000000	 2.000000	 flanked_bex_freq_4_amplitude_6_rep_3_r_K_2.0_ampflank_6.png	 K	 r	 t	 n.a.	 5.155484e-01
5	 2	 53	 flanked	 bex	 4	 5.000000	 2.000000	 flanked_bex_freq_4_amplitude_5_rep_8_r_D_2.0_ampflank_6.png	 D	 r	 r	 n.a.	 1.106036e+00
5	 2	 54	 flanked	 bex	 4	 4.000000	 2.000000	 flanked_bex_freq_4_amplitude_4_rep_3_t_N_2.0_ampflank_6.png	 N	 t	 t	 n.a.	 4.864200e-01
5	 2	 55	 flanked	 bex	 4	 4.000000	 2.000000	 flanked_bex_freq_4_amplitude_4_rep_9_b_D_2.0_ampflank_6.png	 D	 b	 t	 n.a.	 7.187806e-01
5	 2	 56	 flanked	 bex	 4	 4.000000	 2.000000	 flanked_bex_freq_4_amplitude_4_rep_0_b_H_2.0_ampflank_6.png	 H	 b	 b	 n.a.	 7.616591e-01
5	 2	 57	 flanked	 bex	 4	 4.000000	 2.000000	 flanked_bex_freq_4_amplitude_4_rep_2_l_K_2.0_ampflank_6.png	 K	 l	 b	 n.a.	 1.192360e+00
5	 2	 58	 flanked	 bex	 4	 2.000000	 2.000000	 flanked_bex_freq_4_amplitude_2_rep_6_b_D_2.0_ampflank_6.png	 D	 b	 t	 n.a.	 7.379769e-01
5	 2	 59	 flanked	 bex	 4	 6.000000	 2.000000	 flanked_bex_freq_4_amplitude_6_rep_1_l_K_2.0_ampflank_6.png	 K	 l	 l	 n.a.	 7.361849e-01
5	 2	 60	 flanked	 bex	 4	 2.000000	 2.000000	 flanked_bex_freq_4_amplitude_2_rep_0_r_D_2.0_ampflank_6.png	 D	 r	 r	 n.a.	 9.425853e-01
5	 2	 61	 flanked	 bex	 4	 3.000000	 2.000000	 flanked_bex_freq_4_amplitude_3_rep_1_b_D_2.0_ampflank_6.png	 D	 b	 t	 n.a.	 5.783034e-01
5	 2	 62	 flanked	 bex	 4	 6.000000	 2.000000	 flanked_bex_freq_4_amplitude_6_rep_8_r_D_2.0_ampflank_6.png	 D	 r	 r	 n.a.	 6.730502e-01
5	 2	 63	 flanked	 bex	 4	 0.500000	 2.000000	 flanked_bex_freq_4_amplitude_0.5_rep_5_r_D_2.0_ampflank_6.png	 D	 r	 r	 n.a.	 1.307998e+00
5	 2	 64	 flanked	 bex	 4	 1.000000	 2.000000	 flanked_bex_freq_4_amplitude_1_rep_1_r_N_2.0_ampflank_6.png	 N	 r	 t	 n.a.	 7.958484e-01
5	 2	 65	 flanked	 bex	 4	 6.000000	 2.000000	 flanked_bex_freq_4_amplitude_6_rep_9_t_K_2.0_ampflank_6.png	 K	 t	 r	 n.a.	 1.279276e+00
5	 2	 66	 flanked	 bex	 4	 1.000000	 2.000000	 flanked_bex_freq_4_amplitude_1_rep_4_r_H_2.0_ampflank_6.png	 H	 r	 r	 n.a.	 7.361440e-01
5	 2	 67	 flanked	 bex	 4	 2.000000	 2.000000	 flanked_bex_freq_4_amplitude_2_rep_2_r_N_2.0_ampflank_6.png	 N	 r	 b	 n.a.	 9.059942e-01
5	 2	 68	 flanked	 bex	 4	 3.000000	 2.000000	 flanked_bex_freq_4_amplitude_3_rep_8_t_D_2.0_ampflank_6.png	 D	 t	 t	 n.a.	 8.915453e-01
5	 2	 69	 flanked	 bex	 4	 4.000000	 2.000000	 flanked_bex_freq_4_amplitude_4_rep_5_b_H_2.0_ampflank_6.png	 H	 b	 b	 n.a.	 1.109862e+00
5	 2	 70	 flanked	 bex	 4	 0.500000	 2.000000	 flanked_bex_freq_4_amplitude_0.5_rep_5_r_D_2.0_ampflank_6.png	 D	 r	 t	 n.a.	 9.393760e-01
5	 2	 71	 flanked	 bex	 4	 5.000000	 2.000000	 flanked_bex_freq_4_amplitude_5_rep_3_r_K_2.0_ampflank_6.png	 K	 r	 r	 n.a.	 4.870416e-01
5	 2	 72	 flanked	 bex	 4	 2.000000	 2.000000	 flanked_bex_freq_4_amplitude_2_rep_4_t_K_2.0_ampflank_6.png	 K	 t	 t	 n.a.	 8.575796e-01
5	 2	 73	 flanked	 bex	 4	 1.000000	 2.000000	 flanked_bex_freq_4_amplitude_1_rep_0_t_K_2.0_ampflank_6.png	 K	 t	 r	 n.a.	 8.618203e-01
5	 2	 74	 flanked	 bex	 4	 6.000000	 2.000000	 flanked_bex_freq_4_amplitude_6_rep_4_t_N_2.0_ampflank_6.png	 N	 t	 t	 n.a.	 3.878359e-01
5	 2	 75	 flanked	 bex	 4	 2.000000	 2.000000	 flanked_bex_freq_4_amplitude_2_rep_6_b_D_2.0_ampflank_6.png	 D	 b	 t	 n.a.	 1.373403e+00
5	 2	 76	 flanked	 bex	 4	 4.000000	 2.000000	 flanked_bex_freq_4_amplitude_4_rep_4_r_D_2.0_ampflank_6.png	 D	 r	 r	 n.a.	 4.595873e-01
5	 2	 77	 flanked	 bex	 4	 0.500000	 2.000000	 flanked_bex_freq_4_amplitude_0.5_rep_3_b_K_2.0_ampflank_6.png	 K	 b	 r	 n.a.	 1.035744e+00
5	 2	 78	 flanked	 bex	 4	 6.000000	 2.000000	 flanked_bex_freq_4_amplitude_6_rep_0_r_H_2.0_ampflank_6.png	 H	 r	 r	 n.a.	 5.146792e-01
5	 2	 79	 flanked	 bex	 4	 3.000000	 2.000000	 flanked_bex_freq_4_amplitude_3_rep_4_t_N_2.0_ampflank_6.png	 N	 t	 t	 n.a.	 6.152600e-01
5	 2	 80	 flanked	 bex	 4	 1.000000	 2.000000	 flanked_bex_freq_4_amplitude_1_rep_7_b_D_2.0_ampflank_6.png	 D	 b	 b	 n.a.	 8.086221e-01
5	 2	 81	 flanked	 bex	 4	 6.000000	 2.000000	 flanked_bex_freq_4_amplitude_6_rep_6_b_N_2.0_ampflank_6.png	 N	 b	 b	 n.a.	 7.591858e-01
5	 2	 82	 flanked	 bex	 4	 0.500000	 2.000000	 flanked_bex_freq_4_amplitude_0.5_rep_0_b_K_2.0_ampflank_6.png	 K	 b	 b	 n.a.	 8.900703e-01
5	 2	 83	 flanked	 bex	 4	 0.500000	 2.000000	 flanked_bex_freq_4_amplitude_0.5_rep_1_b_K_2.0_ampflank_6.png	 K	 b	 b	 n.a.	 1.362638e+00
5	 2	 84	 flanked	 bex	 4	 1.000000	 2.000000	 flanked_bex_freq_4_amplitude_1_rep_0_t_K_2.0_ampflank_6.png	 K	 t	 t	 n.a.	 5.877329e-01
5	 2	 85	 flanked	 bex	 4	 4.000000	 2.000000	 flanked_bex_freq_4_amplitude_4_rep_0_b_H_2.0_ampflank_6.png	 H	 b	 t	 n.a.	 6.214948e-01
5	 2	 86	 flanked	 bex	 4	 6.000000	 2.000000	 flanked_bex_freq_4_amplitude_6_rep_6_b_N_2.0_ampflank_6.png	 N	 b	 b	 n.a.	 4.528207e-01
5	 2	 87	 flanked	 bex	 4	 2.000000	 2.000000	 flanked_bex_freq_4_amplitude_2_rep_0_r_D_2.0_ampflank_6.png	 D	 r	 t	 n.a.	 6.254110e-01
5	 2	 88	 flanked	 bex	 4	 3.000000	 2.000000	 flanked_bex_freq_4_amplitude_3_rep_1_b_D_2.0_ampflank_6.png	 D	 b	 t	 n.a.	 5.224064e-01
5	 2	 89	 flanked	 bex	 4	 0.500000	 2.000000	 flanked_bex_freq_4_amplitude_0.5_rep_0_b_K_2.0_ampflank_6.png	 K	 b	 b	 n.a.	 5.259234e-01
5	 2	 90	 flanked	 bex	 4	 3.000000	 2.000000	 flanked_bex_freq_4_amplitude_3_rep_7_r_H_2.0_ampflank_6.png	 H	 r	 r	 n.a.	 7.818579e-01
5	 2	 91	 flanked	 bex	 4	 3.000000	 2.000000	 flanked_bex_freq_4_amplitude_3_rep_5_t_H_2.0_ampflank_6.png	 H	 t	 r	 n.a.	 8.305189e-01
5	 2	 92	 flanked	 bex	 4	 6.000000	 2.000000	 flanked_bex_freq_4_amplitude_6_rep_2_t_D_2.0_ampflank_6.png	 D	 t	 t	 n.a.	 4.657352e-01
5	 2	 93	 flanked	 bex	 4	 3.000000	 2.000000	 flanked_bex_freq_4_amplitude_3_rep_0_b_H_2.0_ampflank_6.png	 H	 b	 b	 n.a.	 4.923682e-01
5	 2	 94	 flanked	 bex	 4	 5.000000	 2.000000	 flanked_bex_freq_4_amplitude_5_rep_0_r_K_2.0_ampflank_6.png	 K	 r	 r	 n.a.	 4.863663e-01
5	 2	 95	 flanked	 bex	 4	 0.500000	 2.000000	 flanked_bex_freq_4_amplitude_0.5_rep_4_l_N_2.0_ampflank_6.png	 N	 l	 r	 n.a.	 5.255533e-01
5	 2	 96	 flanked	 bex	 4	 4.000000	 2.000000	 flanked_bex_freq_4_amplitude_4_rep_1_l_N_2.0_ampflank_6.png	 N	 l	 r	 n.a.	 7.981307e-01
5	 2	 97	 flanked	 bex	 4	 5.000000	 2.000000	 flanked_bex_freq_4_amplitude_5_rep_8_r_D_2.0_ampflank_6.png	 D	 r	 r	 n.a.	 1.107447e+00
5	 2	 98	 flanked	 bex	 4	 0.500000	 2.000000	 flanked_bex_freq_4_amplitude_0.5_rep_3_b_K_2.0_ampflank_6.png	 K	 b	 b	 n.a.	 8.336231e-01
5	 2	 99	 flanked	 bex	 4	 5.000000	 2.000000	 flanked_bex_freq_4_amplitude_5_rep_1_t_D_2.0_ampflank_6.png	 D	 t	 t	 n.a.	 6.156535e-01
5	 2	 100	 flanked	 bex	 4	 3.000000	 2.000000	 flanked_bex_freq_4_amplitude_3_rep_0_b_H_2.0_ampflank_6.png	 H	 b	 b	 n.a.	 1.242202e+00
5	 2	 101	 flanked	 bex	 4	 3.000000	 2.000000	 flanked_bex_freq_4_amplitude_3_rep_4_t_N_2.0_ampflank_6.png	 N	 t	 b	 n.a.	 1.216531e+00
5	 2	 102	 flanked	 bex	 4	 0.500000	 2.000000	 flanked_bex_freq_4_amplitude_0.5_rep_4_l_N_2.0_ampflank_6.png	 N	 l	 b	 n.a.	 6.789641e-01
5	 2	 103	 flanked	 bex	 4	 2.000000	 2.000000	 flanked_bex_freq_4_amplitude_2_rep_1_b_D_2.0_ampflank_6.png	 D	 b	 r	 n.a.	 1.142299e+00
5	 2	 104	 flanked	 bex	 4	 0.500000	 2.000000	 flanked_bex_freq_4_amplitude_0.5_rep_9_r_H_2.0_ampflank_6.png	 H	 r	 t	 n.a.	 5.122333e-01
5	 2	 105	 flanked	 bex	 4	 0.500000	 2.000000	 flanked_bex_freq_4_amplitude_0.5_rep_7_b_N_2.0_ampflank_6.png	 N	 b	 r	 n.a.	 1.146255e+00
5	 2	 106	 flanked	 bex	 4	 1.000000	 2.000000	 flanked_bex_freq_4_amplitude_1_rep_6_r_N_2.0_ampflank_6.png	 N	 r	 t	 n.a.	 7.842547e-01
5	 2	 107	 flanked	 bex	 4	 6.000000	 2.000000	 flanked_bex_freq_4_amplitude_6_rep_5_b_D_2.0_ampflank_6.png	 D	 b	 t	 n.a.	 7.912273e-01
5	 2	 108	 flanked	 bex	 4	 4.000000	 2.000000	 flanked_bex_freq_4_amplitude_4_rep_6_l_K_2.0_ampflank_6.png	 K	 l	 r	 n.a.	 1.162642e+00
5	 2	 109	 flanked	 bex	 4	 4.000000	 2.000000	 flanked_bex_freq_4_amplitude_4_rep_8_b_D_2.0_ampflank_6.png	 D	 b	 t	 n.a.	 4.884531e-01
5	 2	 110	 flanked	 bex	 4	 4.000000	 2.000000	 flanked_bex_freq_4_amplitude_4_rep_2_l_K_2.0_ampflank_6.png	 K	 l	 b	 n.a.	 7.680990e-01
5	 2	 111	 flanked	 bex	 4	 3.000000	 2.000000	 flanked_bex_freq_4_amplitude_3_rep_9_t_D_2.0_ampflank_6.png	 D	 t	 l	 n.a.	 8.754028e-01
5	 2	 112	 flanked	 bex	 4	 1.000000	 2.000000	 flanked_bex_freq_4_amplitude_1_rep_2_l_K_2.0_ampflank_6.png	 K	 l	 b	 n.a.	 1.095089e+00
5	 2	 113	 flanked	 bex	 4	 0.500000	 2.000000	 flanked_bex_freq_4_amplitude_0.5_rep_1_b_K_2.0_ampflank_6.png	 K	 b	 b	 n.a.	 1.313366e+00
5	 2	 114	 flanked	 bex	 4	 5.000000	 2.000000	 flanked_bex_freq_4_amplitude_5_rep_6_l_N_2.0_ampflank_6.png	 N	 l	 l	 n.a.	 7.352986e-01
5	 2	 115	 flanked	 bex	 4	 3.000000	 2.000000	 flanked_bex_freq_4_amplitude_3_rep_2_b_H_2.0_ampflank_6.png	 H	 b	 r	 n.a.	 9.725382e-01
5	 2	 116	 flanked	 bex	 4	 5.000000	 2.000000	 flanked_bex_freq_4_amplitude_5_rep_7_l_H_2.0_ampflank_6.png	 H	 l	 l	 n.a.	 9.132037e-01
5	 2	 117	 flanked	 bex	 4	 1.000000	 2.000000	 flanked_bex_freq_4_amplitude_1_rep_2_l_K_2.0_ampflank_6.png	 K	 l	 b	 n.a.	 5.555894e-01
5	 2	 118	 flanked	 bex	 4	 2.000000	 2.000000	 flanked_bex_freq_4_amplitude_2_rep_7_t_H_2.0_ampflank_6.png	 H	 t	 t	 n.a.	 1.516336e+00
5	 2	 119	 flanked	 bex	 4	 5.000000	 2.000000	 flanked_bex_freq_4_amplitude_5_rep_8_r_D_2.0_ampflank_6.png	 D	 r	 t	 n.a.	 5.009592e-01
5	 2	 120	 flanked	 bex	 4	 4.000000	 2.000000	 flanked_bex_freq_4_amplitude_4_rep_1_l_N_2.0_ampflank_6.png	 N	 l	 l	 n.a.	 6.261778e-01
5	 2	 121	 flanked	 bex	 4	 1.000000	 2.000000	 flanked_bex_freq_4_amplitude_1_rep_1_r_N_2.0_ampflank_6.png	 N	 r	 l	 n.a.	 6.673192e-01
5	 2	 122	 flanked	 bex	 4	 2.000000	 2.000000	 flanked_bex_freq_4_amplitude_2_rep_7_t_H_2.0_ampflank_6.png	 H	 t	 r	 n.a.	 7.357620e-01
5	 2	 123	 flanked	 bex	 4	 6.000000	 2.000000	 flanked_bex_freq_4_amplitude_6_rep_1_l_K_2.0_ampflank_6.png	 K	 l	 t	 n.a.	 5.982599e-01
5	 2	 124	 flanked	 bex	 4	 5.000000	 2.000000	 flanked_bex_freq_4_amplitude_5_rep_7_l_H_2.0_ampflank_6.png	 H	 l	 l	 n.a.	 7.272455e-01
5	 2	 125	 flanked	 bex	 4	 3.000000	 2.000000	 flanked_bex_freq_4_amplitude_3_rep_5_t_H_2.0_ampflank_6.png	 H	 t	 l	 n.a.	 5.911350e-01
5	 2	 126	 flanked	 bex	 4	 1.000000	 2.000000	 flanked_bex_freq_4_amplitude_1_rep_9_l_H_2.0_ampflank_6.png	 H	 l	 t	 n.a.	 1.358022e+00
5	 2	 127	 flanked	 bex	 4	 2.000000	 2.000000	 flanked_bex_freq_4_amplitude_2_rep_8_b_H_2.0_ampflank_6.png	 H	 b	 r	 n.a.	 4.742733e-01
5	 2	 128	 flanked	 bex	 4	 5.000000	 2.000000	 flanked_bex_freq_4_amplitude_5_rep_4_r_H_2.0_ampflank_6.png	 H	 r	 r	 n.a.	 5.971433e-01
5	 2	 129	 flanked	 bex	 4	 5.000000	 2.000000	 flanked_bex_freq_4_amplitude_5_rep_2_b_H_2.0_ampflank_6.png	 H	 b	 b	 n.a.	 8.872397e-01
5	 2	 130	 flanked	 bex	 4	 3.000000	 2.000000	 flanked_bex_freq_4_amplitude_3_rep_2_b_H_2.0_ampflank_6.png	 H	 b	 l	 n.a.	 1.196879e+00
5	 2	 131	 flanked	 bex	 4	 3.000000	 2.000000	 flanked_bex_freq_4_amplitude_3_rep_8_t_D_2.0_ampflank_6.png	 D	 t	 t	 n.a.	 1.237070e+00
5	 2	 132	 flanked	 bex	 4	 4.000000	 2.000000	 flanked_bex_freq_4_amplitude_4_rep_1_l_N_2.0_ampflank_6.png	 N	 l	 l	 n.a.	 6.524486e-01
5	 2	 133	 flanked	 bex	 4	 5.000000	 2.000000	 flanked_bex_freq_4_amplitude_5_rep_2_b_H_2.0_ampflank_6.png	 H	 b	 b	 n.a.	 4.192355e-01
5	 2	 134	 flanked	 bex	 4	 5.000000	 2.000000	 flanked_bex_freq_4_amplitude_5_rep_9_l_K_2.0_ampflank_6.png	 K	 l	 l	 n.a.	 6.730412e-01
5	 2	 135	 flanked	 bex	 4	 2.000000	 2.000000	 flanked_bex_freq_4_amplitude_2_rep_1_b_D_2.0_ampflank_6.png	 D	 b	 r	 n.a.	 6.222375e-01
5	 2	 136	 flanked	 bex	 4	 1.000000	 2.000000	 flanked_bex_freq_4_amplitude_1_rep_8_l_H_2.0_ampflank_6.png	 H	 l	 t	 n.a.	 4.730391e-01
5	 2	 137	 flanked	 bex	 4	 4.000000	 2.000000	 flanked_bex_freq_4_amplitude_4_rep_3_t_N_2.0_ampflank_6.png	 N	 t	 t	 n.a.	 4.926465e-01
5	 2	 138	 flanked	 bex	 4	 4.000000	 2.000000	 flanked_bex_freq_4_amplitude_4_rep_4_r_D_2.0_ampflank_6.png	 D	 r	 r	 n.a.	 4.290977e-01
5	 2	 139	 flanked	 bex	 4	 5.000000	 2.000000	 flanked_bex_freq_4_amplitude_5_rep_4_r_H_2.0_ampflank_6.png	 H	 r	 r	 n.a.	 3.846382e-01
5	 2	 140	 flanked	 bex	 4	 2.000000	 2.000000	 flanked_bex_freq_4_amplitude_2_rep_8_b_H_2.0_ampflank_6.png	 H	 b	 b	 n.a.	 4.453996e-01
5	 2	 141	 flanked	 bex	 4	 4.000000	 2.000000	 flanked_bex_freq_4_amplitude_4_rep_2_l_K_2.0_ampflank_6.png	 K	 l	 r	 n.a.	 6.304820e-01
5	 2	 142	 flanked	 bex	 4	 0.500000	 2.000000	 flanked_bex_freq_4_amplitude_0.5_rep_3_b_K_2.0_ampflank_6.png	 K	 b	 t	 n.a.	 7.481716e-01
5	 2	 143	 flanked	 bex	 4	 3.000000	 2.000000	 flanked_bex_freq_4_amplitude_3_rep_0_b_H_2.0_ampflank_6.png	 H	 b	 b	 n.a.	 6.066664e-01
5	 2	 144	 flanked	 bex	 4	 6.000000	 2.000000	 flanked_bex_freq_4_amplitude_6_rep_4_t_N_2.0_ampflank_6.png	 N	 t	 t	 n.a.	 4.752833e-01
5	 2	 145	 flanked	 bex	 4	 6.000000	 2.000000	 flanked_bex_freq_4_amplitude_6_rep_0_r_H_2.0_ampflank_6.png	 H	 r	 r	 n.a.	 4.492688e-01
5	 2	 146	 flanked	 bex	 4	 2.000000	 2.000000	 flanked_bex_freq_4_amplitude_2_rep_5_t_H_2.0_ampflank_6.png	 H	 t	 t	 n.a.	 5.710796e-01
5	 2	 147	 flanked	 bex	 4	 6.000000	 2.000000	 flanked_bex_freq_4_amplitude_6_rep_8_r_D_2.0_ampflank_6.png	 D	 r	 r	 n.a.	 5.164188e-01
5	 2	 148	 flanked	 bex	 4	 6.000000	 2.000000	 flanked_bex_freq_4_amplitude_6_rep_8_r_D_2.0_ampflank_6.png	 D	 r	 r	 n.a.	 3.508240e-01
5	 2	 149	 flanked	 bex	 4	 6.000000	 2.000000	 flanked_bex_freq_4_amplitude_6_rep_6_b_N_2.0_ampflank_6.png	 N	 b	 t	 n.a.	 3.220591e-01
5	 2	 150	 flanked	 bex	 4	 6.000000	 2.000000	 flanked_bex_freq_4_amplitude_6_rep_2_t_D_2.0_ampflank_6.png	 D	 t	 t	 n.a.	 3.657433e-01
5	 2	 151	 flanked	 bex	 4	 4.000000	 2.000000	 flanked_bex_freq_4_amplitude_4_rep_9_b_D_2.0_ampflank_6.png	 D	 b	 t	 n.a.	 4.441820e-01
5	 2	 152	 flanked	 bex	 4	 0.500000	 2.000000	 flanked_bex_freq_4_amplitude_0.5_rep_6_l_H_2.0_ampflank_6.png	 H	 l	 b	 n.a.	 8.792934e-01
5	 2	 153	 flanked	 bex	 4	 5.000000	 2.000000	 flanked_bex_freq_4_amplitude_5_rep_5_l_K_2.0_ampflank_6.png	 K	 l	 t	 n.a.	 7.297291e-01
5	 2	 154	 flanked	 bex	 4	 2.000000	 2.000000	 flanked_bex_freq_4_amplitude_2_rep_8_b_H_2.0_ampflank_6.png	 H	 b	 b	 n.a.	 6.816984e-01
5	 2	 155	 flanked	 bex	 4	 2.000000	 2.000000	 flanked_bex_freq_4_amplitude_2_rep_3_r_D_2.0_ampflank_6.png	 D	 r	 b	 n.a.	 8.686066e-01
5	 2	 156	 flanked	 bex	 4	 4.000000	 2.000000	 flanked_bex_freq_4_amplitude_4_rep_6_l_K_2.0_ampflank_6.png	 K	 l	 l	 n.a.	 4.517916e-01
5	 2	 157	 flanked	 bex	 4	 6.000000	 2.000000	 flanked_bex_freq_4_amplitude_6_rep_4_t_N_2.0_ampflank_6.png	 N	 t	 t	 n.a.	 3.564336e-01
5	 2	 158	 flanked	 bex	 4	 5.000000	 2.000000	 flanked_bex_freq_4_amplitude_5_rep_1_t_D_2.0_ampflank_6.png	 D	 t	 t	 n.a.	 3.989804e-01
5	 2	 159	 flanked	 bex	 4	 4.000000	 2.000000	 flanked_bex_freq_4_amplitude_4_rep_0_b_H_2.0_ampflank_6.png	 H	 b	 b	 n.a.	 4.886627e-01
5	 2	 160	 flanked	 bex	 4	 0.500000	 2.000000	 flanked_bex_freq_4_amplitude_0.5_rep_2_b_N_2.0_ampflank_6.png	 N	 b	 l	 n.a.	 1.253506e+00
5	 2	 161	 flanked	 bex	 4	 2.000000	 2.000000	 flanked_bex_freq_4_amplitude_2_rep_5_t_H_2.0_ampflank_6.png	 H	 t	 t	 n.a.	 4.976550e-01
5	 2	 162	 flanked	 bex	 4	 1.000000	 2.000000	 flanked_bex_freq_4_amplitude_1_rep_0_t_K_2.0_ampflank_6.png	 K	 t	 t	 n.a.	 4.607920e-01
5	 2	 163	 flanked	 bex	 4	 6.000000	 2.000000	 flanked_bex_freq_4_amplitude_6_rep_7_l_D_2.0_ampflank_6.png	 D	 l	 b	 n.a.	 5.781514e-01
5	 2	 164	 flanked	 bex	 4	 1.000000	 2.000000	 flanked_bex_freq_4_amplitude_1_rep_3_b_D_2.0_ampflank_6.png	 D	 b	 b	 n.a.	 1.184696e+00
5	 2	 165	 flanked	 bex	 4	 2.000000	 2.000000	 flanked_bex_freq_4_amplitude_2_rep_1_b_D_2.0_ampflank_6.png	 D	 b	 r	 n.a.	 7.334882e-01
5	 2	 166	 flanked	 bex	 4	 6.000000	 2.000000	 flanked_bex_freq_4_amplitude_6_rep_3_r_K_2.0_ampflank_6.png	 K	 r	 t	 n.a.	 4.288348e-01
5	 2	 167	 flanked	 bex	 4	 6.000000	 2.000000	 flanked_bex_freq_4_amplitude_6_rep_2_t_D_2.0_ampflank_6.png	 D	 t	 t	 n.a.	 3.790346e-01
5	 2	 168	 flanked	 bex	 4	 0.500000	 2.000000	 flanked_bex_freq_4_amplitude_0.5_rep_7_b_N_2.0_ampflank_6.png	 N	 b	 b	 n.a.	 6.094091e-01
5	 2	 169	 flanked	 bex	 4	 3.000000	 2.000000	 flanked_bex_freq_4_amplitude_3_rep_4_t_N_2.0_ampflank_6.png	 N	 t	 t	 n.a.	 5.688002e-01
5	 2	 170	 flanked	 bex	 4	 5.000000	 2.000000	 flanked_bex_freq_4_amplitude_5_rep_9_l_K_2.0_ampflank_6.png	 K	 l	 l	 n.a.	 1.171502e+00
5	 2	 171	 flanked	 bex	 4	 5.000000	 2.000000	 flanked_bex_freq_4_amplitude_5_rep_1_t_D_2.0_ampflank_6.png	 D	 t	 t	 n.a.	 4.256977e-01
5	 2	 172	 flanked	 bex	 4	 4.000000	 2.000000	 flanked_bex_freq_4_amplitude_4_rep_8_b_D_2.0_ampflank_6.png	 D	 b	 b	 n.a.	 5.747008e-01
5	 2	 173	 flanked	 bex	 4	 1.000000	 2.000000	 flanked_bex_freq_4_amplitude_1_rep_9_l_H_2.0_ampflank_6.png	 H	 l	 r	 n.a.	 6.154278e-01
5	 2	 174	 flanked	 bex	 4	 4.000000	 2.000000	 flanked_bex_freq_4_amplitude_4_rep_5_b_H_2.0_ampflank_6.png	 H	 b	 t	 n.a.	 5.425996e-01
5	 2	 175	 flanked	 bex	 4	 4.000000	 2.000000	 flanked_bex_freq_4_amplitude_4_rep_7_l_K_2.0_ampflank_6.png	 K	 l	 r	 n.a.	 1.086029e+00
5	 2	 176	 flanked	 bex	 4	 1.000000	 2.000000	 flanked_bex_freq_4_amplitude_1_rep_6_r_N_2.0_ampflank_6.png	 N	 r	 t	 n.a.	 9.166574e-01
5	 2	 177	 flanked	 bex	 4	 2.000000	 2.000000	 flanked_bex_freq_4_amplitude_2_rep_4_t_K_2.0_ampflank_6.png	 K	 t	 b	 n.a.	 7.601547e-01
5	 2	 178	 flanked	 bex	 4	 2.000000	 2.000000	 flanked_bex_freq_4_amplitude_2_rep_2_r_N_2.0_ampflank_6.png	 N	 r	 r	 n.a.	 8.445070e-01
5	 2	 179	 flanked	 bex	 4	 0.500000	 2.000000	 flanked_bex_freq_4_amplitude_0.5_rep_6_l_H_2.0_ampflank_6.png	 H	 l	 b	 n.a.	 1.279264e+00
5	 2	 180	 flanked	 bex	 4	 2.000000	 2.000000	 flanked_bex_freq_4_amplitude_2_rep_4_t_K_2.0_ampflank_6.png	 K	 t	 t	 n.a.	 6.891828e-01
5	 2	 181	 flanked	 bex	 4	 3.000000	 2.000000	 flanked_bex_freq_4_amplitude_3_rep_8_t_D_2.0_ampflank_6.png	 D	 t	 t	 n.a.	 1.009259e+00
5	 2	 182	 flanked	 bex	 4	 5.000000	 2.000000	 flanked_bex_freq_4_amplitude_5_rep_7_l_H_2.0_ampflank_6.png	 H	 l	 t	 n.a.	 8.892475e-01
5	 2	 183	 flanked	 bex	 4	 3.000000	 2.000000	 flanked_bex_freq_4_amplitude_3_rep_1_b_D_2.0_ampflank_6.png	 D	 b	 t	 n.a.	 1.546668e+00
5	 2	 184	 flanked	 bex	 4	 1.000000	 2.000000	 flanked_bex_freq_4_amplitude_1_rep_3_b_D_2.0_ampflank_6.png	 D	 b	 r	 n.a.	 6.375466e-01
5	 2	 185	 flanked	 bex	 4	 0.500000	 2.000000	 flanked_bex_freq_4_amplitude_0.5_rep_9_r_H_2.0_ampflank_6.png	 H	 r	 t	 n.a.	 7.874303e-01
5	 2	 186	 flanked	 bex	 4	 5.000000	 2.000000	 flanked_bex_freq_4_amplitude_5_rep_0_r_K_2.0_ampflank_6.png	 K	 r	 r	 n.a.	 4.263960e-01
5	 2	 187	 flanked	 bex	 4	 0.500000	 2.000000	 flanked_bex_freq_4_amplitude_0.5_rep_6_l_H_2.0_ampflank_6.png	 H	 l	 l	 n.a.	 1.506623e+00
5	 2	 188	 flanked	 bex	 4	 1.000000	 2.000000	 flanked_bex_freq_4_amplitude_1_rep_5_r_H_2.0_ampflank_6.png	 H	 r	 r	 n.a.	 4.820610e-01
5	 2	 189	 flanked	 bex	 4	 0.500000	 2.000000	 flanked_bex_freq_4_amplitude_0.5_rep_8_t_D_2.0_ampflank_6.png	 D	 t	 l	 n.a.	 1.113721e+00
5	 2	 190	 flanked	 bex	 4	 4.000000	 2.000000	 flanked_bex_freq_4_amplitude_4_rep_8_b_D_2.0_ampflank_6.png	 D	 b	 b	 n.a.	 8.582414e-01
5	 2	 191	 flanked	 bex	 4	 0.500000	 2.000000	 flanked_bex_freq_4_amplitude_0.5_rep_8_t_D_2.0_ampflank_6.png	 D	 t	 b	 n.a.	 8.796326e-01
5	 2	 192	 flanked	 bex	 4	 4.000000	 2.000000	 flanked_bex_freq_4_amplitude_4_rep_9_b_D_2.0_ampflank_6.png	 D	 b	 b	 n.a.	 9.160289e-01
5	 2	 193	 flanked	 bex	 4	 0.500000	 2.000000	 flanked_bex_freq_4_amplitude_0.5_rep_4_l_N_2.0_ampflank_6.png	 N	 l	 b	 n.a.	 9.205508e-01
5	 2	 194	 flanked	 bex	 4	 2.000000	 2.000000	 flanked_bex_freq_4_amplitude_2_rep_2_r_N_2.0_ampflank_6.png	 N	 r	 r	 n.a.	 1.184670e+00
5	 2	 195	 flanked	 bex	 4	 5.000000	 2.000000	 flanked_bex_freq_4_amplitude_5_rep_9_l_K_2.0_ampflank_6.png	 K	 l	 t	 n.a.	 1.145453e+00
5	 2	 196	 flanked	 bex	 4	 2.000000	 2.000000	 flanked_bex_freq_4_amplitude_2_rep_5_t_H_2.0_ampflank_6.png	 H	 t	 l	 n.a.	 1.211118e+00
5	 2	 197	 flanked	 bex	 4	 3.000000	 2.000000	 flanked_bex_freq_4_amplitude_3_rep_7_r_H_2.0_ampflank_6.png	 H	 r	 b	 n.a.	 1.459273e+00
5	 2	 198	 flanked	 bex	 4	 0.500000	 2.000000	 flanked_bex_freq_4_amplitude_0.5_rep_5_r_D_2.0_ampflank_6.png	 D	 r	 t	 n.a.	 5.881831e-01
5	 2	 199	 flanked	 bex	 4	 3.000000	 2.000000	 flanked_bex_freq_4_amplitude_3_rep_6_l_H_2.0_ampflank_6.png	 H	 l	 b	 n.a.	 1.121790e+00
5	 2	 200	 flanked	 bex	 4	 1.000000	 2.000000	 flanked_bex_freq_4_amplitude_1_rep_3_b_D_2.0_ampflank_6.png	 D	 b	 r	 n.a.	 1.377739e+00
5	 2	 201	 flanked	 bex	 4	 2.000000	 2.000000	 flanked_bex_freq_4_amplitude_2_rep_0_r_D_2.0_ampflank_6.png	 D	 r	 r	 n.a.	 8.885960e-01
5	 2	 202	 flanked	 bex	 4	 4.000000	 2.000000	 flanked_bex_freq_4_amplitude_4_rep_6_l_K_2.0_ampflank_6.png	 K	 l	 t	 n.a.	 7.756218e-01
5	 2	 203	 flanked	 bex	 4	 3.000000	 2.000000	 flanked_bex_freq_4_amplitude_3_rep_3_t_D_2.0_ampflank_6.png	 D	 t	 r	 n.a.	 1.055797e+00
5	 2	 204	 flanked	 bex	 4	 2.000000	 2.000000	 flanked_bex_freq_4_amplitude_2_rep_3_r_D_2.0_ampflank_6.png	 D	 r	 r	 n.a.	 1.036331e+00
5	 2	 205	 flanked	 bex	 4	 5.000000	 2.000000	 flanked_bex_freq_4_amplitude_5_rep_6_l_N_2.0_ampflank_6.png	 N	 l	 b	 n.a.	 5.139998e-01
5	 2	 206	 flanked	 bex	 4	 4.000000	 2.000000	 flanked_bex_freq_4_amplitude_4_rep_3_t_N_2.0_ampflank_6.png	 N	 t	 t	 n.a.	 5.578216e-01
5	 2	 207	 flanked	 bex	 4	 1.000000	 2.000000	 flanked_bex_freq_4_amplitude_1_rep_7_b_D_2.0_ampflank_6.png	 D	 b	 b	 n.a.	 1.083415e+00
5	 2	 208	 flanked	 bex	 4	 0.500000	 2.000000	 flanked_bex_freq_4_amplitude_0.5_rep_0_b_K_2.0_ampflank_6.png	 K	 b	 b	 n.a.	 1.525075e+00
5	 2	 209	 flanked	 bex	 4	 0.500000	 2.000000	 flanked_bex_freq_4_amplitude_0.5_rep_2_b_N_2.0_ampflank_6.png	 N	 b	 r	 n.a.	 8.647772e-01
5	 2	 210	 flanked	 bex	 4	 6.000000	 2.000000	 flanked_bex_freq_4_amplitude_6_rep_0_r_H_2.0_ampflank_6.png	 H	 r	 r	 n.a.	 5.716537e-01
