subject	 session	 trial	 flanked	 distortion	 freq	 amplitude	 spacing	 im_name	 targ_letter	 targ_pos	 response	 eyemovement	 RT
7	 2	 1	 flanked	 rf	 4	 0.200000	 2.000000	 flanked_rf_freq_4_amplitude_0.2_rep_0_r_H_2.0_ampflank_0.425.png	 H	 r	 t	 n.a.	 3.492009e-01
7	 2	 2	 flanked	 rf	 4	 0.050000	 2.000000	 flanked_rf_freq_4_amplitude_0.05_rep_1_t_N_2.0_ampflank_0.425.png	 N	 t	 r	 n.a.	 5.458578e-01
7	 2	 3	 flanked	 rf	 4	 0.200000	 2.000000	 flanked_rf_freq_4_amplitude_0.2_rep_8_t_N_2.0_ampflank_0.425.png	 N	 t	 b	 n.a.	 6.114480e-01
7	 2	 4	 flanked	 rf	 4	 0.125000	 2.000000	 flanked_rf_freq_4_amplitude_0.125_rep_8_l_N_2.0_ampflank_0.425.png	 N	 l	 t	 n.a.	 3.970860e-01
7	 2	 5	 flanked	 rf	 4	 0.025000	 2.000000	 flanked_rf_freq_4_amplitude_0.025_rep_9_b_K_2.0_ampflank_0.425.png	 K	 b	 r	 n.a.	 5.591256e-01
7	 2	 6	 flanked	 rf	 4	 0.050000	 2.000000	 flanked_rf_freq_4_amplitude_0.05_rep_6_t_K_2.0_ampflank_0.425.png	 K	 t	 l	 n.a.	 5.737895e-01
7	 2	 7	 flanked	 rf	 4	 0.425000	 2.000000	 flanked_rf_freq_4_amplitude_0.425_rep_7_l_H_2.0_ampflank_0.425.png	 H	 l	 b	 n.a.	 5.302897e-01
7	 2	 8	 flanked	 rf	 4	 0.125000	 2.000000	 flanked_rf_freq_4_amplitude_0.125_rep_6_l_D_2.0_ampflank_0.425.png	 D	 l	 t	 n.a.	 4.285090e-01
7	 2	 9	 flanked	 rf	 4	 0.200000	 2.000000	 flanked_rf_freq_4_amplitude_0.2_rep_4_r_K_2.0_ampflank_0.425.png	 K	 r	 b	 n.a.	 5.238080e-01
7	 2	 10	 flanked	 rf	 4	 0.050000	 2.000000	 flanked_rf_freq_4_amplitude_0.05_rep_9_b_K_2.0_ampflank_0.425.png	 K	 b	 t	 n.a.	 6.025001e-01
7	 2	 11	 flanked	 rf	 4	 0.425000	 2.000000	 flanked_rf_freq_4_amplitude_0.425_rep_3_r_K_2.0_ampflank_0.425.png	 K	 r	 r	 n.a.	 3.438987e-01
7	 2	 12	 flanked	 rf	 4	 0.350000	 2.000000	 flanked_rf_freq_4_amplitude_0.35_rep_2_l_D_2.0_ampflank_0.425.png	 D	 l	 l	 n.a.	 5.290552e-01
7	 2	 13	 flanked	 rf	 4	 0.050000	 2.000000	 flanked_rf_freq_4_amplitude_0.05_rep_0_l_D_2.0_ampflank_0.425.png	 D	 l	 t	 n.a.	 4.763343e-01
7	 2	 14	 flanked	 rf	 4	 0.050000	 2.000000	 flanked_rf_freq_4_amplitude_0.05_rep_3_r_H_2.0_ampflank_0.425.png	 H	 r	 b	 n.a.	 7.054873e-01
7	 2	 15	 flanked	 rf	 4	 0.350000	 2.000000	 flanked_rf_freq_4_amplitude_0.35_rep_8_l_D_2.0_ampflank_0.425.png	 D	 l	 r	 n.a.	 4.529899e-01
7	 2	 16	 flanked	 rf	 4	 0.125000	 2.000000	 flanked_rf_freq_4_amplitude_0.125_rep_8_l_N_2.0_ampflank_0.425.png	 N	 l	 l	 n.a.	 7.208924e-01
7	 2	 17	 flanked	 rf	 4	 0.425000	 2.000000	 flanked_rf_freq_4_amplitude_0.425_rep_0_t_N_2.0_ampflank_0.425.png	 N	 t	 t	 n.a.	 5.394966e-01
7	 2	 18	 flanked	 rf	 4	 0.425000	 2.000000	 flanked_rf_freq_4_amplitude_0.425_rep_3_r_K_2.0_ampflank_0.425.png	 K	 r	 r	 n.a.	 4.536293e-01
7	 2	 19	 flanked	 rf	 4	 0.350000	 2.000000	 flanked_rf_freq_4_amplitude_0.35_rep_3_t_H_2.0_ampflank_0.425.png	 H	 t	 r	 n.a.	 8.321679e-01
7	 2	 20	 flanked	 rf	 4	 0.275000	 2.000000	 flanked_rf_freq_4_amplitude_0.275_rep_2_t_H_2.0_ampflank_0.425.png	 H	 t	 t	 n.a.	 6.369630e-01
7	 2	 21	 flanked	 rf	 4	 0.350000	 2.000000	 flanked_rf_freq_4_amplitude_0.35_rep_6_b_D_2.0_ampflank_0.425.png	 D	 b	 b	 n.a.	 6.406230e-01
7	 2	 22	 flanked	 rf	 4	 0.200000	 2.000000	 flanked_rf_freq_4_amplitude_0.2_rep_3_t_H_2.0_ampflank_0.425.png	 H	 t	 r	 n.a.	 5.486101e-01
7	 2	 23	 flanked	 rf	 4	 0.425000	 2.000000	 flanked_rf_freq_4_amplitude_0.425_rep_1_b_D_2.0_ampflank_0.425.png	 D	 b	 l	 n.a.	 7.037538e-01
7	 2	 24	 flanked	 rf	 4	 0.050000	 2.000000	 flanked_rf_freq_4_amplitude_0.05_rep_2_r_D_2.0_ampflank_0.425.png	 D	 r	 b	 n.a.	 5.965677e-01
7	 2	 25	 flanked	 rf	 4	 0.200000	 2.000000	 flanked_rf_freq_4_amplitude_0.2_rep_3_t_H_2.0_ampflank_0.425.png	 H	 t	 r	 n.a.	 5.410276e-01
7	 2	 26	 flanked	 rf	 4	 0.025000	 2.000000	 flanked_rf_freq_4_amplitude_0.025_rep_7_l_D_2.0_ampflank_0.425.png	 D	 l	 r	 n.a.	 7.211048e-01
7	 2	 27	 flanked	 rf	 4	 0.025000	 2.000000	 flanked_rf_freq_4_amplitude_0.025_rep_5_t_N_2.0_ampflank_0.425.png	 N	 t	 t	 n.a.	 5.666754e-01
7	 2	 28	 flanked	 rf	 4	 0.200000	 2.000000	 flanked_rf_freq_4_amplitude_0.2_rep_0_r_H_2.0_ampflank_0.425.png	 H	 r	 t	 n.a.	 5.201237e-01
7	 2	 29	 flanked	 rf	 4	 0.350000	 2.000000	 flanked_rf_freq_4_amplitude_0.35_rep_5_b_K_2.0_ampflank_0.425.png	 K	 b	 b	 n.a.	 5.004096e-01
7	 2	 30	 flanked	 rf	 4	 0.125000	 2.000000	 flanked_rf_freq_4_amplitude_0.125_rep_2_l_N_2.0_ampflank_0.425.png	 N	 l	 r	 n.a.	 6.333788e-01
7	 2	 31	 flanked	 rf	 4	 0.025000	 2.000000	 flanked_rf_freq_4_amplitude_0.025_rep_0_l_D_2.0_ampflank_0.425.png	 D	 l	 b	 n.a.	 1.025784e+00
7	 2	 32	 flanked	 rf	 4	 0.025000	 2.000000	 flanked_rf_freq_4_amplitude_0.025_rep_1_l_D_2.0_ampflank_0.425.png	 D	 l	 r	 n.a.	 4.601275e-01
7	 2	 33	 flanked	 rf	 4	 0.050000	 2.000000	 flanked_rf_freq_4_amplitude_0.05_rep_8_t_N_2.0_ampflank_0.425.png	 N	 t	 t	 n.a.	 5.654936e-01
7	 2	 34	 flanked	 rf	 4	 0.425000	 2.000000	 flanked_rf_freq_4_amplitude_0.425_rep_1_b_D_2.0_ampflank_0.425.png	 D	 b	 l	 n.a.	 7.187673e-01
7	 2	 35	 flanked	 rf	 4	 0.125000	 2.000000	 flanked_rf_freq_4_amplitude_0.125_rep_9_l_D_2.0_ampflank_0.425.png	 D	 l	 b	 n.a.	 6.286863e-01
7	 2	 36	 flanked	 rf	 4	 0.425000	 2.000000	 flanked_rf_freq_4_amplitude_0.425_rep_7_l_H_2.0_ampflank_0.425.png	 H	 l	 l	 n.a.	 5.879350e-01
7	 2	 37	 flanked	 rf	 4	 0.025000	 2.000000	 flanked_rf_freq_4_amplitude_0.025_rep_0_l_D_2.0_ampflank_0.425.png	 D	 l	 r	 n.a.	 3.968786e-01
7	 2	 38	 flanked	 rf	 4	 0.125000	 2.000000	 flanked_rf_freq_4_amplitude_0.125_rep_2_l_N_2.0_ampflank_0.425.png	 N	 l	 b	 n.a.	 3.764032e-01
7	 2	 39	 flanked	 rf	 4	 0.050000	 2.000000	 flanked_rf_freq_4_amplitude_0.05_rep_6_t_K_2.0_ampflank_0.425.png	 K	 t	 t	 n.a.	 4.593539e-01
7	 2	 40	 flanked	 rf	 4	 0.125000	 2.000000	 flanked_rf_freq_4_amplitude_0.125_rep_6_l_D_2.0_ampflank_0.425.png	 D	 l	 r	 n.a.	 5.015031e-01
7	 2	 41	 flanked	 rf	 4	 0.350000	 2.000000	 flanked_rf_freq_4_amplitude_0.35_rep_1_b_D_2.0_ampflank_0.425.png	 D	 b	 l	 n.a.	 8.389055e-01
7	 2	 42	 flanked	 rf	 4	 0.125000	 2.000000	 flanked_rf_freq_4_amplitude_0.125_rep_5_l_H_2.0_ampflank_0.425.png	 H	 l	 r	 n.a.	 7.781359e-01
7	 2	 43	 flanked	 rf	 4	 0.125000	 2.000000	 flanked_rf_freq_4_amplitude_0.125_rep_3_t_D_2.0_ampflank_0.425.png	 D	 t	 t	 n.a.	 5.709447e-01
7	 2	 44	 flanked	 rf	 4	 0.275000	 2.000000	 flanked_rf_freq_4_amplitude_0.275_rep_2_t_H_2.0_ampflank_0.425.png	 H	 t	 t	 n.a.	 6.510610e-01
7	 2	 45	 flanked	 rf	 4	 0.050000	 2.000000	 flanked_rf_freq_4_amplitude_0.05_rep_5_l_H_2.0_ampflank_0.425.png	 H	 l	 r	 n.a.	 8.622104e-01
7	 2	 46	 flanked	 rf	 4	 0.275000	 2.000000	 flanked_rf_freq_4_amplitude_0.275_rep_0_t_K_2.0_ampflank_0.425.png	 K	 t	 t	 n.a.	 4.944455e-01
7	 2	 47	 flanked	 rf	 4	 0.275000	 2.000000	 flanked_rf_freq_4_amplitude_0.275_rep_4_l_H_2.0_ampflank_0.425.png	 H	 l	 b	 n.a.	 6.110192e-01
7	 2	 48	 flanked	 rf	 4	 0.425000	 2.000000	 flanked_rf_freq_4_amplitude_0.425_rep_2_b_K_2.0_ampflank_0.425.png	 K	 b	 t	 n.a.	 6.069397e-01
7	 2	 49	 flanked	 rf	 4	 0.200000	 2.000000	 flanked_rf_freq_4_amplitude_0.2_rep_1_b_D_2.0_ampflank_0.425.png	 D	 b	 b	 n.a.	 5.084883e-01
7	 2	 50	 flanked	 rf	 4	 0.050000	 2.000000	 flanked_rf_freq_4_amplitude_0.05_rep_9_b_K_2.0_ampflank_0.425.png	 K	 b	 b	 n.a.	 6.340393e-01
7	 2	 51	 flanked	 rf	 4	 0.025000	 2.000000	 flanked_rf_freq_4_amplitude_0.025_rep_3_r_H_2.0_ampflank_0.425.png	 H	 r	 t	 n.a.	 5.254696e-01
7	 2	 52	 flanked	 rf	 4	 0.050000	 2.000000	 flanked_rf_freq_4_amplitude_0.05_rep_0_l_D_2.0_ampflank_0.425.png	 D	 l	 t	 n.a.	 4.917837e-01
7	 2	 53	 flanked	 rf	 4	 0.025000	 2.000000	 flanked_rf_freq_4_amplitude_0.025_rep_5_t_N_2.0_ampflank_0.425.png	 N	 t	 b	 n.a.	 9.181264e-01
7	 2	 54	 flanked	 rf	 4	 0.200000	 2.000000	 flanked_rf_freq_4_amplitude_0.2_rep_1_b_D_2.0_ampflank_0.425.png	 D	 b	 r	 n.a.	 4.176021e-01
7	 2	 55	 flanked	 rf	 4	 0.050000	 2.000000	 flanked_rf_freq_4_amplitude_0.05_rep_8_t_N_2.0_ampflank_0.425.png	 N	 t	 b	 n.a.	 6.094374e-01
7	 2	 56	 flanked	 rf	 4	 0.025000	 2.000000	 flanked_rf_freq_4_amplitude_0.025_rep_1_l_D_2.0_ampflank_0.425.png	 D	 l	 r	 n.a.	 5.421177e-01
7	 2	 57	 flanked	 rf	 4	 0.275000	 2.000000	 flanked_rf_freq_4_amplitude_0.275_rep_7_l_K_2.0_ampflank_0.425.png	 K	 l	 t	 n.a.	 4.404685e-01
7	 2	 58	 flanked	 rf	 4	 0.125000	 2.000000	 flanked_rf_freq_4_amplitude_0.125_rep_6_l_D_2.0_ampflank_0.425.png	 D	 l	 t	 n.a.	 5.796283e-01
7	 2	 59	 flanked	 rf	 4	 0.275000	 2.000000	 flanked_rf_freq_4_amplitude_0.275_rep_8_l_D_2.0_ampflank_0.425.png	 D	 l	 b	 n.a.	 5.387865e-01
7	 2	 60	 flanked	 rf	 4	 0.025000	 2.000000	 flanked_rf_freq_4_amplitude_0.025_rep_9_b_K_2.0_ampflank_0.425.png	 K	 b	 r	 n.a.	 4.566868e-01
7	 2	 61	 flanked	 rf	 4	 0.125000	 2.000000	 flanked_rf_freq_4_amplitude_0.125_rep_4_b_N_2.0_ampflank_0.425.png	 N	 b	 l	 n.a.	 6.106047e-01
7	 2	 62	 flanked	 rf	 4	 0.350000	 2.000000	 flanked_rf_freq_4_amplitude_0.35_rep_2_l_D_2.0_ampflank_0.425.png	 D	 l	 t	 n.a.	 8.254448e-01
7	 2	 63	 flanked	 rf	 4	 0.125000	 2.000000	 flanked_rf_freq_4_amplitude_0.125_rep_5_l_H_2.0_ampflank_0.425.png	 H	 l	 r	 n.a.	 5.049970e-01
7	 2	 64	 flanked	 rf	 4	 0.350000	 2.000000	 flanked_rf_freq_4_amplitude_0.35_rep_5_b_K_2.0_ampflank_0.425.png	 K	 b	 b	 n.a.	 3.607837e-01
7	 2	 65	 flanked	 rf	 4	 0.025000	 2.000000	 flanked_rf_freq_4_amplitude_0.025_rep_0_l_D_2.0_ampflank_0.425.png	 D	 l	 r	 n.a.	 5.897718e-01
7	 2	 66	 flanked	 rf	 4	 0.425000	 2.000000	 flanked_rf_freq_4_amplitude_0.425_rep_4_b_D_2.0_ampflank_0.425.png	 D	 b	 b	 n.a.	 4.542703e-01
7	 2	 67	 flanked	 rf	 4	 0.025000	 2.000000	 flanked_rf_freq_4_amplitude_0.025_rep_9_b_K_2.0_ampflank_0.425.png	 K	 b	 r	 n.a.	 5.073323e-01
7	 2	 68	 flanked	 rf	 4	 0.350000	 2.000000	 flanked_rf_freq_4_amplitude_0.35_rep_6_b_D_2.0_ampflank_0.425.png	 D	 b	 b	 n.a.	 5.047817e-01
7	 2	 69	 flanked	 rf	 4	 0.425000	 2.000000	 flanked_rf_freq_4_amplitude_0.425_rep_3_r_K_2.0_ampflank_0.425.png	 K	 r	 r	 n.a.	 6.114221e-01
7	 2	 70	 flanked	 rf	 4	 0.350000	 2.000000	 flanked_rf_freq_4_amplitude_0.35_rep_1_b_D_2.0_ampflank_0.425.png	 D	 b	 b	 n.a.	 7.408347e-01
7	 2	 71	 flanked	 rf	 4	 0.275000	 2.000000	 flanked_rf_freq_4_amplitude_0.275_rep_3_l_H_2.0_ampflank_0.425.png	 H	 l	 t	 n.a.	 4.271695e-01
7	 2	 72	 flanked	 rf	 4	 0.050000	 2.000000	 flanked_rf_freq_4_amplitude_0.05_rep_3_r_H_2.0_ampflank_0.425.png	 H	 r	 t	 n.a.	 4.937720e-01
7	 2	 73	 flanked	 rf	 4	 0.025000	 2.000000	 flanked_rf_freq_4_amplitude_0.025_rep_6_t_D_2.0_ampflank_0.425.png	 D	 t	 b	 n.a.	 3.951129e-01
7	 2	 74	 flanked	 rf	 4	 0.050000	 2.000000	 flanked_rf_freq_4_amplitude_0.05_rep_4_r_D_2.0_ampflank_0.425.png	 D	 r	 t	 n.a.	 4.148006e-01
7	 2	 75	 flanked	 rf	 4	 0.125000	 2.000000	 flanked_rf_freq_4_amplitude_0.125_rep_0_b_N_2.0_ampflank_0.425.png	 N	 b	 t	 n.a.	 4.590121e-01
7	 2	 76	 flanked	 rf	 4	 0.350000	 2.000000	 flanked_rf_freq_4_amplitude_0.35_rep_4_b_N_2.0_ampflank_0.425.png	 N	 b	 r	 n.a.	 3.587420e-01
7	 2	 77	 flanked	 rf	 4	 0.200000	 2.000000	 flanked_rf_freq_4_amplitude_0.2_rep_7_r_D_2.0_ampflank_0.425.png	 D	 r	 b	 n.a.	 3.983143e-01
7	 2	 78	 flanked	 rf	 4	 0.050000	 2.000000	 flanked_rf_freq_4_amplitude_0.05_rep_2_r_D_2.0_ampflank_0.425.png	 D	 r	 r	 n.a.	 4.149275e-01
7	 2	 79	 flanked	 rf	 4	 0.200000	 2.000000	 flanked_rf_freq_4_amplitude_0.2_rep_2_r_H_2.0_ampflank_0.425.png	 H	 r	 r	 n.a.	 5.694325e-01
7	 2	 80	 flanked	 rf	 4	 0.275000	 2.000000	 flanked_rf_freq_4_amplitude_0.275_rep_6_b_N_2.0_ampflank_0.425.png	 N	 b	 b	 n.a.	 7.627632e-01
7	 2	 81	 flanked	 rf	 4	 0.050000	 2.000000	 flanked_rf_freq_4_amplitude_0.05_rep_8_t_N_2.0_ampflank_0.425.png	 N	 t	 r	 n.a.	 5.229763e-01
7	 2	 82	 flanked	 rf	 4	 0.050000	 2.000000	 flanked_rf_freq_4_amplitude_0.05_rep_4_r_D_2.0_ampflank_0.425.png	 D	 r	 t	 n.a.	 3.442472e-01
7	 2	 83	 flanked	 rf	 4	 0.425000	 2.000000	 flanked_rf_freq_4_amplitude_0.425_rep_2_b_K_2.0_ampflank_0.425.png	 K	 b	 b	 n.a.	 4.449063e-01
7	 2	 84	 flanked	 rf	 4	 0.200000	 2.000000	 flanked_rf_freq_4_amplitude_0.2_rep_9_t_H_2.0_ampflank_0.425.png	 H	 t	 t	 n.a.	 5.223863e-01
7	 2	 85	 flanked	 rf	 4	 0.025000	 2.000000	 flanked_rf_freq_4_amplitude_0.025_rep_8_t_K_2.0_ampflank_0.425.png	 K	 t	 l	 n.a.	 6.789985e-01
7	 2	 86	 flanked	 rf	 4	 0.350000	 2.000000	 flanked_rf_freq_4_amplitude_0.35_rep_0_t_K_2.0_ampflank_0.425.png	 K	 t	 t	 n.a.	 4.566503e-01
7	 2	 87	 flanked	 rf	 4	 0.200000	 2.000000	 flanked_rf_freq_4_amplitude_0.2_rep_3_t_H_2.0_ampflank_0.425.png	 H	 t	 t	 n.a.	 6.237730e-01
7	 2	 88	 flanked	 rf	 4	 0.025000	 2.000000	 flanked_rf_freq_4_amplitude_0.025_rep_8_t_K_2.0_ampflank_0.425.png	 K	 t	 l	 n.a.	 6.348590e-01
7	 2	 89	 flanked	 rf	 4	 0.125000	 2.000000	 flanked_rf_freq_4_amplitude_0.125_rep_7_r_H_2.0_ampflank_0.425.png	 H	 r	 r	 n.a.	 3.991126e-01
7	 2	 90	 flanked	 rf	 4	 0.275000	 2.000000	 flanked_rf_freq_4_amplitude_0.275_rep_4_l_H_2.0_ampflank_0.425.png	 H	 l	 b	 n.a.	 8.651751e-01
7	 2	 91	 flanked	 rf	 4	 0.200000	 2.000000	 flanked_rf_freq_4_amplitude_0.2_rep_6_b_K_2.0_ampflank_0.425.png	 K	 b	 r	 n.a.	 6.010826e-01
7	 2	 92	 flanked	 rf	 4	 0.275000	 2.000000	 flanked_rf_freq_4_amplitude_0.275_rep_7_l_K_2.0_ampflank_0.425.png	 K	 l	 t	 n.a.	 5.608635e-01
7	 2	 93	 flanked	 rf	 4	 0.125000	 2.000000	 flanked_rf_freq_4_amplitude_0.125_rep_9_l_D_2.0_ampflank_0.425.png	 D	 l	 r	 n.a.	 7.525487e-01
7	 2	 94	 flanked	 rf	 4	 0.350000	 2.000000	 flanked_rf_freq_4_amplitude_0.35_rep_8_l_D_2.0_ampflank_0.425.png	 D	 l	 r	 n.a.	 6.385917e-01
7	 2	 95	 flanked	 rf	 4	 0.025000	 2.000000	 flanked_rf_freq_4_amplitude_0.025_rep_7_l_D_2.0_ampflank_0.425.png	 D	 l	 r	 n.a.	 5.921940e-01
7	 2	 96	 flanked	 rf	 4	 0.125000	 2.000000	 flanked_rf_freq_4_amplitude_0.125_rep_0_b_N_2.0_ampflank_0.425.png	 N	 b	 t	 n.a.	 6.078408e-01
7	 2	 97	 flanked	 rf	 4	 0.025000	 2.000000	 flanked_rf_freq_4_amplitude_0.025_rep_2_b_K_2.0_ampflank_0.425.png	 K	 b	 r	 n.a.	 6.985369e-01
7	 2	 98	 flanked	 rf	 4	 0.350000	 2.000000	 flanked_rf_freq_4_amplitude_0.35_rep_6_b_D_2.0_ampflank_0.425.png	 D	 b	 b	 n.a.	 4.435893e-01
7	 2	 99	 flanked	 rf	 4	 0.050000	 2.000000	 flanked_rf_freq_4_amplitude_0.05_rep_3_r_H_2.0_ampflank_0.425.png	 H	 r	 t	 n.a.	 6.617003e-01
7	 2	 100	 flanked	 rf	 4	 0.425000	 2.000000	 flanked_rf_freq_4_amplitude_0.425_rep_9_r_K_2.0_ampflank_0.425.png	 K	 r	 r	 n.a.	 4.135810e-01
7	 2	 101	 flanked	 rf	 4	 0.025000	 2.000000	 flanked_rf_freq_4_amplitude_0.025_rep_4_l_K_2.0_ampflank_0.425.png	 K	 l	 b	 n.a.	 6.321001e-01
7	 2	 102	 flanked	 rf	 4	 0.050000	 2.000000	 flanked_rf_freq_4_amplitude_0.05_rep_1_t_N_2.0_ampflank_0.425.png	 N	 t	 t	 n.a.	 4.443003e-01
7	 2	 103	 flanked	 rf	 4	 0.275000	 2.000000	 flanked_rf_freq_4_amplitude_0.275_rep_2_t_H_2.0_ampflank_0.425.png	 H	 t	 r	 n.a.	 8.175220e-01
7	 2	 104	 flanked	 rf	 4	 0.425000	 2.000000	 flanked_rf_freq_4_amplitude_0.425_rep_6_t_N_2.0_ampflank_0.425.png	 N	 t	 t	 n.a.	 5.343323e-01
7	 2	 105	 flanked	 rf	 4	 0.200000	 2.000000	 flanked_rf_freq_4_amplitude_0.2_rep_4_r_K_2.0_ampflank_0.425.png	 K	 r	 b	 n.a.	 5.007701e-01
7	 2	 106	 flanked	 rf	 4	 0.200000	 2.000000	 flanked_rf_freq_4_amplitude_0.2_rep_7_r_D_2.0_ampflank_0.425.png	 D	 r	 r	 n.a.	 4.832246e-01
7	 2	 107	 flanked	 rf	 4	 0.275000	 2.000000	 flanked_rf_freq_4_amplitude_0.275_rep_1_l_H_2.0_ampflank_0.425.png	 H	 l	 l	 n.a.	 3.817936e-01
7	 2	 108	 flanked	 rf	 4	 0.350000	 2.000000	 flanked_rf_freq_4_amplitude_0.35_rep_9_r_N_2.0_ampflank_0.425.png	 N	 r	 r	 n.a.	 3.509166e-01
7	 2	 109	 flanked	 rf	 4	 0.275000	 2.000000	 flanked_rf_freq_4_amplitude_0.275_rep_9_b_N_2.0_ampflank_0.425.png	 N	 b	 b	 n.a.	 4.824475e-01
7	 2	 110	 flanked	 rf	 4	 0.350000	 2.000000	 flanked_rf_freq_4_amplitude_0.35_rep_8_l_D_2.0_ampflank_0.425.png	 D	 l	 l	 n.a.	 4.396504e-01
7	 2	 111	 flanked	 rf	 4	 0.025000	 2.000000	 flanked_rf_freq_4_amplitude_0.025_rep_6_t_D_2.0_ampflank_0.425.png	 D	 t	 r	 n.a.	 3.716318e-01
7	 2	 112	 flanked	 rf	 4	 0.050000	 2.000000	 flanked_rf_freq_4_amplitude_0.05_rep_4_r_D_2.0_ampflank_0.425.png	 D	 r	 t	 n.a.	 3.634482e-01
7	 2	 113	 flanked	 rf	 4	 0.025000	 2.000000	 flanked_rf_freq_4_amplitude_0.025_rep_2_b_K_2.0_ampflank_0.425.png	 K	 b	 b	 n.a.	 3.556670e-01
7	 2	 114	 flanked	 rf	 4	 0.425000	 2.000000	 flanked_rf_freq_4_amplitude_0.425_rep_1_b_D_2.0_ampflank_0.425.png	 D	 b	 r	 n.a.	 4.457074e-01
7	 2	 115	 flanked	 rf	 4	 0.050000	 2.000000	 flanked_rf_freq_4_amplitude_0.05_rep_9_b_K_2.0_ampflank_0.425.png	 K	 b	 t	 n.a.	 3.868994e-01
7	 2	 116	 flanked	 rf	 4	 0.275000	 2.000000	 flanked_rf_freq_4_amplitude_0.275_rep_5_r_N_2.0_ampflank_0.425.png	 N	 r	 b	 n.a.	 4.064651e-01
7	 2	 117	 flanked	 rf	 4	 0.425000	 2.000000	 flanked_rf_freq_4_amplitude_0.425_rep_7_l_H_2.0_ampflank_0.425.png	 H	 l	 l	 n.a.	 3.795609e-01
7	 2	 118	 flanked	 rf	 4	 0.025000	 2.000000	 flanked_rf_freq_4_amplitude_0.025_rep_7_l_D_2.0_ampflank_0.425.png	 D	 l	 r	 n.a.	 7.333178e-01
7	 2	 119	 flanked	 rf	 4	 0.425000	 2.000000	 flanked_rf_freq_4_amplitude_0.425_rep_5_r_D_2.0_ampflank_0.425.png	 D	 r	 r	 n.a.	 4.142226e-01
7	 2	 120	 flanked	 rf	 4	 0.025000	 2.000000	 flanked_rf_freq_4_amplitude_0.025_rep_3_r_H_2.0_ampflank_0.425.png	 H	 r	 t	 n.a.	 5.056059e-01
7	 2	 121	 flanked	 rf	 4	 0.425000	 2.000000	 flanked_rf_freq_4_amplitude_0.425_rep_9_r_K_2.0_ampflank_0.425.png	 K	 r	 r	 n.a.	 4.423069e-01
7	 2	 122	 flanked	 rf	 4	 0.025000	 2.000000	 flanked_rf_freq_4_amplitude_0.025_rep_4_l_K_2.0_ampflank_0.425.png	 K	 l	 r	 n.a.	 5.394696e-01
7	 2	 123	 flanked	 rf	 4	 0.125000	 2.000000	 flanked_rf_freq_4_amplitude_0.125_rep_5_l_H_2.0_ampflank_0.425.png	 H	 l	 l	 n.a.	 6.815529e-01
7	 2	 124	 flanked	 rf	 4	 0.350000	 2.000000	 flanked_rf_freq_4_amplitude_0.35_rep_4_b_N_2.0_ampflank_0.425.png	 N	 b	 t	 n.a.	 6.544284e-01
7	 2	 125	 flanked	 rf	 4	 0.125000	 2.000000	 flanked_rf_freq_4_amplitude_0.125_rep_1_l_H_2.0_ampflank_0.425.png	 H	 l	 t	 n.a.	 8.956491e-01
7	 2	 126	 flanked	 rf	 4	 0.200000	 2.000000	 flanked_rf_freq_4_amplitude_0.2_rep_5_l_K_2.0_ampflank_0.425.png	 K	 l	 l	 n.a.	 7.342897e-01
7	 2	 127	 flanked	 rf	 4	 0.200000	 2.000000	 flanked_rf_freq_4_amplitude_0.2_rep_6_b_K_2.0_ampflank_0.425.png	 K	 b	 b	 n.a.	 4.531964e-01
7	 2	 128	 flanked	 rf	 4	 0.425000	 2.000000	 flanked_rf_freq_4_amplitude_0.425_rep_4_b_D_2.0_ampflank_0.425.png	 D	 b	 t	 n.a.	 6.722062e-01
7	 2	 129	 flanked	 rf	 4	 0.275000	 2.000000	 flanked_rf_freq_4_amplitude_0.275_rep_6_b_N_2.0_ampflank_0.425.png	 N	 b	 r	 n.a.	 5.755661e-01
7	 2	 130	 flanked	 rf	 4	 0.425000	 2.000000	 flanked_rf_freq_4_amplitude_0.425_rep_5_r_D_2.0_ampflank_0.425.png	 D	 r	 r	 n.a.	 4.724510e-01
7	 2	 131	 flanked	 rf	 4	 0.425000	 2.000000	 flanked_rf_freq_4_amplitude_0.425_rep_2_b_K_2.0_ampflank_0.425.png	 K	 b	 b	 n.a.	 4.262344e-01
7	 2	 132	 flanked	 rf	 4	 0.025000	 2.000000	 flanked_rf_freq_4_amplitude_0.025_rep_2_b_K_2.0_ampflank_0.425.png	 K	 b	 l	 n.a.	 5.180817e-01
7	 2	 133	 flanked	 rf	 4	 0.275000	 2.000000	 flanked_rf_freq_4_amplitude_0.275_rep_4_l_H_2.0_ampflank_0.425.png	 H	 l	 r	 n.a.	 3.766672e-01
7	 2	 134	 flanked	 rf	 4	 0.050000	 2.000000	 flanked_rf_freq_4_amplitude_0.05_rep_7_r_H_2.0_ampflank_0.425.png	 H	 r	 b	 n.a.	 3.621368e-01
7	 2	 135	 flanked	 rf	 4	 0.425000	 2.000000	 flanked_rf_freq_4_amplitude_0.425_rep_8_b_D_2.0_ampflank_0.425.png	 D	 b	 t	 n.a.	 3.556719e-01
7	 2	 136	 flanked	 rf	 4	 0.200000	 2.000000	 flanked_rf_freq_4_amplitude_0.2_rep_2_r_H_2.0_ampflank_0.425.png	 H	 r	 r	 n.a.	 7.901595e-01
7	 2	 137	 flanked	 rf	 4	 0.275000	 2.000000	 flanked_rf_freq_4_amplitude_0.275_rep_9_b_N_2.0_ampflank_0.425.png	 N	 b	 b	 n.a.	 4.998161e-01
7	 2	 138	 flanked	 rf	 4	 0.200000	 2.000000	 flanked_rf_freq_4_amplitude_0.2_rep_9_t_H_2.0_ampflank_0.425.png	 H	 t	 t	 n.a.	 3.418560e-01
7	 2	 139	 flanked	 rf	 4	 0.050000	 2.000000	 flanked_rf_freq_4_amplitude_0.05_rep_0_l_D_2.0_ampflank_0.425.png	 D	 l	 t	 n.a.	 3.870424e-01
7	 2	 140	 flanked	 rf	 4	 0.350000	 2.000000	 flanked_rf_freq_4_amplitude_0.35_rep_3_t_H_2.0_ampflank_0.425.png	 H	 t	 t	 n.a.	 8.815687e-01
7	 2	 141	 flanked	 rf	 4	 0.350000	 2.000000	 flanked_rf_freq_4_amplitude_0.35_rep_3_t_H_2.0_ampflank_0.425.png	 H	 t	 t	 n.a.	 3.395419e-01
7	 2	 142	 flanked	 rf	 4	 0.200000	 2.000000	 flanked_rf_freq_4_amplitude_0.2_rep_1_b_D_2.0_ampflank_0.425.png	 D	 b	 l	 n.a.	 7.311405e-01
7	 2	 143	 flanked	 rf	 4	 0.200000	 2.000000	 flanked_rf_freq_4_amplitude_0.2_rep_5_l_K_2.0_ampflank_0.425.png	 K	 l	 t	 n.a.	 4.498130e-01
7	 2	 144	 flanked	 rf	 4	 0.050000	 2.000000	 flanked_rf_freq_4_amplitude_0.05_rep_6_t_K_2.0_ampflank_0.425.png	 K	 t	 t	 n.a.	 5.369335e-01
7	 2	 145	 flanked	 rf	 4	 0.425000	 2.000000	 flanked_rf_freq_4_amplitude_0.425_rep_4_b_D_2.0_ampflank_0.425.png	 D	 b	 b	 n.a.	 4.451035e-01
7	 2	 146	 flanked	 rf	 4	 0.125000	 2.000000	 flanked_rf_freq_4_amplitude_0.125_rep_1_l_H_2.0_ampflank_0.425.png	 H	 l	 l	 n.a.	 5.746961e-01
7	 2	 147	 flanked	 rf	 4	 0.200000	 2.000000	 flanked_rf_freq_4_amplitude_0.2_rep_7_r_D_2.0_ampflank_0.425.png	 D	 r	 r	 n.a.	 7.970801e-01
7	 2	 148	 flanked	 rf	 4	 0.275000	 2.000000	 flanked_rf_freq_4_amplitude_0.275_rep_0_t_K_2.0_ampflank_0.425.png	 K	 t	 b	 n.a.	 5.375270e-01
7	 2	 149	 flanked	 rf	 4	 0.275000	 2.000000	 flanked_rf_freq_4_amplitude_0.275_rep_7_l_K_2.0_ampflank_0.425.png	 K	 l	 l	 n.a.	 4.575645e-01
7	 2	 150	 flanked	 rf	 4	 0.200000	 2.000000	 flanked_rf_freq_4_amplitude_0.2_rep_9_t_H_2.0_ampflank_0.425.png	 H	 t	 t	 n.a.	 4.546225e-01
7	 2	 151	 flanked	 rf	 4	 0.200000	 2.000000	 flanked_rf_freq_4_amplitude_0.2_rep_8_t_N_2.0_ampflank_0.425.png	 N	 t	 r	 n.a.	 6.463427e-01
7	 2	 152	 flanked	 rf	 4	 0.025000	 2.000000	 flanked_rf_freq_4_amplitude_0.025_rep_4_l_K_2.0_ampflank_0.425.png	 K	 l	 t	 n.a.	 6.100307e-01
7	 2	 153	 flanked	 rf	 4	 0.350000	 2.000000	 flanked_rf_freq_4_amplitude_0.35_rep_5_b_K_2.0_ampflank_0.425.png	 K	 b	 b	 n.a.	 7.442465e-01
7	 2	 154	 flanked	 rf	 4	 0.050000	 2.000000	 flanked_rf_freq_4_amplitude_0.05_rep_1_t_N_2.0_ampflank_0.425.png	 N	 t	 b	 n.a.	 5.756196e-01
7	 2	 155	 flanked	 rf	 4	 0.125000	 2.000000	 flanked_rf_freq_4_amplitude_0.125_rep_7_r_H_2.0_ampflank_0.425.png	 H	 r	 l	 n.a.	 4.277045e-01
7	 2	 156	 flanked	 rf	 4	 0.350000	 2.000000	 flanked_rf_freq_4_amplitude_0.35_rep_1_b_D_2.0_ampflank_0.425.png	 D	 b	 b	 n.a.	 5.244690e-01
7	 2	 157	 flanked	 rf	 4	 0.425000	 2.000000	 flanked_rf_freq_4_amplitude_0.425_rep_0_t_N_2.0_ampflank_0.425.png	 N	 t	 t	 n.a.	 3.637928e-01
7	 2	 158	 flanked	 rf	 4	 0.125000	 2.000000	 flanked_rf_freq_4_amplitude_0.125_rep_1_l_H_2.0_ampflank_0.425.png	 H	 l	 r	 n.a.	 4.041198e-01
7	 2	 159	 flanked	 rf	 4	 0.425000	 2.000000	 flanked_rf_freq_4_amplitude_0.425_rep_5_r_D_2.0_ampflank_0.425.png	 D	 r	 r	 n.a.	 3.841979e-01
7	 2	 160	 flanked	 rf	 4	 0.350000	 2.000000	 flanked_rf_freq_4_amplitude_0.35_rep_0_t_K_2.0_ampflank_0.425.png	 K	 t	 t	 n.a.	 3.229252e-01
7	 2	 161	 flanked	 rf	 4	 0.425000	 2.000000	 flanked_rf_freq_4_amplitude_0.425_rep_6_t_N_2.0_ampflank_0.425.png	 N	 t	 t	 n.a.	 4.160420e-01
7	 2	 162	 flanked	 rf	 4	 0.275000	 2.000000	 flanked_rf_freq_4_amplitude_0.275_rep_3_l_H_2.0_ampflank_0.425.png	 H	 l	 t	 n.a.	 7.503079e-01
7	 2	 163	 flanked	 rf	 4	 0.275000	 2.000000	 flanked_rf_freq_4_amplitude_0.275_rep_6_b_N_2.0_ampflank_0.425.png	 N	 b	 b	 n.a.	 4.468066e-01
7	 2	 164	 flanked	 rf	 4	 0.275000	 2.000000	 flanked_rf_freq_4_amplitude_0.275_rep_9_b_N_2.0_ampflank_0.425.png	 N	 b	 b	 n.a.	 5.057437e-01
7	 2	 165	 flanked	 rf	 4	 0.275000	 2.000000	 flanked_rf_freq_4_amplitude_0.275_rep_8_l_D_2.0_ampflank_0.425.png	 D	 l	 t	 n.a.	 4.143539e-01
7	 2	 166	 flanked	 rf	 4	 0.050000	 2.000000	 flanked_rf_freq_4_amplitude_0.05_rep_2_r_D_2.0_ampflank_0.425.png	 D	 r	 l	 n.a.	 6.562871e-01
7	 2	 167	 flanked	 rf	 4	 0.125000	 2.000000	 flanked_rf_freq_4_amplitude_0.125_rep_2_l_N_2.0_ampflank_0.425.png	 N	 l	 t	 n.a.	 5.869074e-01
7	 2	 168	 flanked	 rf	 4	 0.425000	 2.000000	 flanked_rf_freq_4_amplitude_0.425_rep_0_t_N_2.0_ampflank_0.425.png	 N	 t	 t	 n.a.	 3.748689e-01
7	 2	 169	 flanked	 rf	 4	 0.425000	 2.000000	 flanked_rf_freq_4_amplitude_0.425_rep_8_b_D_2.0_ampflank_0.425.png	 D	 b	 t	 n.a.	 3.524390e-01
7	 2	 170	 flanked	 rf	 4	 0.050000	 2.000000	 flanked_rf_freq_4_amplitude_0.05_rep_7_r_H_2.0_ampflank_0.425.png	 H	 r	 b	 n.a.	 3.554301e-01
7	 2	 171	 flanked	 rf	 4	 0.275000	 2.000000	 flanked_rf_freq_4_amplitude_0.275_rep_5_r_N_2.0_ampflank_0.425.png	 N	 r	 t	 n.a.	 3.684619e-01
7	 2	 172	 flanked	 rf	 4	 0.350000	 2.000000	 flanked_rf_freq_4_amplitude_0.35_rep_7_l_D_2.0_ampflank_0.425.png	 D	 l	 r	 n.a.	 5.367450e-01
7	 2	 173	 flanked	 rf	 4	 0.200000	 2.000000	 flanked_rf_freq_4_amplitude_0.2_rep_5_l_K_2.0_ampflank_0.425.png	 K	 l	 t	 n.a.	 4.446259e-01
7	 2	 174	 flanked	 rf	 4	 0.350000	 2.000000	 flanked_rf_freq_4_amplitude_0.35_rep_2_l_D_2.0_ampflank_0.425.png	 D	 l	 l	 n.a.	 3.561761e-01
7	 2	 175	 flanked	 rf	 4	 0.200000	 2.000000	 flanked_rf_freq_4_amplitude_0.2_rep_4_r_K_2.0_ampflank_0.425.png	 K	 r	 b	 n.a.	 4.832503e-01
7	 2	 176	 flanked	 rf	 4	 0.275000	 2.000000	 flanked_rf_freq_4_amplitude_0.275_rep_3_l_H_2.0_ampflank_0.425.png	 H	 l	 t	 n.a.	 3.851181e-01
7	 2	 177	 flanked	 rf	 4	 0.050000	 2.000000	 flanked_rf_freq_4_amplitude_0.05_rep_7_r_H_2.0_ampflank_0.425.png	 H	 r	 l	 n.a.	 4.704929e-01
7	 2	 178	 flanked	 rf	 4	 0.275000	 2.000000	 flanked_rf_freq_4_amplitude_0.275_rep_5_r_N_2.0_ampflank_0.425.png	 N	 r	 r	 n.a.	 3.306738e-01
7	 2	 179	 flanked	 rf	 4	 0.025000	 2.000000	 flanked_rf_freq_4_amplitude_0.025_rep_8_t_K_2.0_ampflank_0.425.png	 K	 t	 b	 n.a.	 5.538741e-01
7	 2	 180	 flanked	 rf	 4	 0.350000	 2.000000	 flanked_rf_freq_4_amplitude_0.35_rep_9_r_N_2.0_ampflank_0.425.png	 N	 r	 r	 n.a.	 3.343903e-01
7	 2	 181	 flanked	 rf	 4	 0.425000	 2.000000	 flanked_rf_freq_4_amplitude_0.425_rep_6_t_N_2.0_ampflank_0.425.png	 N	 t	 t	 n.a.	 4.739616e-01
7	 2	 182	 flanked	 rf	 4	 0.350000	 2.000000	 flanked_rf_freq_4_amplitude_0.35_rep_7_l_D_2.0_ampflank_0.425.png	 D	 l	 t	 n.a.	 4.226244e-01
7	 2	 183	 flanked	 rf	 4	 0.200000	 2.000000	 flanked_rf_freq_4_amplitude_0.2_rep_2_r_H_2.0_ampflank_0.425.png	 H	 r	 r	 n.a.	 6.978306e-01
7	 2	 184	 flanked	 rf	 4	 0.050000	 2.000000	 flanked_rf_freq_4_amplitude_0.05_rep_5_l_H_2.0_ampflank_0.425.png	 H	 l	 b	 n.a.	 4.855697e-01
7	 2	 185	 flanked	 rf	 4	 0.275000	 2.000000	 flanked_rf_freq_4_amplitude_0.275_rep_1_l_H_2.0_ampflank_0.425.png	 H	 l	 l	 n.a.	 5.192752e-01
7	 2	 186	 flanked	 rf	 4	 0.050000	 2.000000	 flanked_rf_freq_4_amplitude_0.05_rep_5_l_H_2.0_ampflank_0.425.png	 H	 l	 l	 n.a.	 5.123999e-01
7	 2	 187	 flanked	 rf	 4	 0.125000	 2.000000	 flanked_rf_freq_4_amplitude_0.125_rep_4_b_N_2.0_ampflank_0.425.png	 N	 b	 l	 n.a.	 6.305336e-01
7	 2	 188	 flanked	 rf	 4	 0.025000	 2.000000	 flanked_rf_freq_4_amplitude_0.025_rep_3_r_H_2.0_ampflank_0.425.png	 H	 r	 t	 n.a.	 3.349018e-01
7	 2	 189	 flanked	 rf	 4	 0.025000	 2.000000	 flanked_rf_freq_4_amplitude_0.025_rep_6_t_D_2.0_ampflank_0.425.png	 D	 t	 b	 n.a.	 4.572656e-01
7	 2	 190	 flanked	 rf	 4	 0.125000	 2.000000	 flanked_rf_freq_4_amplitude_0.125_rep_8_l_N_2.0_ampflank_0.425.png	 N	 l	 r	 n.a.	 6.202901e-01
7	 2	 191	 flanked	 rf	 4	 0.425000	 2.000000	 flanked_rf_freq_4_amplitude_0.425_rep_9_r_K_2.0_ampflank_0.425.png	 K	 r	 r	 n.a.	 4.002212e-01
7	 2	 192	 flanked	 rf	 4	 0.125000	 2.000000	 flanked_rf_freq_4_amplitude_0.125_rep_3_t_D_2.0_ampflank_0.425.png	 D	 t	 r	 n.a.	 5.039440e-01
7	 2	 193	 flanked	 rf	 4	 0.350000	 2.000000	 flanked_rf_freq_4_amplitude_0.35_rep_7_l_D_2.0_ampflank_0.425.png	 D	 l	 l	 n.a.	 3.356686e-01
7	 2	 194	 flanked	 rf	 4	 0.025000	 2.000000	 flanked_rf_freq_4_amplitude_0.025_rep_5_t_N_2.0_ampflank_0.425.png	 N	 t	 b	 n.a.	 5.202036e-01
7	 2	 195	 flanked	 rf	 4	 0.200000	 2.000000	 flanked_rf_freq_4_amplitude_0.2_rep_8_t_N_2.0_ampflank_0.425.png	 N	 t	 r	 n.a.	 3.723449e-01
7	 2	 196	 flanked	 rf	 4	 0.200000	 2.000000	 flanked_rf_freq_4_amplitude_0.2_rep_6_b_K_2.0_ampflank_0.425.png	 K	 b	 l	 n.a.	 5.177173e-01
7	 2	 197	 flanked	 rf	 4	 0.275000	 2.000000	 flanked_rf_freq_4_amplitude_0.275_rep_0_t_K_2.0_ampflank_0.425.png	 K	 t	 b	 n.a.	 5.884843e-01
7	 2	 198	 flanked	 rf	 4	 0.275000	 2.000000	 flanked_rf_freq_4_amplitude_0.275_rep_1_l_H_2.0_ampflank_0.425.png	 H	 l	 r	 n.a.	 6.018384e-01
7	 2	 199	 flanked	 rf	 4	 0.125000	 2.000000	 flanked_rf_freq_4_amplitude_0.125_rep_9_l_D_2.0_ampflank_0.425.png	 D	 l	 r	 n.a.	 4.167584e-01
7	 2	 200	 flanked	 rf	 4	 0.200000	 2.000000	 flanked_rf_freq_4_amplitude_0.2_rep_0_r_H_2.0_ampflank_0.425.png	 H	 r	 t	 n.a.	 5.094295e-01
7	 2	 201	 flanked	 rf	 4	 0.025000	 2.000000	 flanked_rf_freq_4_amplitude_0.025_rep_1_l_D_2.0_ampflank_0.425.png	 D	 l	 b	 n.a.	 6.952303e-01
7	 2	 202	 flanked	 rf	 4	 0.125000	 2.000000	 flanked_rf_freq_4_amplitude_0.125_rep_0_b_N_2.0_ampflank_0.425.png	 N	 b	 t	 n.a.	 8.242057e-01
7	 2	 203	 flanked	 rf	 4	 0.125000	 2.000000	 flanked_rf_freq_4_amplitude_0.125_rep_7_r_H_2.0_ampflank_0.425.png	 H	 r	 l	 n.a.	 5.843686e-01
7	 2	 204	 flanked	 rf	 4	 0.350000	 2.000000	 flanked_rf_freq_4_amplitude_0.35_rep_9_r_N_2.0_ampflank_0.425.png	 N	 r	 r	 n.a.	 3.707216e-01
7	 2	 205	 flanked	 rf	 4	 0.125000	 2.000000	 flanked_rf_freq_4_amplitude_0.125_rep_4_b_N_2.0_ampflank_0.425.png	 N	 b	 b	 n.a.	 4.560426e-01
7	 2	 206	 flanked	 rf	 4	 0.275000	 2.000000	 flanked_rf_freq_4_amplitude_0.275_rep_8_l_D_2.0_ampflank_0.425.png	 D	 l	 t	 n.a.	 3.972225e-01
7	 2	 207	 flanked	 rf	 4	 0.125000	 2.000000	 flanked_rf_freq_4_amplitude_0.125_rep_3_t_D_2.0_ampflank_0.425.png	 D	 t	 r	 n.a.	 5.906333e-01
7	 2	 208	 flanked	 rf	 4	 0.350000	 2.000000	 flanked_rf_freq_4_amplitude_0.35_rep_0_t_K_2.0_ampflank_0.425.png	 K	 t	 t	 n.a.	 5.226193e-01
7	 2	 209	 flanked	 rf	 4	 0.425000	 2.000000	 flanked_rf_freq_4_amplitude_0.425_rep_8_b_D_2.0_ampflank_0.425.png	 D	 b	 l	 n.a.	 4.947503e-01
7	 2	 210	 flanked	 rf	 4	 0.350000	 2.000000	 flanked_rf_freq_4_amplitude_0.35_rep_4_b_N_2.0_ampflank_0.425.png	 N	 b	 b	 n.a.	 4.332866e-01
