subject	 session	 trial	 flanked	 distortion	 freq	 amplitude	 spacing	 im_name	 targ_letter	 targ_pos	 response	 eyemovement	 RT
2	 2	 1	 flanked	 bex	 4	 2.000000	 2.000000	 flanked_bex_freq_4_amplitude_2_rep_3_r_D_2.0_ampflank_6.png	 D	 r	 l	 n.a.	 5.975462e-01
2	 2	 2	 flanked	 bex	 4	 4.000000	 2.000000	 flanked_bex_freq_4_amplitude_4_rep_5_b_H_2.0_ampflank_6.png	 H	 b	 t	 n.a.	 5.062593e-01
2	 2	 3	 flanked	 bex	 4	 3.000000	 2.000000	 flanked_bex_freq_4_amplitude_3_rep_3_t_D_2.0_ampflank_6.png	 D	 t	 b	 n.a.	 2.830489e-01
2	 2	 4	 flanked	 bex	 4	 4.000000	 2.000000	 flanked_bex_freq_4_amplitude_4_rep_4_r_D_2.0_ampflank_6.png	 D	 r	 r	 n.a.	 6.321174e-01
2	 2	 5	 flanked	 bex	 4	 3.000000	 2.000000	 flanked_bex_freq_4_amplitude_3_rep_3_t_D_2.0_ampflank_6.png	 D	 t	 t	 n.a.	 3.190742e-01
2	 2	 6	 flanked	 bex	 4	 3.000000	 2.000000	 flanked_bex_freq_4_amplitude_3_rep_7_r_H_2.0_ampflank_6.png	 H	 r	 t	 n.a.	 8.662257e-01
2	 2	 7	 flanked	 bex	 4	 0.500000	 2.000000	 flanked_bex_freq_4_amplitude_0.5_rep_7_b_N_2.0_ampflank_6.png	 N	 b	 b	 n.a.	 2.309223e-01
2	 2	 8	 flanked	 bex	 4	 6.000000	 2.000000	 flanked_bex_freq_4_amplitude_6_rep_5_b_D_2.0_ampflank_6.png	 D	 b	 r	 n.a.	 3.139521e-01
2	 2	 9	 flanked	 bex	 4	 2.000000	 2.000000	 flanked_bex_freq_4_amplitude_2_rep_7_t_H_2.0_ampflank_6.png	 H	 t	 b	 n.a.	 5.604619e-01
2	 2	 10	 flanked	 bex	 4	 1.000000	 2.000000	 flanked_bex_freq_4_amplitude_1_rep_1_r_N_2.0_ampflank_6.png	 N	 r	 t	 n.a.	 2.673080e-01
2	 2	 11	 flanked	 bex	 4	 0.500000	 2.000000	 flanked_bex_freq_4_amplitude_0.5_rep_9_r_H_2.0_ampflank_6.png	 H	 r	 t	 n.a.	 3.358783e-01
2	 2	 12	 flanked	 bex	 4	 6.000000	 2.000000	 flanked_bex_freq_4_amplitude_6_rep_9_t_K_2.0_ampflank_6.png	 K	 t	 b	 n.a.	 3.060495e-01
2	 2	 13	 flanked	 bex	 4	 0.500000	 2.000000	 flanked_bex_freq_4_amplitude_0.5_rep_6_l_H_2.0_ampflank_6.png	 H	 l	 r	 n.a.	 3.568599e-01
2	 2	 14	 flanked	 bex	 4	 2.000000	 2.000000	 flanked_bex_freq_4_amplitude_2_rep_9_t_D_2.0_ampflank_6.png	 D	 t	 t	 n.a.	 3.436253e-01
2	 2	 15	 flanked	 bex	 4	 0.500000	 2.000000	 flanked_bex_freq_4_amplitude_0.5_rep_1_b_K_2.0_ampflank_6.png	 K	 b	 b	 n.a.	 6.546574e-01
2	 2	 16	 flanked	 bex	 4	 4.000000	 2.000000	 flanked_bex_freq_4_amplitude_4_rep_4_r_D_2.0_ampflank_6.png	 D	 r	 t	 n.a.	 3.867938e-01
2	 2	 17	 flanked	 bex	 4	 6.000000	 2.000000	 flanked_bex_freq_4_amplitude_6_rep_7_l_D_2.0_ampflank_6.png	 D	 l	 t	 n.a.	 5.180111e-01
2	 2	 18	 flanked	 bex	 4	 3.000000	 2.000000	 flanked_bex_freq_4_amplitude_3_rep_7_r_H_2.0_ampflank_6.png	 H	 r	 t	 n.a.	 4.583122e-01
2	 2	 19	 flanked	 bex	 4	 1.000000	 2.000000	 flanked_bex_freq_4_amplitude_1_rep_5_r_H_2.0_ampflank_6.png	 H	 r	 t	 n.a.	 4.601153e-01
2	 2	 20	 flanked	 bex	 4	 0.500000	 2.000000	 flanked_bex_freq_4_amplitude_0.5_rep_8_t_D_2.0_ampflank_6.png	 D	 t	 t	 n.a.	 5.017483e-01
2	 2	 21	 flanked	 bex	 4	 4.000000	 2.000000	 flanked_bex_freq_4_amplitude_4_rep_5_b_H_2.0_ampflank_6.png	 H	 b	 b	 n.a.	 3.773808e-01
2	 2	 22	 flanked	 bex	 4	 2.000000	 2.000000	 flanked_bex_freq_4_amplitude_2_rep_4_t_K_2.0_ampflank_6.png	 K	 t	 t	 n.a.	 4.742111e-01
2	 2	 23	 flanked	 bex	 4	 3.000000	 2.000000	 flanked_bex_freq_4_amplitude_3_rep_4_t_N_2.0_ampflank_6.png	 N	 t	 r	 n.a.	 3.865120e-01
2	 2	 24	 flanked	 bex	 4	 2.000000	 2.000000	 flanked_bex_freq_4_amplitude_2_rep_5_t_H_2.0_ampflank_6.png	 H	 t	 b	 n.a.	 4.224390e-01
2	 2	 25	 flanked	 bex	 4	 6.000000	 2.000000	 flanked_bex_freq_4_amplitude_6_rep_0_r_H_2.0_ampflank_6.png	 H	 r	 r	 n.a.	 4.117240e-01
2	 2	 26	 flanked	 bex	 4	 2.000000	 2.000000	 flanked_bex_freq_4_amplitude_2_rep_7_t_H_2.0_ampflank_6.png	 H	 t	 t	 n.a.	 4.543524e-01
2	 2	 27	 flanked	 bex	 4	 6.000000	 2.000000	 flanked_bex_freq_4_amplitude_6_rep_4_t_N_2.0_ampflank_6.png	 N	 t	 t	 n.a.	 3.879988e-01
2	 2	 28	 flanked	 bex	 4	 0.500000	 2.000000	 flanked_bex_freq_4_amplitude_0.5_rep_6_l_H_2.0_ampflank_6.png	 H	 l	 b	 n.a.	 5.891833e-01
2	 2	 29	 flanked	 bex	 4	 4.000000	 2.000000	 flanked_bex_freq_4_amplitude_4_rep_2_l_K_2.0_ampflank_6.png	 K	 l	 t	 n.a.	 4.359616e-01
2	 2	 30	 flanked	 bex	 4	 6.000000	 2.000000	 flanked_bex_freq_4_amplitude_6_rep_9_t_K_2.0_ampflank_6.png	 K	 t	 t	 n.a.	 4.396882e-01
2	 2	 31	 flanked	 bex	 4	 0.500000	 2.000000	 flanked_bex_freq_4_amplitude_0.5_rep_1_b_K_2.0_ampflank_6.png	 K	 b	 b	 n.a.	 7.022990e-01
2	 2	 32	 flanked	 bex	 4	 4.000000	 2.000000	 flanked_bex_freq_4_amplitude_4_rep_3_t_N_2.0_ampflank_6.png	 N	 t	 t	 n.a.	 7.748948e-01
2	 2	 33	 flanked	 bex	 4	 1.000000	 2.000000	 flanked_bex_freq_4_amplitude_1_rep_3_b_D_2.0_ampflank_6.png	 D	 b	 l	 n.a.	 4.708112e-01
2	 2	 34	 flanked	 bex	 4	 2.000000	 2.000000	 flanked_bex_freq_4_amplitude_2_rep_8_b_H_2.0_ampflank_6.png	 H	 b	 b	 n.a.	 3.690556e-01
2	 2	 35	 flanked	 bex	 4	 3.000000	 2.000000	 flanked_bex_freq_4_amplitude_3_rep_6_l_H_2.0_ampflank_6.png	 H	 l	 l	 n.a.	 4.069063e-01
2	 2	 36	 flanked	 bex	 4	 1.000000	 2.000000	 flanked_bex_freq_4_amplitude_1_rep_0_t_K_2.0_ampflank_6.png	 K	 t	 t	 n.a.	 4.663156e-01
2	 2	 37	 flanked	 bex	 4	 5.000000	 2.000000	 flanked_bex_freq_4_amplitude_5_rep_4_r_H_2.0_ampflank_6.png	 H	 r	 t	 n.a.	 5.417356e-01
2	 2	 38	 flanked	 bex	 4	 6.000000	 2.000000	 flanked_bex_freq_4_amplitude_6_rep_8_r_D_2.0_ampflank_6.png	 D	 r	 r	 n.a.	 3.438946e-01
2	 2	 39	 flanked	 bex	 4	 4.000000	 2.000000	 flanked_bex_freq_4_amplitude_4_rep_9_b_D_2.0_ampflank_6.png	 D	 b	 l	 n.a.	 6.448771e-01
2	 2	 40	 flanked	 bex	 4	 3.000000	 2.000000	 flanked_bex_freq_4_amplitude_3_rep_8_t_D_2.0_ampflank_6.png	 D	 t	 b	 n.a.	 2.516485e-01
2	 2	 41	 flanked	 bex	 4	 3.000000	 2.000000	 flanked_bex_freq_4_amplitude_3_rep_2_b_H_2.0_ampflank_6.png	 H	 b	 t	 n.a.	 4.189376e-01
2	 2	 42	 flanked	 bex	 4	 0.500000	 2.000000	 flanked_bex_freq_4_amplitude_0.5_rep_8_t_D_2.0_ampflank_6.png	 D	 t	 b	 n.a.	 7.465954e-01
2	 2	 43	 flanked	 bex	 4	 4.000000	 2.000000	 flanked_bex_freq_4_amplitude_4_rep_6_l_K_2.0_ampflank_6.png	 K	 l	 r	 n.a.	 4.947705e-01
2	 2	 44	 flanked	 bex	 4	 2.000000	 2.000000	 flanked_bex_freq_4_amplitude_2_rep_6_b_D_2.0_ampflank_6.png	 D	 b	 t	 n.a.	 3.796737e-01
2	 2	 45	 flanked	 bex	 4	 3.000000	 2.000000	 flanked_bex_freq_4_amplitude_3_rep_0_b_H_2.0_ampflank_6.png	 H	 b	 b	 n.a.	 6.080370e-01
2	 2	 46	 flanked	 bex	 4	 6.000000	 2.000000	 flanked_bex_freq_4_amplitude_6_rep_5_b_D_2.0_ampflank_6.png	 D	 b	 t	 n.a.	 4.186633e-01
2	 2	 47	 flanked	 bex	 4	 1.000000	 2.000000	 flanked_bex_freq_4_amplitude_1_rep_5_r_H_2.0_ampflank_6.png	 H	 r	 r	 n.a.	 3.738007e-01
2	 2	 48	 flanked	 bex	 4	 5.000000	 2.000000	 flanked_bex_freq_4_amplitude_5_rep_9_l_K_2.0_ampflank_6.png	 K	 l	 l	 n.a.	 4.526051e-01
2	 2	 49	 flanked	 bex	 4	 1.000000	 2.000000	 flanked_bex_freq_4_amplitude_1_rep_8_l_H_2.0_ampflank_6.png	 H	 l	 b	 n.a.	 3.750172e-01
2	 2	 50	 flanked	 bex	 4	 0.500000	 2.000000	 flanked_bex_freq_4_amplitude_0.5_rep_7_b_N_2.0_ampflank_6.png	 N	 b	 t	 n.a.	 3.999925e-01
2	 2	 51	 flanked	 bex	 4	 6.000000	 2.000000	 flanked_bex_freq_4_amplitude_6_rep_3_r_K_2.0_ampflank_6.png	 K	 r	 b	 n.a.	 4.287536e-01
2	 2	 52	 flanked	 bex	 4	 4.000000	 2.000000	 flanked_bex_freq_4_amplitude_4_rep_0_b_H_2.0_ampflank_6.png	 H	 b	 r	 n.a.	 8.017376e-01
2	 2	 53	 flanked	 bex	 4	 1.000000	 2.000000	 flanked_bex_freq_4_amplitude_1_rep_9_l_H_2.0_ampflank_6.png	 H	 l	 l	 n.a.	 5.147146e-01
2	 2	 54	 flanked	 bex	 4	 1.000000	 2.000000	 flanked_bex_freq_4_amplitude_1_rep_9_l_H_2.0_ampflank_6.png	 H	 l	 t	 n.a.	 3.472667e-01
2	 2	 55	 flanked	 bex	 4	 1.000000	 2.000000	 flanked_bex_freq_4_amplitude_1_rep_1_r_N_2.0_ampflank_6.png	 N	 r	 b	 n.a.	 3.054360e-01
2	 2	 56	 flanked	 bex	 4	 1.000000	 2.000000	 flanked_bex_freq_4_amplitude_1_rep_7_b_D_2.0_ampflank_6.png	 D	 b	 t	 n.a.	 4.572677e-01
2	 2	 57	 flanked	 bex	 4	 6.000000	 2.000000	 flanked_bex_freq_4_amplitude_6_rep_0_r_H_2.0_ampflank_6.png	 H	 r	 r	 n.a.	 3.287636e-01
2	 2	 58	 flanked	 bex	 4	 5.000000	 2.000000	 flanked_bex_freq_4_amplitude_5_rep_5_l_K_2.0_ampflank_6.png	 K	 l	 l	 n.a.	 3.381993e-01
2	 2	 59	 flanked	 bex	 4	 2.000000	 2.000000	 flanked_bex_freq_4_amplitude_2_rep_2_r_N_2.0_ampflank_6.png	 N	 r	 b	 n.a.	 4.818906e-01
2	 2	 60	 flanked	 bex	 4	 1.000000	 2.000000	 flanked_bex_freq_4_amplitude_1_rep_0_t_K_2.0_ampflank_6.png	 K	 t	 t	 n.a.	 4.329863e-01
2	 2	 61	 flanked	 bex	 4	 6.000000	 2.000000	 flanked_bex_freq_4_amplitude_6_rep_6_b_N_2.0_ampflank_6.png	 N	 b	 r	 n.a.	 3.703262e-01
2	 2	 62	 flanked	 bex	 4	 5.000000	 2.000000	 flanked_bex_freq_4_amplitude_5_rep_0_r_K_2.0_ampflank_6.png	 K	 r	 r	 n.a.	 3.712204e-01
2	 2	 63	 flanked	 bex	 4	 5.000000	 2.000000	 flanked_bex_freq_4_amplitude_5_rep_3_r_K_2.0_ampflank_6.png	 K	 r	 r	 n.a.	 5.133129e-01
2	 2	 64	 flanked	 bex	 4	 3.000000	 2.000000	 flanked_bex_freq_4_amplitude_3_rep_2_b_H_2.0_ampflank_6.png	 H	 b	 r	 n.a.	 7.731537e-01
2	 2	 65	 flanked	 bex	 4	 6.000000	 2.000000	 flanked_bex_freq_4_amplitude_6_rep_8_r_D_2.0_ampflank_6.png	 D	 r	 r	 n.a.	 4.381988e-01
2	 2	 66	 flanked	 bex	 4	 6.000000	 2.000000	 flanked_bex_freq_4_amplitude_6_rep_1_l_K_2.0_ampflank_6.png	 K	 l	 t	 n.a.	 5.250413e-01
2	 2	 67	 flanked	 bex	 4	 5.000000	 2.000000	 flanked_bex_freq_4_amplitude_5_rep_2_b_H_2.0_ampflank_6.png	 H	 b	 b	 n.a.	 3.442310e-01
2	 2	 68	 flanked	 bex	 4	 3.000000	 2.000000	 flanked_bex_freq_4_amplitude_3_rep_4_t_N_2.0_ampflank_6.png	 N	 t	 r	 n.a.	 5.588273e-01
2	 2	 69	 flanked	 bex	 4	 3.000000	 2.000000	 flanked_bex_freq_4_amplitude_3_rep_7_r_H_2.0_ampflank_6.png	 H	 r	 l	 n.a.	 6.408625e-01
2	 2	 70	 flanked	 bex	 4	 3.000000	 2.000000	 flanked_bex_freq_4_amplitude_3_rep_6_l_H_2.0_ampflank_6.png	 H	 l	 b	 n.a.	 1.775304e-01
2	 2	 71	 flanked	 bex	 4	 0.500000	 2.000000	 flanked_bex_freq_4_amplitude_0.5_rep_7_b_N_2.0_ampflank_6.png	 N	 b	 l	 n.a.	 4.045365e-01
2	 2	 72	 flanked	 bex	 4	 5.000000	 2.000000	 flanked_bex_freq_4_amplitude_5_rep_7_l_H_2.0_ampflank_6.png	 H	 l	 t	 n.a.	 4.338367e-01
2	 2	 73	 flanked	 bex	 4	 3.000000	 2.000000	 flanked_bex_freq_4_amplitude_3_rep_0_b_H_2.0_ampflank_6.png	 H	 b	 b	 n.a.	 6.410037e-01
2	 2	 74	 flanked	 bex	 4	 6.000000	 2.000000	 flanked_bex_freq_4_amplitude_6_rep_0_r_H_2.0_ampflank_6.png	 H	 r	 r	 n.a.	 2.853638e-01
2	 2	 75	 flanked	 bex	 4	 5.000000	 2.000000	 flanked_bex_freq_4_amplitude_5_rep_3_r_K_2.0_ampflank_6.png	 K	 r	 b	 n.a.	 4.822358e-01
2	 2	 76	 flanked	 bex	 4	 1.000000	 2.000000	 flanked_bex_freq_4_amplitude_1_rep_3_b_D_2.0_ampflank_6.png	 D	 b	 t	 n.a.	 4.125596e-01
2	 2	 77	 flanked	 bex	 4	 3.000000	 2.000000	 flanked_bex_freq_4_amplitude_3_rep_5_t_H_2.0_ampflank_6.png	 H	 t	 l	 n.a.	 3.162138e-01
2	 2	 78	 flanked	 bex	 4	 5.000000	 2.000000	 flanked_bex_freq_4_amplitude_5_rep_8_r_D_2.0_ampflank_6.png	 D	 r	 b	 n.a.	 2.515704e-01
2	 2	 79	 flanked	 bex	 4	 2.000000	 2.000000	 flanked_bex_freq_4_amplitude_2_rep_3_r_D_2.0_ampflank_6.png	 D	 r	 t	 n.a.	 4.333137e-01
2	 2	 80	 flanked	 bex	 4	 0.500000	 2.000000	 flanked_bex_freq_4_amplitude_0.5_rep_0_b_K_2.0_ampflank_6.png	 K	 b	 l	 n.a.	 5.505270e-01
2	 2	 81	 flanked	 bex	 4	 6.000000	 2.000000	 flanked_bex_freq_4_amplitude_6_rep_2_t_D_2.0_ampflank_6.png	 D	 t	 t	 n.a.	 6.106352e-01
2	 2	 82	 flanked	 bex	 4	 0.500000	 2.000000	 flanked_bex_freq_4_amplitude_0.5_rep_4_l_N_2.0_ampflank_6.png	 N	 l	 t	 n.a.	 3.849667e-01
2	 2	 83	 flanked	 bex	 4	 1.000000	 2.000000	 flanked_bex_freq_4_amplitude_1_rep_2_l_K_2.0_ampflank_6.png	 K	 l	 b	 n.a.	 4.281646e-01
2	 2	 84	 flanked	 bex	 4	 2.000000	 2.000000	 flanked_bex_freq_4_amplitude_2_rep_0_r_D_2.0_ampflank_6.png	 D	 r	 r	 n.a.	 5.238112e-01
2	 2	 85	 flanked	 bex	 4	 2.000000	 2.000000	 flanked_bex_freq_4_amplitude_2_rep_1_b_D_2.0_ampflank_6.png	 D	 b	 t	 n.a.	 4.247155e-01
2	 2	 86	 flanked	 bex	 4	 1.000000	 2.000000	 flanked_bex_freq_4_amplitude_1_rep_8_l_H_2.0_ampflank_6.png	 H	 l	 b	 n.a.	 2.937624e-01
2	 2	 87	 flanked	 bex	 4	 4.000000	 2.000000	 flanked_bex_freq_4_amplitude_4_rep_7_l_K_2.0_ampflank_6.png	 K	 l	 t	 n.a.	 3.640421e-01
2	 2	 88	 flanked	 bex	 4	 3.000000	 2.000000	 flanked_bex_freq_4_amplitude_3_rep_9_t_D_2.0_ampflank_6.png	 D	 t	 b	 n.a.	 4.698765e-01
2	 2	 89	 flanked	 bex	 4	 3.000000	 2.000000	 flanked_bex_freq_4_amplitude_3_rep_1_b_D_2.0_ampflank_6.png	 D	 b	 t	 n.a.	 3.908593e-01
2	 2	 90	 flanked	 bex	 4	 3.000000	 2.000000	 flanked_bex_freq_4_amplitude_3_rep_5_t_H_2.0_ampflank_6.png	 H	 t	 b	 n.a.	 5.257165e-01
2	 2	 91	 flanked	 bex	 4	 0.500000	 2.000000	 flanked_bex_freq_4_amplitude_0.5_rep_9_r_H_2.0_ampflank_6.png	 H	 r	 t	 n.a.	 3.760977e-01
2	 2	 92	 flanked	 bex	 4	 1.000000	 2.000000	 flanked_bex_freq_4_amplitude_1_rep_0_t_K_2.0_ampflank_6.png	 K	 t	 r	 n.a.	 2.331520e-01
2	 2	 93	 flanked	 bex	 4	 4.000000	 2.000000	 flanked_bex_freq_4_amplitude_4_rep_9_b_D_2.0_ampflank_6.png	 D	 b	 b	 n.a.	 3.935019e-01
2	 2	 94	 flanked	 bex	 4	 5.000000	 2.000000	 flanked_bex_freq_4_amplitude_5_rep_5_l_K_2.0_ampflank_6.png	 K	 l	 t	 n.a.	 5.091414e-01
2	 2	 95	 flanked	 bex	 4	 1.000000	 2.000000	 flanked_bex_freq_4_amplitude_1_rep_6_r_N_2.0_ampflank_6.png	 N	 r	 b	 n.a.	 4.431348e-01
2	 2	 96	 flanked	 bex	 4	 3.000000	 2.000000	 flanked_bex_freq_4_amplitude_3_rep_3_t_D_2.0_ampflank_6.png	 D	 t	 t	 n.a.	 6.734189e-01
2	 2	 97	 flanked	 bex	 4	 5.000000	 2.000000	 flanked_bex_freq_4_amplitude_5_rep_8_r_D_2.0_ampflank_6.png	 D	 r	 r	 n.a.	 4.086137e-01
2	 2	 98	 flanked	 bex	 4	 1.000000	 2.000000	 flanked_bex_freq_4_amplitude_1_rep_9_l_H_2.0_ampflank_6.png	 H	 l	 b	 n.a.	 4.085915e-01
2	 2	 99	 flanked	 bex	 4	 3.000000	 2.000000	 flanked_bex_freq_4_amplitude_3_rep_5_t_H_2.0_ampflank_6.png	 H	 t	 l	 n.a.	 3.893593e-01
2	 2	 100	 flanked	 bex	 4	 0.500000	 2.000000	 flanked_bex_freq_4_amplitude_0.5_rep_3_b_K_2.0_ampflank_6.png	 K	 b	 t	 n.a.	 4.619387e-01
2	 2	 101	 flanked	 bex	 4	 4.000000	 2.000000	 flanked_bex_freq_4_amplitude_4_rep_7_l_K_2.0_ampflank_6.png	 K	 l	 l	 n.a.	 6.992756e-01
2	 2	 102	 flanked	 bex	 4	 0.500000	 2.000000	 flanked_bex_freq_4_amplitude_0.5_rep_1_b_K_2.0_ampflank_6.png	 K	 b	 t	 n.a.	 4.757143e-01
2	 2	 103	 flanked	 bex	 4	 0.500000	 2.000000	 flanked_bex_freq_4_amplitude_0.5_rep_4_l_N_2.0_ampflank_6.png	 N	 l	 b	 n.a.	 3.303783e-01
2	 2	 104	 flanked	 bex	 4	 3.000000	 2.000000	 flanked_bex_freq_4_amplitude_3_rep_9_t_D_2.0_ampflank_6.png	 D	 t	 t	 n.a.	 4.409269e-01
2	 2	 105	 flanked	 bex	 4	 2.000000	 2.000000	 flanked_bex_freq_4_amplitude_2_rep_5_t_H_2.0_ampflank_6.png	 H	 t	 t	 n.a.	 4.919396e-01
2	 2	 106	 flanked	 bex	 4	 2.000000	 2.000000	 flanked_bex_freq_4_amplitude_2_rep_6_b_D_2.0_ampflank_6.png	 D	 b	 l	 n.a.	 5.777857e-01
2	 2	 107	 flanked	 bex	 4	 4.000000	 2.000000	 flanked_bex_freq_4_amplitude_4_rep_3_t_N_2.0_ampflank_6.png	 N	 t	 b	 n.a.	 2.840769e-01
2	 2	 108	 flanked	 bex	 4	 4.000000	 2.000000	 flanked_bex_freq_4_amplitude_4_rep_3_t_N_2.0_ampflank_6.png	 N	 t	 t	 n.a.	 4.511432e-01
2	 2	 109	 flanked	 bex	 4	 3.000000	 2.000000	 flanked_bex_freq_4_amplitude_3_rep_8_t_D_2.0_ampflank_6.png	 D	 t	 t	 n.a.	 4.676124e-01
2	 2	 110	 flanked	 bex	 4	 4.000000	 2.000000	 flanked_bex_freq_4_amplitude_4_rep_7_l_K_2.0_ampflank_6.png	 K	 l	 l	 n.a.	 4.702057e-01
2	 2	 111	 flanked	 bex	 4	 0.500000	 2.000000	 flanked_bex_freq_4_amplitude_0.5_rep_0_b_K_2.0_ampflank_6.png	 K	 b	 b	 n.a.	 3.422680e-01
2	 2	 112	 flanked	 bex	 4	 4.000000	 2.000000	 flanked_bex_freq_4_amplitude_4_rep_1_l_N_2.0_ampflank_6.png	 N	 l	 l	 n.a.	 4.255011e-01
2	 2	 113	 flanked	 bex	 4	 2.000000	 2.000000	 flanked_bex_freq_4_amplitude_2_rep_1_b_D_2.0_ampflank_6.png	 D	 b	 t	 n.a.	 5.257121e-01
2	 2	 114	 flanked	 bex	 4	 6.000000	 2.000000	 flanked_bex_freq_4_amplitude_6_rep_1_l_K_2.0_ampflank_6.png	 K	 l	 r	 n.a.	 6.984766e-01
2	 2	 115	 flanked	 bex	 4	 1.000000	 2.000000	 flanked_bex_freq_4_amplitude_1_rep_5_r_H_2.0_ampflank_6.png	 H	 r	 b	 n.a.	 3.150340e-01
2	 2	 116	 flanked	 bex	 4	 2.000000	 2.000000	 flanked_bex_freq_4_amplitude_2_rep_7_t_H_2.0_ampflank_6.png	 H	 t	 t	 n.a.	 6.215011e-01
2	 2	 117	 flanked	 bex	 4	 6.000000	 2.000000	 flanked_bex_freq_4_amplitude_6_rep_3_r_K_2.0_ampflank_6.png	 K	 r	 r	 n.a.	 7.323608e-01
2	 2	 118	 flanked	 bex	 4	 4.000000	 2.000000	 flanked_bex_freq_4_amplitude_4_rep_1_l_N_2.0_ampflank_6.png	 N	 l	 l	 n.a.	 6.111420e-01
2	 2	 119	 flanked	 bex	 4	 0.500000	 2.000000	 flanked_bex_freq_4_amplitude_0.5_rep_2_b_N_2.0_ampflank_6.png	 N	 b	 t	 n.a.	 5.171733e-01
2	 2	 120	 flanked	 bex	 4	 0.500000	 2.000000	 flanked_bex_freq_4_amplitude_0.5_rep_5_r_D_2.0_ampflank_6.png	 D	 r	 l	 n.a.	 5.841516e-01
2	 2	 121	 flanked	 bex	 4	 3.000000	 2.000000	 flanked_bex_freq_4_amplitude_3_rep_2_b_H_2.0_ampflank_6.png	 H	 b	 b	 n.a.	 6.724695e-01
2	 2	 122	 flanked	 bex	 4	 5.000000	 2.000000	 flanked_bex_freq_4_amplitude_5_rep_1_t_D_2.0_ampflank_6.png	 D	 t	 t	 n.a.	 4.077238e-01
2	 2	 123	 flanked	 bex	 4	 1.000000	 2.000000	 flanked_bex_freq_4_amplitude_1_rep_7_b_D_2.0_ampflank_6.png	 D	 b	 b	 n.a.	 5.908972e-01
2	 2	 124	 flanked	 bex	 4	 1.000000	 2.000000	 flanked_bex_freq_4_amplitude_1_rep_2_l_K_2.0_ampflank_6.png	 K	 l	 b	 n.a.	 6.436803e-01
2	 2	 125	 flanked	 bex	 4	 6.000000	 2.000000	 flanked_bex_freq_4_amplitude_6_rep_5_b_D_2.0_ampflank_6.png	 D	 b	 r	 n.a.	 5.586402e-01
2	 2	 126	 flanked	 bex	 4	 6.000000	 2.000000	 flanked_bex_freq_4_amplitude_6_rep_3_r_K_2.0_ampflank_6.png	 K	 r	 t	 n.a.	 7.988571e-01
2	 2	 127	 flanked	 bex	 4	 2.000000	 2.000000	 flanked_bex_freq_4_amplitude_2_rep_4_t_K_2.0_ampflank_6.png	 K	 t	 t	 n.a.	 4.389681e-01
2	 2	 128	 flanked	 bex	 4	 2.000000	 2.000000	 flanked_bex_freq_4_amplitude_2_rep_2_r_N_2.0_ampflank_6.png	 N	 r	 b	 n.a.	 6.148712e-01
2	 2	 129	 flanked	 bex	 4	 2.000000	 2.000000	 flanked_bex_freq_4_amplitude_2_rep_4_t_K_2.0_ampflank_6.png	 K	 t	 t	 n.a.	 4.595218e-01
2	 2	 130	 flanked	 bex	 4	 0.500000	 2.000000	 flanked_bex_freq_4_amplitude_0.5_rep_5_r_D_2.0_ampflank_6.png	 D	 r	 b	 n.a.	 9.519153e-01
2	 2	 131	 flanked	 bex	 4	 2.000000	 2.000000	 flanked_bex_freq_4_amplitude_2_rep_1_b_D_2.0_ampflank_6.png	 D	 b	 t	 n.a.	 5.826641e-01
2	 2	 132	 flanked	 bex	 4	 5.000000	 2.000000	 flanked_bex_freq_4_amplitude_5_rep_5_l_K_2.0_ampflank_6.png	 K	 l	 l	 n.a.	 4.826436e-01
2	 2	 133	 flanked	 bex	 4	 5.000000	 2.000000	 flanked_bex_freq_4_amplitude_5_rep_0_r_K_2.0_ampflank_6.png	 K	 r	 r	 n.a.	 3.801491e-01
2	 2	 134	 flanked	 bex	 4	 2.000000	 2.000000	 flanked_bex_freq_4_amplitude_2_rep_2_r_N_2.0_ampflank_6.png	 N	 r	 b	 n.a.	 5.192484e-01
2	 2	 135	 flanked	 bex	 4	 1.000000	 2.000000	 flanked_bex_freq_4_amplitude_1_rep_1_r_N_2.0_ampflank_6.png	 N	 r	 b	 n.a.	 6.784413e-01
2	 2	 136	 flanked	 bex	 4	 6.000000	 2.000000	 flanked_bex_freq_4_amplitude_6_rep_2_t_D_2.0_ampflank_6.png	 D	 t	 t	 n.a.	 4.742531e-01
2	 2	 137	 flanked	 bex	 4	 4.000000	 2.000000	 flanked_bex_freq_4_amplitude_4_rep_6_l_K_2.0_ampflank_6.png	 K	 l	 l	 n.a.	 5.350241e-01
2	 2	 138	 flanked	 bex	 4	 6.000000	 2.000000	 flanked_bex_freq_4_amplitude_6_rep_9_t_K_2.0_ampflank_6.png	 K	 t	 b	 n.a.	 6.317609e-01
2	 2	 139	 flanked	 bex	 4	 0.500000	 2.000000	 flanked_bex_freq_4_amplitude_0.5_rep_5_r_D_2.0_ampflank_6.png	 D	 r	 t	 n.a.	 8.329427e-01
2	 2	 140	 flanked	 bex	 4	 2.000000	 2.000000	 flanked_bex_freq_4_amplitude_2_rep_8_b_H_2.0_ampflank_6.png	 H	 b	 b	 n.a.	 6.722068e-01
2	 2	 141	 flanked	 bex	 4	 4.000000	 2.000000	 flanked_bex_freq_4_amplitude_4_rep_8_b_D_2.0_ampflank_6.png	 D	 b	 b	 n.a.	 4.789370e-01
2	 2	 142	 flanked	 bex	 4	 3.000000	 2.000000	 flanked_bex_freq_4_amplitude_3_rep_0_b_H_2.0_ampflank_6.png	 H	 b	 l	 n.a.	 6.088604e-01
2	 2	 143	 flanked	 bex	 4	 3.000000	 2.000000	 flanked_bex_freq_4_amplitude_3_rep_8_t_D_2.0_ampflank_6.png	 D	 t	 t	 n.a.	 4.659753e-01
2	 2	 144	 flanked	 bex	 4	 5.000000	 2.000000	 flanked_bex_freq_4_amplitude_5_rep_1_t_D_2.0_ampflank_6.png	 D	 t	 l	 n.a.	 5.685303e-01
2	 2	 145	 flanked	 bex	 4	 5.000000	 2.000000	 flanked_bex_freq_4_amplitude_5_rep_6_l_N_2.0_ampflank_6.png	 N	 l	 b	 n.a.	 3.423047e-01
2	 2	 146	 flanked	 bex	 4	 2.000000	 2.000000	 flanked_bex_freq_4_amplitude_2_rep_6_b_D_2.0_ampflank_6.png	 D	 b	 t	 n.a.	 3.232230e-01
2	 2	 147	 flanked	 bex	 4	 5.000000	 2.000000	 flanked_bex_freq_4_amplitude_5_rep_4_r_H_2.0_ampflank_6.png	 H	 r	 r	 n.a.	 6.304661e-01
2	 2	 148	 flanked	 bex	 4	 2.000000	 2.000000	 flanked_bex_freq_4_amplitude_2_rep_9_t_D_2.0_ampflank_6.png	 D	 t	 t	 n.a.	 3.947986e-01
2	 2	 149	 flanked	 bex	 4	 0.500000	 2.000000	 flanked_bex_freq_4_amplitude_0.5_rep_4_l_N_2.0_ampflank_6.png	 N	 l	 t	 n.a.	 4.132994e-01
2	 2	 150	 flanked	 bex	 4	 5.000000	 2.000000	 flanked_bex_freq_4_amplitude_5_rep_9_l_K_2.0_ampflank_6.png	 K	 l	 l	 n.a.	 2.865705e-01
2	 2	 151	 flanked	 bex	 4	 1.000000	 2.000000	 flanked_bex_freq_4_amplitude_1_rep_6_r_N_2.0_ampflank_6.png	 N	 r	 b	 n.a.	 3.160150e-01
2	 2	 152	 flanked	 bex	 4	 4.000000	 2.000000	 flanked_bex_freq_4_amplitude_4_rep_1_l_N_2.0_ampflank_6.png	 N	 l	 l	 n.a.	 3.636706e-01
2	 2	 153	 flanked	 bex	 4	 3.000000	 2.000000	 flanked_bex_freq_4_amplitude_3_rep_1_b_D_2.0_ampflank_6.png	 D	 b	 t	 n.a.	 3.572411e-01
2	 2	 154	 flanked	 bex	 4	 5.000000	 2.000000	 flanked_bex_freq_4_amplitude_5_rep_7_l_H_2.0_ampflank_6.png	 H	 l	 l	 n.a.	 3.612927e-01
2	 2	 155	 flanked	 bex	 4	 2.000000	 2.000000	 flanked_bex_freq_4_amplitude_2_rep_0_r_D_2.0_ampflank_6.png	 D	 r	 l	 n.a.	 4.468693e-01
2	 2	 156	 flanked	 bex	 4	 6.000000	 2.000000	 flanked_bex_freq_4_amplitude_6_rep_6_b_N_2.0_ampflank_6.png	 N	 b	 t	 n.a.	 4.314514e-01
2	 2	 157	 flanked	 bex	 4	 4.000000	 2.000000	 flanked_bex_freq_4_amplitude_4_rep_2_l_K_2.0_ampflank_6.png	 K	 l	 b	 n.a.	 3.246323e-01
2	 2	 158	 flanked	 bex	 4	 4.000000	 2.000000	 flanked_bex_freq_4_amplitude_4_rep_8_b_D_2.0_ampflank_6.png	 D	 b	 b	 n.a.	 3.082670e-01
2	 2	 159	 flanked	 bex	 4	 5.000000	 2.000000	 flanked_bex_freq_4_amplitude_5_rep_6_l_N_2.0_ampflank_6.png	 N	 l	 l	 n.a.	 4.996760e-01
2	 2	 160	 flanked	 bex	 4	 5.000000	 2.000000	 flanked_bex_freq_4_amplitude_5_rep_4_r_H_2.0_ampflank_6.png	 H	 r	 t	 n.a.	 5.337407e-01
2	 2	 161	 flanked	 bex	 4	 5.000000	 2.000000	 flanked_bex_freq_4_amplitude_5_rep_9_l_K_2.0_ampflank_6.png	 K	 l	 l	 n.a.	 4.134776e-01
2	 2	 162	 flanked	 bex	 4	 6.000000	 2.000000	 flanked_bex_freq_4_amplitude_6_rep_7_l_D_2.0_ampflank_6.png	 D	 l	 l	 n.a.	 3.584696e-01
2	 2	 163	 flanked	 bex	 4	 3.000000	 2.000000	 flanked_bex_freq_4_amplitude_3_rep_6_l_H_2.0_ampflank_6.png	 H	 l	 l	 n.a.	 3.578624e-01
2	 2	 164	 flanked	 bex	 4	 1.000000	 2.000000	 flanked_bex_freq_4_amplitude_1_rep_8_l_H_2.0_ampflank_6.png	 H	 l	 t	 n.a.	 4.740950e-01
2	 2	 165	 flanked	 bex	 4	 0.500000	 2.000000	 flanked_bex_freq_4_amplitude_0.5_rep_2_b_N_2.0_ampflank_6.png	 N	 b	 l	 n.a.	 4.903143e-01
2	 2	 166	 flanked	 bex	 4	 5.000000	 2.000000	 flanked_bex_freq_4_amplitude_5_rep_0_r_K_2.0_ampflank_6.png	 K	 r	 b	 n.a.	 4.812843e-01
2	 2	 167	 flanked	 bex	 4	 4.000000	 2.000000	 flanked_bex_freq_4_amplitude_4_rep_0_b_H_2.0_ampflank_6.png	 H	 b	 t	 n.a.	 8.970821e-01
2	 2	 168	 flanked	 bex	 4	 6.000000	 2.000000	 flanked_bex_freq_4_amplitude_6_rep_2_t_D_2.0_ampflank_6.png	 D	 t	 t	 n.a.	 4.497378e-01
2	 2	 169	 flanked	 bex	 4	 5.000000	 2.000000	 flanked_bex_freq_4_amplitude_5_rep_8_r_D_2.0_ampflank_6.png	 D	 r	 b	 n.a.	 3.389003e-01
2	 2	 170	 flanked	 bex	 4	 2.000000	 2.000000	 flanked_bex_freq_4_amplitude_2_rep_5_t_H_2.0_ampflank_6.png	 H	 t	 t	 n.a.	 5.026925e-01
2	 2	 171	 flanked	 bex	 4	 5.000000	 2.000000	 flanked_bex_freq_4_amplitude_5_rep_2_b_H_2.0_ampflank_6.png	 H	 b	 b	 n.a.	 5.387488e-01
2	 2	 172	 flanked	 bex	 4	 1.000000	 2.000000	 flanked_bex_freq_4_amplitude_1_rep_2_l_K_2.0_ampflank_6.png	 K	 l	 l	 n.a.	 5.179123e-01
2	 2	 173	 flanked	 bex	 4	 3.000000	 2.000000	 flanked_bex_freq_4_amplitude_3_rep_1_b_D_2.0_ampflank_6.png	 D	 b	 t	 n.a.	 4.190224e-01
2	 2	 174	 flanked	 bex	 4	 3.000000	 2.000000	 flanked_bex_freq_4_amplitude_3_rep_4_t_N_2.0_ampflank_6.png	 N	 t	 t	 n.a.	 7.027053e-01
2	 2	 175	 flanked	 bex	 4	 1.000000	 2.000000	 flanked_bex_freq_4_amplitude_1_rep_4_r_H_2.0_ampflank_6.png	 H	 r	 l	 n.a.	 6.205251e-01
2	 2	 176	 flanked	 bex	 4	 4.000000	 2.000000	 flanked_bex_freq_4_amplitude_4_rep_2_l_K_2.0_ampflank_6.png	 K	 l	 b	 n.a.	 4.166377e-01
2	 2	 177	 flanked	 bex	 4	 4.000000	 2.000000	 flanked_bex_freq_4_amplitude_4_rep_0_b_H_2.0_ampflank_6.png	 H	 b	 t	 n.a.	 4.367603e-01
2	 2	 178	 flanked	 bex	 4	 2.000000	 2.000000	 flanked_bex_freq_4_amplitude_2_rep_8_b_H_2.0_ampflank_6.png	 H	 b	 l	 n.a.	 5.653463e-01
2	 2	 179	 flanked	 bex	 4	 1.000000	 2.000000	 flanked_bex_freq_4_amplitude_1_rep_3_b_D_2.0_ampflank_6.png	 D	 b	 b	 n.a.	 4.740818e-01
2	 2	 180	 flanked	 bex	 4	 5.000000	 2.000000	 flanked_bex_freq_4_amplitude_5_rep_2_b_H_2.0_ampflank_6.png	 H	 b	 b	 n.a.	 1.026001e+00
2	 2	 181	 flanked	 bex	 4	 4.000000	 2.000000	 flanked_bex_freq_4_amplitude_4_rep_9_b_D_2.0_ampflank_6.png	 D	 b	 r	 n.a.	 4.626888e-01
2	 2	 182	 flanked	 bex	 4	 0.500000	 2.000000	 flanked_bex_freq_4_amplitude_0.5_rep_6_l_H_2.0_ampflank_6.png	 H	 l	 l	 n.a.	 3.559768e-01
2	 2	 183	 flanked	 bex	 4	 0.500000	 2.000000	 flanked_bex_freq_4_amplitude_0.5_rep_3_b_K_2.0_ampflank_6.png	 K	 b	 t	 n.a.	 7.279260e-01
2	 2	 184	 flanked	 bex	 4	 6.000000	 2.000000	 flanked_bex_freq_4_amplitude_6_rep_8_r_D_2.0_ampflank_6.png	 D	 r	 r	 n.a.	 4.991361e-01
2	 2	 185	 flanked	 bex	 4	 1.000000	 2.000000	 flanked_bex_freq_4_amplitude_1_rep_7_b_D_2.0_ampflank_6.png	 D	 b	 r	 n.a.	 7.644948e-01
2	 2	 186	 flanked	 bex	 4	 0.500000	 2.000000	 flanked_bex_freq_4_amplitude_0.5_rep_2_b_N_2.0_ampflank_6.png	 N	 b	 l	 n.a.	 4.190422e-01
2	 2	 187	 flanked	 bex	 4	 3.000000	 2.000000	 flanked_bex_freq_4_amplitude_3_rep_9_t_D_2.0_ampflank_6.png	 D	 t	 t	 n.a.	 6.238261e-01
2	 2	 188	 flanked	 bex	 4	 5.000000	 2.000000	 flanked_bex_freq_4_amplitude_5_rep_7_l_H_2.0_ampflank_6.png	 H	 l	 b	 n.a.	 5.705677e-01
2	 2	 189	 flanked	 bex	 4	 1.000000	 2.000000	 flanked_bex_freq_4_amplitude_1_rep_6_r_N_2.0_ampflank_6.png	 N	 r	 t	 n.a.	 7.433996e-01
2	 2	 190	 flanked	 bex	 4	 5.000000	 2.000000	 flanked_bex_freq_4_amplitude_5_rep_6_l_N_2.0_ampflank_6.png	 N	 l	 l	 n.a.	 5.791251e-01
2	 2	 191	 flanked	 bex	 4	 4.000000	 2.000000	 flanked_bex_freq_4_amplitude_4_rep_8_b_D_2.0_ampflank_6.png	 D	 b	 b	 n.a.	 3.232644e-01
2	 2	 192	 flanked	 bex	 4	 6.000000	 2.000000	 flanked_bex_freq_4_amplitude_6_rep_7_l_D_2.0_ampflank_6.png	 D	 l	 b	 n.a.	 7.514696e-01
2	 2	 193	 flanked	 bex	 4	 6.000000	 2.000000	 flanked_bex_freq_4_amplitude_6_rep_6_b_N_2.0_ampflank_6.png	 N	 b	 r	 n.a.	 5.803772e-01
2	 2	 194	 flanked	 bex	 4	 4.000000	 2.000000	 flanked_bex_freq_4_amplitude_4_rep_4_r_D_2.0_ampflank_6.png	 D	 r	 b	 n.a.	 4.632730e-01
2	 2	 195	 flanked	 bex	 4	 2.000000	 2.000000	 flanked_bex_freq_4_amplitude_2_rep_0_r_D_2.0_ampflank_6.png	 D	 r	 l	 n.a.	 3.080101e-01
2	 2	 196	 flanked	 bex	 4	 0.500000	 2.000000	 flanked_bex_freq_4_amplitude_0.5_rep_9_r_H_2.0_ampflank_6.png	 H	 r	 t	 n.a.	 5.902478e-01
2	 2	 197	 flanked	 bex	 4	 4.000000	 2.000000	 flanked_bex_freq_4_amplitude_4_rep_6_l_K_2.0_ampflank_6.png	 K	 l	 t	 n.a.	 4.516171e-01
2	 2	 198	 flanked	 bex	 4	 5.000000	 2.000000	 flanked_bex_freq_4_amplitude_5_rep_3_r_K_2.0_ampflank_6.png	 K	 r	 r	 n.a.	 4.878367e-01
2	 2	 199	 flanked	 bex	 4	 6.000000	 2.000000	 flanked_bex_freq_4_amplitude_6_rep_1_l_K_2.0_ampflank_6.png	 K	 l	 l	 n.a.	 3.955580e-01
2	 2	 200	 flanked	 bex	 4	 6.000000	 2.000000	 flanked_bex_freq_4_amplitude_6_rep_4_t_N_2.0_ampflank_6.png	 N	 t	 t	 n.a.	 4.487356e-01
2	 2	 201	 flanked	 bex	 4	 0.500000	 2.000000	 flanked_bex_freq_4_amplitude_0.5_rep_0_b_K_2.0_ampflank_6.png	 K	 b	 b	 n.a.	 3.884508e-01
2	 2	 202	 flanked	 bex	 4	 1.000000	 2.000000	 flanked_bex_freq_4_amplitude_1_rep_4_r_H_2.0_ampflank_6.png	 H	 r	 b	 n.a.	 5.240398e-01
2	 2	 203	 flanked	 bex	 4	 2.000000	 2.000000	 flanked_bex_freq_4_amplitude_2_rep_9_t_D_2.0_ampflank_6.png	 D	 t	 t	 n.a.	 3.466810e-01
2	 2	 204	 flanked	 bex	 4	 0.500000	 2.000000	 flanked_bex_freq_4_amplitude_0.5_rep_8_t_D_2.0_ampflank_6.png	 D	 t	 t	 n.a.	 5.622566e-01
2	 2	 205	 flanked	 bex	 4	 2.000000	 2.000000	 flanked_bex_freq_4_amplitude_2_rep_3_r_D_2.0_ampflank_6.png	 D	 r	 t	 n.a.	 4.680039e-01
2	 2	 206	 flanked	 bex	 4	 0.500000	 2.000000	 flanked_bex_freq_4_amplitude_0.5_rep_3_b_K_2.0_ampflank_6.png	 K	 b	 t	 n.a.	 4.863634e-01
2	 2	 207	 flanked	 bex	 4	 5.000000	 2.000000	 flanked_bex_freq_4_amplitude_5_rep_1_t_D_2.0_ampflank_6.png	 D	 t	 b	 n.a.	 4.643613e-01
2	 2	 208	 flanked	 bex	 4	 4.000000	 2.000000	 flanked_bex_freq_4_amplitude_4_rep_5_b_H_2.0_ampflank_6.png	 H	 b	 r	 n.a.	 4.538737e-01
2	 2	 209	 flanked	 bex	 4	 6.000000	 2.000000	 flanked_bex_freq_4_amplitude_6_rep_4_t_N_2.0_ampflank_6.png	 N	 t	 t	 n.a.	 1.002710e+00
2	 2	 210	 flanked	 bex	 4	 1.000000	 2.000000	 flanked_bex_freq_4_amplitude_1_rep_4_r_H_2.0_ampflank_6.png	 H	 r	 t	 n.a.	 9.663003e-01
