subject	 session	 trial	 flanked	 distortion	 freq	 amplitude	 spacing	 im_name	 targ_letter	 targ_pos	 response	 eyemovement	 RT
7	 1	 1	 flanked	 rf	 4	 0.425000	 2.000000	 flanked_rf_freq_4_amplitude_0.425_rep_8_t_K_2.0.png	 K	 t	 r	 n.a.	 7.228325e-01
7	 1	 2	 flanked	 rf	 4	 0.275000	 2.000000	 flanked_rf_freq_4_amplitude_0.275_rep_9_t_D_2.0.png	 D	 t	 t	 n.a.	 6.429633e-01
7	 1	 3	 flanked	 rf	 4	 0.050000	 2.000000	 flanked_rf_freq_4_amplitude_0.05_rep_8_t_N_2.0.png	 N	 t	 l	 n.a.	 5.829953e-01
7	 1	 4	 flanked	 rf	 4	 0.500000	 2.000000	 flanked_rf_freq_4_amplitude_0.5_rep_6_t_D_2.0.png	 D	 t	 r	 n.a.	 5.324271e-01
7	 1	 5	 flanked	 rf	 4	 0.425000	 2.000000	 flanked_rf_freq_4_amplitude_0.425_rep_6_t_K_2.0.png	 K	 t	 t	 n.a.	 7.230480e-01
7	 1	 6	 flanked	 rf	 4	 0.275000	 2.000000	 flanked_rf_freq_4_amplitude_0.275_rep_7_b_K_2.0.png	 K	 b	 b	 n.a.	 5.660310e-01
7	 1	 7	 flanked	 rf	 4	 0.350000	 2.000000	 flanked_rf_freq_4_amplitude_0.35_rep_4_b_K_2.0.png	 K	 b	 l	 n.a.	 8.311135e-01
7	 1	 8	 flanked	 rf	 4	 0.200000	 2.000000	 flanked_rf_freq_4_amplitude_0.2_rep_5_r_D_2.0.png	 D	 r	 t	 n.a.	 4.515043e-01
7	 1	 9	 flanked	 rf	 4	 0.200000	 2.000000	 flanked_rf_freq_4_amplitude_0.2_rep_4_r_H_2.0.png	 H	 r	 b	 n.a.	 5.707149e-01
7	 1	 10	 flanked	 rf	 4	 0.425000	 2.000000	 flanked_rf_freq_4_amplitude_0.425_rep_4_l_H_2.0.png	 H	 l	 b	 n.a.	 7.358025e-01
7	 1	 11	 flanked	 rf	 4	 0.500000	 2.000000	 flanked_rf_freq_4_amplitude_0.5_rep_2_r_H_2.0.png	 H	 r	 r	 n.a.	 6.036806e-01
7	 1	 12	 flanked	 rf	 4	 0.350000	 2.000000	 flanked_rf_freq_4_amplitude_0.35_rep_7_r_H_2.0.png	 H	 r	 l	 n.a.	 5.794629e-01
7	 1	 13	 flanked	 rf	 4	 0.200000	 2.000000	 flanked_rf_freq_4_amplitude_0.2_rep_1_l_K_2.0.png	 K	 l	 l	 n.a.	 6.689344e-01
7	 1	 14	 flanked	 rf	 4	 0.125000	 2.000000	 flanked_rf_freq_4_amplitude_0.125_rep_0_r_H_2.0.png	 H	 r	 r	 n.a.	 5.794074e-01
7	 1	 15	 flanked	 rf	 4	 0.275000	 2.000000	 flanked_rf_freq_4_amplitude_0.275_rep_8_b_N_2.0.png	 N	 b	 t	 n.a.	 9.244187e-01
7	 1	 16	 flanked	 rf	 4	 0.350000	 2.000000	 flanked_rf_freq_4_amplitude_0.35_rep_1_l_K_2.0.png	 K	 l	 b	 n.a.	 5.594710e-01
7	 1	 17	 flanked	 rf	 4	 0.425000	 2.000000	 flanked_rf_freq_4_amplitude_0.425_rep_6_t_K_2.0.png	 K	 t	 r	 n.a.	 1.066375e+00
7	 1	 18	 flanked	 rf	 4	 0.125000	 2.000000	 flanked_rf_freq_4_amplitude_0.125_rep_1_l_K_2.0.png	 K	 l	 r	 n.a.	 5.973664e-01
7	 1	 19	 flanked	 rf	 4	 0.050000	 2.000000	 flanked_rf_freq_4_amplitude_0.05_rep_0_r_H_2.0.png	 H	 r	 l	 n.a.	 5.509387e-01
7	 1	 20	 flanked	 rf	 4	 0.125000	 2.000000	 flanked_rf_freq_4_amplitude_0.125_rep_4_l_H_2.0.png	 H	 l	 b	 n.a.	 8.168815e-01
7	 1	 21	 flanked	 rf	 4	 0.500000	 2.000000	 flanked_rf_freq_4_amplitude_0.5_rep_1_l_K_2.0.png	 K	 l	 l	 n.a.	 6.663705e-01
7	 1	 22	 flanked	 rf	 4	 0.125000	 2.000000	 flanked_rf_freq_4_amplitude_0.125_rep_9_t_N_2.0.png	 N	 t	 t	 n.a.	 5.288069e-01
7	 1	 23	 flanked	 rf	 4	 0.350000	 2.000000	 flanked_rf_freq_4_amplitude_0.35_rep_0_l_D_2.0.png	 D	 l	 l	 n.a.	 4.955908e-01
7	 1	 24	 flanked	 rf	 4	 0.500000	 2.000000	 flanked_rf_freq_4_amplitude_0.5_rep_1_l_K_2.0.png	 K	 l	 l	 n.a.	 1.077673e+00
7	 1	 25	 flanked	 rf	 4	 0.275000	 2.000000	 flanked_rf_freq_4_amplitude_0.275_rep_5_l_D_2.0.png	 D	 l	 b	 n.a.	 1.079238e+00
7	 1	 26	 flanked	 rf	 4	 0.275000	 2.000000	 flanked_rf_freq_4_amplitude_0.275_rep_3_b_N_2.0.png	 N	 b	 l	 n.a.	 8.556805e-01
7	 1	 27	 flanked	 rf	 4	 0.425000	 2.000000	 flanked_rf_freq_4_amplitude_0.425_rep_8_t_K_2.0.png	 K	 t	 t	 n.a.	 1.016937e+00
7	 1	 28	 flanked	 rf	 4	 0.125000	 2.000000	 flanked_rf_freq_4_amplitude_0.125_rep_3_b_H_2.0.png	 H	 b	 b	 n.a.	 6.225727e-01
7	 1	 29	 flanked	 rf	 4	 0.425000	 2.000000	 flanked_rf_freq_4_amplitude_0.425_rep_0_t_D_2.0.png	 D	 t	 t	 n.a.	 7.717842e-01
7	 1	 30	 flanked	 rf	 4	 0.200000	 2.000000	 flanked_rf_freq_4_amplitude_0.2_rep_8_b_H_2.0.png	 H	 b	 l	 n.a.	 7.021382e-01
7	 1	 31	 flanked	 rf	 4	 0.200000	 2.000000	 flanked_rf_freq_4_amplitude_0.2_rep_9_l_D_2.0.png	 D	 l	 l	 n.a.	 5.990785e-01
7	 1	 32	 flanked	 rf	 4	 0.350000	 2.000000	 flanked_rf_freq_4_amplitude_0.35_rep_6_l_H_2.0.png	 H	 l	 l	 n.a.	 9.407137e-01
7	 1	 33	 flanked	 rf	 4	 0.200000	 2.000000	 flanked_rf_freq_4_amplitude_0.2_rep_2_l_D_2.0.png	 D	 l	 l	 n.a.	 8.192441e-01
7	 1	 34	 flanked	 rf	 4	 0.125000	 2.000000	 flanked_rf_freq_4_amplitude_0.125_rep_9_t_N_2.0.png	 N	 t	 t	 n.a.	 8.545796e-01
7	 1	 35	 flanked	 rf	 4	 0.425000	 2.000000	 flanked_rf_freq_4_amplitude_0.425_rep_7_t_H_2.0.png	 H	 t	 b	 n.a.	 9.082123e-01
7	 1	 36	 flanked	 rf	 4	 0.200000	 2.000000	 flanked_rf_freq_4_amplitude_0.2_rep_5_r_D_2.0.png	 D	 r	 t	 n.a.	 4.823989e-01
7	 1	 37	 flanked	 rf	 4	 0.200000	 2.000000	 flanked_rf_freq_4_amplitude_0.2_rep_8_b_H_2.0.png	 H	 b	 b	 n.a.	 8.017535e-01
7	 1	 38	 flanked	 rf	 4	 0.425000	 2.000000	 flanked_rf_freq_4_amplitude_0.425_rep_0_t_D_2.0.png	 D	 t	 r	 n.a.	 1.174528e+00
7	 1	 39	 flanked	 rf	 4	 0.350000	 2.000000	 flanked_rf_freq_4_amplitude_0.35_rep_4_b_K_2.0.png	 K	 b	 b	 n.a.	 5.943452e-01
7	 1	 40	 flanked	 rf	 4	 0.425000	 2.000000	 flanked_rf_freq_4_amplitude_0.425_rep_4_l_H_2.0.png	 H	 l	 b	 n.a.	 1.110053e+00
7	 1	 41	 flanked	 rf	 4	 0.050000	 2.000000	 flanked_rf_freq_4_amplitude_0.05_rep_9_t_N_2.0.png	 N	 t	 l	 n.a.	 5.225871e-01
7	 1	 42	 flanked	 rf	 4	 0.425000	 2.000000	 flanked_rf_freq_4_amplitude_0.425_rep_3_t_K_2.0.png	 K	 t	 t	 n.a.	 5.036897e-01
7	 1	 43	 flanked	 rf	 4	 0.425000	 2.000000	 flanked_rf_freq_4_amplitude_0.425_rep_1_b_K_2.0.png	 K	 b	 t	 n.a.	 1.253012e+00
7	 1	 44	 flanked	 rf	 4	 0.350000	 2.000000	 flanked_rf_freq_4_amplitude_0.35_rep_3_b_H_2.0.png	 H	 b	 t	 n.a.	 1.053926e+00
7	 1	 45	 flanked	 rf	 4	 0.500000	 2.000000	 flanked_rf_freq_4_amplitude_0.5_rep_8_b_D_2.0.png	 D	 b	 b	 n.a.	 7.458847e-01
7	 1	 46	 flanked	 rf	 4	 0.050000	 2.000000	 flanked_rf_freq_4_amplitude_0.05_rep_4_l_N_2.0.png	 N	 l	 l	 n.a.	 8.378731e-01
7	 1	 47	 flanked	 rf	 4	 0.050000	 2.000000	 flanked_rf_freq_4_amplitude_0.05_rep_2_t_N_2.0.png	 N	 t	 t	 n.a.	 5.369932e-01
7	 1	 48	 flanked	 rf	 4	 0.125000	 2.000000	 flanked_rf_freq_4_amplitude_0.125_rep_3_b_H_2.0.png	 H	 b	 r	 n.a.	 6.119448e-01
7	 1	 49	 flanked	 rf	 4	 0.200000	 2.000000	 flanked_rf_freq_4_amplitude_0.2_rep_0_t_D_2.0.png	 D	 t	 l	 n.a.	 7.301442e-01
7	 1	 50	 flanked	 rf	 4	 0.425000	 2.000000	 flanked_rf_freq_4_amplitude_0.425_rep_9_r_D_2.0.png	 D	 r	 t	 n.a.	 5.252139e-01
7	 1	 51	 flanked	 rf	 4	 0.350000	 2.000000	 flanked_rf_freq_4_amplitude_0.35_rep_7_r_H_2.0.png	 H	 r	 r	 n.a.	 6.129894e-01
7	 1	 52	 flanked	 rf	 4	 0.275000	 2.000000	 flanked_rf_freq_4_amplitude_0.275_rep_1_r_D_2.0.png	 D	 r	 r	 n.a.	 5.885495e-01
7	 1	 53	 flanked	 rf	 4	 0.200000	 2.000000	 flanked_rf_freq_4_amplitude_0.2_rep_0_t_D_2.0.png	 D	 t	 l	 n.a.	 4.329115e-01
7	 1	 54	 flanked	 rf	 4	 0.275000	 2.000000	 flanked_rf_freq_4_amplitude_0.275_rep_8_b_N_2.0.png	 N	 b	 t	 n.a.	 4.443169e-01
7	 1	 55	 flanked	 rf	 4	 0.275000	 2.000000	 flanked_rf_freq_4_amplitude_0.275_rep_3_b_N_2.0.png	 N	 b	 b	 n.a.	 6.576417e-01
7	 1	 56	 flanked	 rf	 4	 0.050000	 2.000000	 flanked_rf_freq_4_amplitude_0.05_rep_7_r_H_2.0.png	 H	 r	 b	 n.a.	 5.307782e-01
7	 1	 57	 flanked	 rf	 4	 0.425000	 2.000000	 flanked_rf_freq_4_amplitude_0.425_rep_9_r_D_2.0.png	 D	 r	 l	 n.a.	 3.659831e-01
7	 1	 58	 flanked	 rf	 4	 0.350000	 2.000000	 flanked_rf_freq_4_amplitude_0.35_rep_6_l_H_2.0.png	 H	 l	 l	 n.a.	 4.180929e-01
7	 1	 59	 flanked	 rf	 4	 0.125000	 2.000000	 flanked_rf_freq_4_amplitude_0.125_rep_2_l_D_2.0.png	 D	 l	 t	 n.a.	 5.430504e-01
7	 1	 60	 flanked	 rf	 4	 0.050000	 2.000000	 flanked_rf_freq_4_amplitude_0.05_rep_6_t_N_2.0.png	 N	 t	 b	 n.a.	 4.915707e-01
7	 1	 61	 flanked	 rf	 4	 0.200000	 2.000000	 flanked_rf_freq_4_amplitude_0.2_rep_9_l_D_2.0.png	 D	 l	 l	 n.a.	 3.425144e-01
7	 1	 62	 flanked	 rf	 4	 0.050000	 2.000000	 flanked_rf_freq_4_amplitude_0.05_rep_5_b_K_2.0.png	 K	 b	 t	 n.a.	 4.366611e-01
7	 1	 63	 flanked	 rf	 4	 0.125000	 2.000000	 flanked_rf_freq_4_amplitude_0.125_rep_1_l_K_2.0.png	 K	 l	 b	 n.a.	 3.546320e-01
7	 1	 64	 flanked	 rf	 4	 0.425000	 2.000000	 flanked_rf_freq_4_amplitude_0.425_rep_4_l_H_2.0.png	 H	 l	 l	 n.a.	 3.334374e-01
7	 1	 65	 flanked	 rf	 4	 0.050000	 2.000000	 flanked_rf_freq_4_amplitude_0.05_rep_0_r_H_2.0.png	 H	 r	 t	 n.a.	 3.827299e-01
7	 1	 66	 flanked	 rf	 4	 0.275000	 2.000000	 flanked_rf_freq_4_amplitude_0.275_rep_7_b_K_2.0.png	 K	 b	 l	 n.a.	 3.451950e-01
7	 1	 67	 flanked	 rf	 4	 0.425000	 2.000000	 flanked_rf_freq_4_amplitude_0.425_rep_2_t_K_2.0.png	 K	 t	 b	 n.a.	 4.073432e-01
7	 1	 68	 flanked	 rf	 4	 0.125000	 2.000000	 flanked_rf_freq_4_amplitude_0.125_rep_0_r_H_2.0.png	 H	 r	 t	 n.a.	 4.903377e-01
7	 1	 69	 flanked	 rf	 4	 0.425000	 2.000000	 flanked_rf_freq_4_amplitude_0.425_rep_3_t_K_2.0.png	 K	 t	 t	 n.a.	 9.697326e-01
7	 1	 70	 flanked	 rf	 4	 0.125000	 2.000000	 flanked_rf_freq_4_amplitude_0.125_rep_3_b_H_2.0.png	 H	 b	 t	 n.a.	 6.870714e-01
7	 1	 71	 flanked	 rf	 4	 0.200000	 2.000000	 flanked_rf_freq_4_amplitude_0.2_rep_5_r_D_2.0.png	 D	 r	 r	 n.a.	 4.565192e-01
7	 1	 72	 flanked	 rf	 4	 0.200000	 2.000000	 flanked_rf_freq_4_amplitude_0.2_rep_8_b_H_2.0.png	 H	 b	 b	 n.a.	 4.876418e-01
7	 1	 73	 flanked	 rf	 4	 0.200000	 2.000000	 flanked_rf_freq_4_amplitude_0.2_rep_2_l_D_2.0.png	 D	 l	 t	 n.a.	 4.069867e-01
7	 1	 74	 flanked	 rf	 4	 0.275000	 2.000000	 flanked_rf_freq_4_amplitude_0.275_rep_7_b_K_2.0.png	 K	 b	 t	 n.a.	 7.406271e-01
7	 1	 75	 flanked	 rf	 4	 0.125000	 2.000000	 flanked_rf_freq_4_amplitude_0.125_rep_4_l_H_2.0.png	 H	 l	 l	 n.a.	 6.782788e-01
7	 1	 76	 flanked	 rf	 4	 0.200000	 2.000000	 flanked_rf_freq_4_amplitude_0.2_rep_1_l_K_2.0.png	 K	 l	 l	 n.a.	 1.047202e+00
7	 1	 77	 flanked	 rf	 4	 0.050000	 2.000000	 flanked_rf_freq_4_amplitude_0.05_rep_9_t_N_2.0.png	 N	 t	 r	 n.a.	 7.496321e-01
7	 1	 78	 flanked	 rf	 4	 0.050000	 2.000000	 flanked_rf_freq_4_amplitude_0.05_rep_1_b_K_2.0.png	 K	 b	 t	 n.a.	 8.755248e-01
7	 1	 79	 flanked	 rf	 4	 0.350000	 2.000000	 flanked_rf_freq_4_amplitude_0.35_rep_1_l_K_2.0.png	 K	 l	 l	 n.a.	 9.286233e-01
7	 1	 80	 flanked	 rf	 4	 0.275000	 2.000000	 flanked_rf_freq_4_amplitude_0.275_rep_4_l_H_2.0.png	 H	 l	 l	 n.a.	 1.193808e+00
7	 1	 81	 flanked	 rf	 4	 0.350000	 2.000000	 flanked_rf_freq_4_amplitude_0.35_rep_2_b_K_2.0.png	 K	 b	 r	 n.a.	 9.026981e-01
7	 1	 82	 flanked	 rf	 4	 0.050000	 2.000000	 flanked_rf_freq_4_amplitude_0.05_rep_9_t_N_2.0.png	 N	 t	 b	 n.a.	 7.554134e-01
7	 1	 83	 flanked	 rf	 4	 0.350000	 2.000000	 flanked_rf_freq_4_amplitude_0.35_rep_8_t_H_2.0.png	 H	 t	 r	 n.a.	 6.669065e-01
7	 1	 84	 flanked	 rf	 4	 0.125000	 2.000000	 flanked_rf_freq_4_amplitude_0.125_rep_2_l_D_2.0.png	 D	 l	 t	 n.a.	 5.507725e-01
7	 1	 85	 flanked	 rf	 4	 0.500000	 2.000000	 flanked_rf_freq_4_amplitude_0.5_rep_5_l_N_2.0.png	 N	 l	 l	 n.a.	 4.080281e-01
7	 1	 86	 flanked	 rf	 4	 0.350000	 2.000000	 flanked_rf_freq_4_amplitude_0.35_rep_0_l_D_2.0.png	 D	 l	 l	 n.a.	 5.224976e-01
7	 1	 87	 flanked	 rf	 4	 0.500000	 2.000000	 flanked_rf_freq_4_amplitude_0.5_rep_0_b_N_2.0.png	 N	 b	 l	 n.a.	 1.002726e+00
7	 1	 88	 flanked	 rf	 4	 0.050000	 2.000000	 flanked_rf_freq_4_amplitude_0.05_rep_4_l_N_2.0.png	 N	 l	 l	 n.a.	 5.951106e-01
7	 1	 89	 flanked	 rf	 4	 0.350000	 2.000000	 flanked_rf_freq_4_amplitude_0.35_rep_6_l_H_2.0.png	 H	 l	 t	 n.a.	 9.738942e-01
7	 1	 90	 flanked	 rf	 4	 0.350000	 2.000000	 flanked_rf_freq_4_amplitude_0.35_rep_2_b_K_2.0.png	 K	 b	 b	 n.a.	 4.893020e-01
7	 1	 91	 flanked	 rf	 4	 0.125000	 2.000000	 flanked_rf_freq_4_amplitude_0.125_rep_6_b_N_2.0.png	 N	 b	 t	 n.a.	 6.536233e-01
7	 1	 92	 flanked	 rf	 4	 0.050000	 2.000000	 flanked_rf_freq_4_amplitude_0.05_rep_1_b_K_2.0.png	 K	 b	 r	 n.a.	 5.990960e-01
7	 1	 93	 flanked	 rf	 4	 0.500000	 2.000000	 flanked_rf_freq_4_amplitude_0.5_rep_7_t_D_2.0.png	 D	 t	 t	 n.a.	 5.962444e-01
7	 1	 94	 flanked	 rf	 4	 0.275000	 2.000000	 flanked_rf_freq_4_amplitude_0.275_rep_6_l_K_2.0.png	 K	 l	 t	 n.a.	 8.332602e-01
7	 1	 95	 flanked	 rf	 4	 0.050000	 2.000000	 flanked_rf_freq_4_amplitude_0.05_rep_8_t_N_2.0.png	 N	 t	 l	 n.a.	 5.236551e-01
7	 1	 96	 flanked	 rf	 4	 0.500000	 2.000000	 flanked_rf_freq_4_amplitude_0.5_rep_1_l_K_2.0.png	 K	 l	 t	 n.a.	 5.516862e-01
7	 1	 97	 flanked	 rf	 4	 0.125000	 2.000000	 flanked_rf_freq_4_amplitude_0.125_rep_0_r_H_2.0.png	 H	 r	 l	 n.a.	 4.570200e-01
7	 1	 98	 flanked	 rf	 4	 0.275000	 2.000000	 flanked_rf_freq_4_amplitude_0.275_rep_6_l_K_2.0.png	 K	 l	 b	 n.a.	 9.437630e-01
7	 1	 99	 flanked	 rf	 4	 0.425000	 2.000000	 flanked_rf_freq_4_amplitude_0.425_rep_5_b_N_2.0.png	 N	 b	 t	 n.a.	 5.237019e-01
7	 1	 100	 flanked	 rf	 4	 0.050000	 2.000000	 flanked_rf_freq_4_amplitude_0.05_rep_2_t_N_2.0.png	 N	 t	 r	 n.a.	 5.936021e-01
7	 1	 101	 flanked	 rf	 4	 0.500000	 2.000000	 flanked_rf_freq_4_amplitude_0.5_rep_4_b_H_2.0.png	 H	 b	 b	 n.a.	 6.022638e-01
7	 1	 102	 flanked	 rf	 4	 0.425000	 2.000000	 flanked_rf_freq_4_amplitude_0.425_rep_7_t_H_2.0.png	 H	 t	 t	 n.a.	 5.797401e-01
7	 1	 103	 flanked	 rf	 4	 0.125000	 2.000000	 flanked_rf_freq_4_amplitude_0.125_rep_7_b_D_2.0.png	 D	 b	 b	 n.a.	 5.477944e-01
7	 1	 104	 flanked	 rf	 4	 0.125000	 2.000000	 flanked_rf_freq_4_amplitude_0.125_rep_6_b_N_2.0.png	 N	 b	 b	 n.a.	 8.053690e-01
7	 1	 105	 flanked	 rf	 4	 0.275000	 2.000000	 flanked_rf_freq_4_amplitude_0.275_rep_5_l_D_2.0.png	 D	 l	 b	 n.a.	 9.848936e-01
7	 1	 106	 flanked	 rf	 4	 0.350000	 2.000000	 flanked_rf_freq_4_amplitude_0.35_rep_8_t_H_2.0.png	 H	 t	 t	 n.a.	 8.419861e-01
7	 1	 107	 flanked	 rf	 4	 0.125000	 2.000000	 flanked_rf_freq_4_amplitude_0.125_rep_9_t_N_2.0.png	 N	 t	 r	 n.a.	 7.465739e-01
7	 1	 108	 flanked	 rf	 4	 0.275000	 2.000000	 flanked_rf_freq_4_amplitude_0.275_rep_0_t_H_2.0.png	 H	 t	 b	 n.a.	 7.534935e-01
7	 1	 109	 flanked	 rf	 4	 0.350000	 2.000000	 flanked_rf_freq_4_amplitude_0.35_rep_1_l_K_2.0.png	 K	 l	 t	 n.a.	 6.860502e-01
7	 1	 110	 flanked	 rf	 4	 0.200000	 2.000000	 flanked_rf_freq_4_amplitude_0.2_rep_7_l_K_2.0.png	 K	 l	 b	 n.a.	 1.202212e+00
7	 1	 111	 flanked	 rf	 4	 0.275000	 2.000000	 flanked_rf_freq_4_amplitude_0.275_rep_2_t_H_2.0.png	 H	 t	 t	 n.a.	 4.938513e-01
7	 1	 112	 flanked	 rf	 4	 0.275000	 2.000000	 flanked_rf_freq_4_amplitude_0.275_rep_9_t_D_2.0.png	 D	 t	 b	 n.a.	 1.058045e+00
7	 1	 113	 flanked	 rf	 4	 0.050000	 2.000000	 flanked_rf_freq_4_amplitude_0.05_rep_0_r_H_2.0.png	 H	 r	 t	 n.a.	 4.574857e-01
7	 1	 114	 flanked	 rf	 4	 0.200000	 2.000000	 flanked_rf_freq_4_amplitude_0.2_rep_4_r_H_2.0.png	 H	 r	 r	 n.a.	 3.797531e-01
7	 1	 115	 flanked	 rf	 4	 0.500000	 2.000000	 flanked_rf_freq_4_amplitude_0.5_rep_2_r_H_2.0.png	 H	 r	 r	 n.a.	 1.199428e+00
7	 1	 116	 flanked	 rf	 4	 0.500000	 2.000000	 flanked_rf_freq_4_amplitude_0.5_rep_5_l_N_2.0.png	 N	 l	 t	 n.a.	 6.069385e-01
7	 1	 117	 flanked	 rf	 4	 0.500000	 2.000000	 flanked_rf_freq_4_amplitude_0.5_rep_9_l_K_2.0.png	 K	 l	 l	 n.a.	 7.761057e-01
7	 1	 118	 flanked	 rf	 4	 0.125000	 2.000000	 flanked_rf_freq_4_amplitude_0.125_rep_7_b_D_2.0.png	 D	 b	 t	 n.a.	 5.930786e-01
7	 1	 119	 flanked	 rf	 4	 0.050000	 2.000000	 flanked_rf_freq_4_amplitude_0.05_rep_7_r_H_2.0.png	 H	 r	 r	 n.a.	 4.076724e-01
7	 1	 120	 flanked	 rf	 4	 0.125000	 2.000000	 flanked_rf_freq_4_amplitude_0.125_rep_6_b_N_2.0.png	 N	 b	 b	 n.a.	 6.176087e-01
7	 1	 121	 flanked	 rf	 4	 0.275000	 2.000000	 flanked_rf_freq_4_amplitude_0.275_rep_4_l_H_2.0.png	 H	 l	 t	 n.a.	 8.567532e-01
7	 1	 122	 flanked	 rf	 4	 0.350000	 2.000000	 flanked_rf_freq_4_amplitude_0.35_rep_2_b_K_2.0.png	 K	 b	 r	 n.a.	 9.117608e-01
7	 1	 123	 flanked	 rf	 4	 0.275000	 2.000000	 flanked_rf_freq_4_amplitude_0.275_rep_0_t_H_2.0.png	 H	 t	 r	 n.a.	 6.781987e-01
7	 1	 124	 flanked	 rf	 4	 0.350000	 2.000000	 flanked_rf_freq_4_amplitude_0.35_rep_7_r_H_2.0.png	 H	 r	 t	 n.a.	 8.126055e-01
7	 1	 125	 flanked	 rf	 4	 0.050000	 2.000000	 flanked_rf_freq_4_amplitude_0.05_rep_3_b_H_2.0.png	 H	 b	 b	 n.a.	 3.962807e-01
7	 1	 126	 flanked	 rf	 4	 0.125000	 2.000000	 flanked_rf_freq_4_amplitude_0.125_rep_8_t_K_2.0.png	 K	 t	 r	 n.a.	 4.824180e-01
7	 1	 127	 flanked	 rf	 4	 0.275000	 2.000000	 flanked_rf_freq_4_amplitude_0.275_rep_5_l_D_2.0.png	 D	 l	 b	 n.a.	 9.255448e-01
7	 1	 128	 flanked	 rf	 4	 0.200000	 2.000000	 flanked_rf_freq_4_amplitude_0.2_rep_3_r_K_2.0.png	 K	 r	 t	 n.a.	 4.543113e-01
7	 1	 129	 flanked	 rf	 4	 0.275000	 2.000000	 flanked_rf_freq_4_amplitude_0.275_rep_1_r_D_2.0.png	 D	 r	 r	 n.a.	 4.012173e-01
7	 1	 130	 flanked	 rf	 4	 0.275000	 2.000000	 flanked_rf_freq_4_amplitude_0.275_rep_2_t_H_2.0.png	 H	 t	 b	 n.a.	 6.909435e-01
7	 1	 131	 flanked	 rf	 4	 0.425000	 2.000000	 flanked_rf_freq_4_amplitude_0.425_rep_3_t_K_2.0.png	 K	 t	 t	 n.a.	 5.216463e-01
7	 1	 132	 flanked	 rf	 4	 0.350000	 2.000000	 flanked_rf_freq_4_amplitude_0.35_rep_9_b_H_2.0.png	 H	 b	 r	 n.a.	 8.635982e-01
7	 1	 133	 flanked	 rf	 4	 0.500000	 2.000000	 flanked_rf_freq_4_amplitude_0.5_rep_3_t_H_2.0.png	 H	 t	 t	 n.a.	 4.288241e-01
7	 1	 134	 flanked	 rf	 4	 0.500000	 2.000000	 flanked_rf_freq_4_amplitude_0.5_rep_4_b_H_2.0.png	 H	 b	 b	 n.a.	 6.780616e-01
7	 1	 135	 flanked	 rf	 4	 0.200000	 2.000000	 flanked_rf_freq_4_amplitude_0.2_rep_2_l_D_2.0.png	 D	 l	 l	 n.a.	 6.518782e-01
7	 1	 136	 flanked	 rf	 4	 0.050000	 2.000000	 flanked_rf_freq_4_amplitude_0.05_rep_4_l_N_2.0.png	 N	 l	 r	 n.a.	 5.556016e-01
7	 1	 137	 flanked	 rf	 4	 0.200000	 2.000000	 flanked_rf_freq_4_amplitude_0.2_rep_0_t_D_2.0.png	 D	 t	 t	 n.a.	 4.577229e-01
7	 1	 138	 flanked	 rf	 4	 0.275000	 2.000000	 flanked_rf_freq_4_amplitude_0.275_rep_0_t_H_2.0.png	 H	 t	 t	 n.a.	 7.120052e-01
7	 1	 139	 flanked	 rf	 4	 0.200000	 2.000000	 flanked_rf_freq_4_amplitude_0.2_rep_7_l_K_2.0.png	 K	 l	 t	 n.a.	 7.230699e-01
7	 1	 140	 flanked	 rf	 4	 0.350000	 2.000000	 flanked_rf_freq_4_amplitude_0.35_rep_5_b_N_2.0.png	 N	 b	 b	 n.a.	 5.131947e-01
7	 1	 141	 flanked	 rf	 4	 0.200000	 2.000000	 flanked_rf_freq_4_amplitude_0.2_rep_6_b_N_2.0.png	 N	 b	 b	 n.a.	 4.545399e-01
7	 1	 142	 flanked	 rf	 4	 0.500000	 2.000000	 flanked_rf_freq_4_amplitude_0.5_rep_0_b_N_2.0.png	 N	 b	 b	 n.a.	 6.484939e-01
7	 1	 143	 flanked	 rf	 4	 0.500000	 2.000000	 flanked_rf_freq_4_amplitude_0.5_rep_7_t_D_2.0.png	 D	 t	 t	 n.a.	 8.690299e-01
7	 1	 144	 flanked	 rf	 4	 0.050000	 2.000000	 flanked_rf_freq_4_amplitude_0.05_rep_3_b_H_2.0.png	 H	 b	 b	 n.a.	 8.854338e-01
7	 1	 145	 flanked	 rf	 4	 0.275000	 2.000000	 flanked_rf_freq_4_amplitude_0.275_rep_8_b_N_2.0.png	 N	 b	 l	 n.a.	 6.224013e-01
7	 1	 146	 flanked	 rf	 4	 0.125000	 2.000000	 flanked_rf_freq_4_amplitude_0.125_rep_1_l_K_2.0.png	 K	 l	 t	 n.a.	 5.987055e-01
7	 1	 147	 flanked	 rf	 4	 0.425000	 2.000000	 flanked_rf_freq_4_amplitude_0.425_rep_9_r_D_2.0.png	 D	 r	 r	 n.a.	 4.781119e-01
7	 1	 148	 flanked	 rf	 4	 0.500000	 2.000000	 flanked_rf_freq_4_amplitude_0.5_rep_3_t_H_2.0.png	 H	 t	 t	 n.a.	 5.685177e-01
7	 1	 149	 flanked	 rf	 4	 0.350000	 2.000000	 flanked_rf_freq_4_amplitude_0.35_rep_4_b_K_2.0.png	 K	 b	 t	 n.a.	 6.013701e-01
7	 1	 150	 flanked	 rf	 4	 0.350000	 2.000000	 flanked_rf_freq_4_amplitude_0.35_rep_9_b_H_2.0.png	 H	 b	 b	 n.a.	 5.306132e-01
7	 1	 151	 flanked	 rf	 4	 0.500000	 2.000000	 flanked_rf_freq_4_amplitude_0.5_rep_5_l_N_2.0.png	 N	 l	 l	 n.a.	 7.751255e-01
7	 1	 152	 flanked	 rf	 4	 0.500000	 2.000000	 flanked_rf_freq_4_amplitude_0.5_rep_8_b_D_2.0.png	 D	 b	 b	 n.a.	 5.685520e-01
7	 1	 153	 flanked	 rf	 4	 0.050000	 2.000000	 flanked_rf_freq_4_amplitude_0.05_rep_5_b_K_2.0.png	 K	 b	 r	 n.a.	 6.436141e-01
7	 1	 154	 flanked	 rf	 4	 0.500000	 2.000000	 flanked_rf_freq_4_amplitude_0.5_rep_7_t_D_2.0.png	 D	 t	 t	 n.a.	 4.562700e-01
7	 1	 155	 flanked	 rf	 4	 0.200000	 2.000000	 flanked_rf_freq_4_amplitude_0.2_rep_6_b_N_2.0.png	 N	 b	 b	 n.a.	 5.381647e-01
7	 1	 156	 flanked	 rf	 4	 0.500000	 2.000000	 flanked_rf_freq_4_amplitude_0.5_rep_6_t_D_2.0.png	 D	 t	 t	 n.a.	 5.356839e-01
7	 1	 157	 flanked	 rf	 4	 0.275000	 2.000000	 flanked_rf_freq_4_amplitude_0.275_rep_2_t_H_2.0.png	 H	 t	 t	 n.a.	 5.490631e-01
7	 1	 158	 flanked	 rf	 4	 0.275000	 2.000000	 flanked_rf_freq_4_amplitude_0.275_rep_9_t_D_2.0.png	 D	 t	 t	 n.a.	 5.403156e-01
7	 1	 159	 flanked	 rf	 4	 0.050000	 2.000000	 flanked_rf_freq_4_amplitude_0.05_rep_5_b_K_2.0.png	 K	 b	 l	 n.a.	 9.188844e-01
7	 1	 160	 flanked	 rf	 4	 0.425000	 2.000000	 flanked_rf_freq_4_amplitude_0.425_rep_5_b_N_2.0.png	 N	 b	 r	 n.a.	 1.036407e+00
7	 1	 161	 flanked	 rf	 4	 0.125000	 2.000000	 flanked_rf_freq_4_amplitude_0.125_rep_8_t_K_2.0.png	 K	 t	 t	 n.a.	 7.220186e-01
7	 1	 162	 flanked	 rf	 4	 0.350000	 2.000000	 flanked_rf_freq_4_amplitude_0.35_rep_9_b_H_2.0.png	 H	 b	 l	 n.a.	 5.982860e-01
7	 1	 163	 flanked	 rf	 4	 0.200000	 2.000000	 flanked_rf_freq_4_amplitude_0.2_rep_3_r_K_2.0.png	 K	 r	 r	 n.a.	 6.785907e-01
7	 1	 164	 flanked	 rf	 4	 0.050000	 2.000000	 flanked_rf_freq_4_amplitude_0.05_rep_8_t_N_2.0.png	 N	 t	 t	 n.a.	 5.706460e-01
7	 1	 165	 flanked	 rf	 4	 0.050000	 2.000000	 flanked_rf_freq_4_amplitude_0.05_rep_1_b_K_2.0.png	 K	 b	 r	 n.a.	 5.888036e-01
7	 1	 166	 flanked	 rf	 4	 0.050000	 2.000000	 flanked_rf_freq_4_amplitude_0.05_rep_7_r_H_2.0.png	 H	 r	 r	 n.a.	 1.314782e+00
7	 1	 167	 flanked	 rf	 4	 0.050000	 2.000000	 flanked_rf_freq_4_amplitude_0.05_rep_6_t_N_2.0.png	 N	 t	 l	 n.a.	 1.146392e+00
7	 1	 168	 flanked	 rf	 4	 0.350000	 2.000000	 flanked_rf_freq_4_amplitude_0.35_rep_0_l_D_2.0.png	 D	 l	 l	 n.a.	 9.943519e-01
7	 1	 169	 flanked	 rf	 4	 0.425000	 2.000000	 flanked_rf_freq_4_amplitude_0.425_rep_0_t_D_2.0.png	 D	 t	 t	 n.a.	 5.673396e-01
7	 1	 170	 flanked	 rf	 4	 0.125000	 2.000000	 flanked_rf_freq_4_amplitude_0.125_rep_8_t_K_2.0.png	 K	 t	 r	 n.a.	 6.364216e-01
7	 1	 171	 flanked	 rf	 4	 0.350000	 2.000000	 flanked_rf_freq_4_amplitude_0.35_rep_5_b_N_2.0.png	 N	 b	 t	 n.a.	 7.109795e-01
7	 1	 172	 flanked	 rf	 4	 0.125000	 2.000000	 flanked_rf_freq_4_amplitude_0.125_rep_5_t_N_2.0.png	 N	 t	 l	 n.a.	 7.188948e-01
7	 1	 173	 flanked	 rf	 4	 0.500000	 2.000000	 flanked_rf_freq_4_amplitude_0.5_rep_3_t_H_2.0.png	 H	 t	 t	 n.a.	 7.128555e-01
7	 1	 174	 flanked	 rf	 4	 0.500000	 2.000000	 flanked_rf_freq_4_amplitude_0.5_rep_2_r_H_2.0.png	 H	 r	 r	 n.a.	 1.092867e+00
7	 1	 175	 flanked	 rf	 4	 0.350000	 2.000000	 flanked_rf_freq_4_amplitude_0.35_rep_5_b_N_2.0.png	 N	 b	 r	 n.a.	 1.042408e+00
7	 1	 176	 flanked	 rf	 4	 0.050000	 2.000000	 flanked_rf_freq_4_amplitude_0.05_rep_3_b_H_2.0.png	 H	 b	 t	 n.a.	 5.129498e-01
7	 1	 177	 flanked	 rf	 4	 0.275000	 2.000000	 flanked_rf_freq_4_amplitude_0.275_rep_6_l_K_2.0.png	 K	 l	 l	 n.a.	 5.259302e-01
7	 1	 178	 flanked	 rf	 4	 0.125000	 2.000000	 flanked_rf_freq_4_amplitude_0.125_rep_7_b_D_2.0.png	 D	 b	 t	 n.a.	 4.860687e-01
7	 1	 179	 flanked	 rf	 4	 0.125000	 2.000000	 flanked_rf_freq_4_amplitude_0.125_rep_5_t_N_2.0.png	 N	 t	 b	 n.a.	 7.280406e-01
7	 1	 180	 flanked	 rf	 4	 0.200000	 2.000000	 flanked_rf_freq_4_amplitude_0.2_rep_3_r_K_2.0.png	 K	 r	 t	 n.a.	 6.330293e-01
7	 1	 181	 flanked	 rf	 4	 0.200000	 2.000000	 flanked_rf_freq_4_amplitude_0.2_rep_4_r_H_2.0.png	 H	 r	 r	 n.a.	 3.728360e-01
7	 1	 182	 flanked	 rf	 4	 0.500000	 2.000000	 flanked_rf_freq_4_amplitude_0.5_rep_0_b_N_2.0.png	 N	 b	 b	 n.a.	 7.348972e-01
7	 1	 183	 flanked	 rf	 4	 0.350000	 2.000000	 flanked_rf_freq_4_amplitude_0.35_rep_3_b_H_2.0.png	 H	 b	 b	 n.a.	 6.461983e-01
7	 1	 184	 flanked	 rf	 4	 0.500000	 2.000000	 flanked_rf_freq_4_amplitude_0.5_rep_9_l_K_2.0.png	 K	 l	 l	 n.a.	 9.729139e-01
7	 1	 185	 flanked	 rf	 4	 0.050000	 2.000000	 flanked_rf_freq_4_amplitude_0.05_rep_2_t_N_2.0.png	 N	 t	 r	 n.a.	 7.914330e-01
7	 1	 186	 flanked	 rf	 4	 0.350000	 2.000000	 flanked_rf_freq_4_amplitude_0.35_rep_3_b_H_2.0.png	 H	 b	 t	 n.a.	 8.034596e-01
7	 1	 187	 flanked	 rf	 4	 0.425000	 2.000000	 flanked_rf_freq_4_amplitude_0.425_rep_2_t_K_2.0.png	 K	 t	 r	 n.a.	 6.355140e-01
7	 1	 188	 flanked	 rf	 4	 0.275000	 2.000000	 flanked_rf_freq_4_amplitude_0.275_rep_1_r_D_2.0.png	 D	 r	 r	 n.a.	 6.050499e-01
7	 1	 189	 flanked	 rf	 4	 0.275000	 2.000000	 flanked_rf_freq_4_amplitude_0.275_rep_4_l_H_2.0.png	 H	 l	 l	 n.a.	 4.909377e-01
7	 1	 190	 flanked	 rf	 4	 0.425000	 2.000000	 flanked_rf_freq_4_amplitude_0.425_rep_6_t_K_2.0.png	 K	 t	 t	 n.a.	 8.267121e-01
7	 1	 191	 flanked	 rf	 4	 0.200000	 2.000000	 flanked_rf_freq_4_amplitude_0.2_rep_7_l_K_2.0.png	 K	 l	 b	 n.a.	 6.724750e-01
7	 1	 192	 flanked	 rf	 4	 0.425000	 2.000000	 flanked_rf_freq_4_amplitude_0.425_rep_1_b_K_2.0.png	 K	 b	 t	 n.a.	 8.042368e-01
7	 1	 193	 flanked	 rf	 4	 0.125000	 2.000000	 flanked_rf_freq_4_amplitude_0.125_rep_5_t_N_2.0.png	 N	 t	 l	 n.a.	 6.107746e-01
7	 1	 194	 flanked	 rf	 4	 0.275000	 2.000000	 flanked_rf_freq_4_amplitude_0.275_rep_3_b_N_2.0.png	 N	 b	 b	 n.a.	 6.856763e-01
7	 1	 195	 flanked	 rf	 4	 0.500000	 2.000000	 flanked_rf_freq_4_amplitude_0.5_rep_6_t_D_2.0.png	 D	 t	 t	 n.a.	 5.866575e-01
7	 1	 196	 flanked	 rf	 4	 0.500000	 2.000000	 flanked_rf_freq_4_amplitude_0.5_rep_4_b_H_2.0.png	 H	 b	 r	 n.a.	 7.632122e-01
7	 1	 197	 flanked	 rf	 4	 0.125000	 2.000000	 flanked_rf_freq_4_amplitude_0.125_rep_4_l_H_2.0.png	 H	 l	 b	 n.a.	 6.438550e-01
7	 1	 198	 flanked	 rf	 4	 0.500000	 2.000000	 flanked_rf_freq_4_amplitude_0.5_rep_8_b_D_2.0.png	 D	 b	 b	 n.a.	 6.650203e-01
7	 1	 199	 flanked	 rf	 4	 0.500000	 2.000000	 flanked_rf_freq_4_amplitude_0.5_rep_9_l_K_2.0.png	 K	 l	 b	 n.a.	 7.498617e-01
7	 1	 200	 flanked	 rf	 4	 0.425000	 2.000000	 flanked_rf_freq_4_amplitude_0.425_rep_7_t_H_2.0.png	 H	 t	 t	 n.a.	 4.353686e-01
7	 1	 201	 flanked	 rf	 4	 0.425000	 2.000000	 flanked_rf_freq_4_amplitude_0.425_rep_8_t_K_2.0.png	 K	 t	 t	 n.a.	 6.542285e-01
7	 1	 202	 flanked	 rf	 4	 0.200000	 2.000000	 flanked_rf_freq_4_amplitude_0.2_rep_9_l_D_2.0.png	 D	 l	 t	 n.a.	 5.285259e-01
7	 1	 203	 flanked	 rf	 4	 0.350000	 2.000000	 flanked_rf_freq_4_amplitude_0.35_rep_8_t_H_2.0.png	 H	 t	 t	 n.a.	 5.796095e-01
7	 1	 204	 flanked	 rf	 4	 0.425000	 2.000000	 flanked_rf_freq_4_amplitude_0.425_rep_5_b_N_2.0.png	 N	 b	 r	 n.a.	 8.546958e-01
7	 1	 205	 flanked	 rf	 4	 0.425000	 2.000000	 flanked_rf_freq_4_amplitude_0.425_rep_2_t_K_2.0.png	 K	 t	 t	 n.a.	 4.445668e-01
7	 1	 206	 flanked	 rf	 4	 0.050000	 2.000000	 flanked_rf_freq_4_amplitude_0.05_rep_6_t_N_2.0.png	 N	 t	 t	 n.a.	 5.240961e-01
7	 1	 207	 flanked	 rf	 4	 0.425000	 2.000000	 flanked_rf_freq_4_amplitude_0.425_rep_1_b_K_2.0.png	 K	 b	 t	 n.a.	 5.798259e-01
7	 1	 208	 flanked	 rf	 4	 0.200000	 2.000000	 flanked_rf_freq_4_amplitude_0.2_rep_1_l_K_2.0.png	 K	 l	 r	 n.a.	 5.031997e-01
7	 1	 209	 flanked	 rf	 4	 0.200000	 2.000000	 flanked_rf_freq_4_amplitude_0.2_rep_6_b_N_2.0.png	 N	 b	 b	 n.a.	 5.662569e-01
7	 1	 210	 flanked	 rf	 4	 0.125000	 2.000000	 flanked_rf_freq_4_amplitude_0.125_rep_2_l_D_2.0.png	 D	 l	 t	 n.a.	 4.678057e-01
