subject	 session	 trial	 flanked	 distortion	 freq	 amplitude	 spacing	 im_name	 targ_letter	 targ_pos	 response	 eyemovement	 RT
8	 4	 1	 flanked	 rf	 8	 0.007500	 2.000000	 flanked_rf_freq_8_amplitude_0.0075_rep_8_t_D_2.0.png	 D	 t	 b	 n.a.	 3.353125e-01
8	 4	 2	 flanked	 rf	 3	 0.010000	 2.000000	 flanked_rf_freq_3_amplitude_0.01_rep_6_b_H_2.0.png	 H	 b	 t	 n.a.	 3.612035e-01
8	 4	 3	 flanked	 rf	 5	 0.007500	 2.000000	 flanked_rf_freq_5_amplitude_0.0075_rep_9_r_K_2.0.png	 K	 r	 b	 n.a.	 4.062383e-01
8	 4	 4	 flanked	 rf	 4	 0.113300	 2.000000	 flanked_rf_freq_4_amplitude_0.1133_rep_9_r_H_2.0.png	 H	 r	 t	 n.a.	 3.457583e-01
8	 4	 5	 flanked	 rf	 12	 0.007500	 2.000000	 flanked_rf_freq_12_amplitude_0.0075_rep_4_r_K_2.0.png	 K	 r	 r	 n.a.	 4.370426e-01
8	 4	 6	 flanked	 rf	 8	 0.113300	 2.000000	 flanked_rf_freq_8_amplitude_0.1133_rep_6_t_H_2.0.png	 H	 t	 t	 n.a.	 3.172099e-01
8	 4	 7	 flanked	 rf	 12	 0.007500	 2.000000	 flanked_rf_freq_12_amplitude_0.0075_rep_5_l_D_2.0.png	 D	 l	 l	 n.a.	 4.409609e-01
8	 4	 8	 flanked	 rf	 8	 0.216700	 2.000000	 flanked_rf_freq_8_amplitude_0.2167_rep_7_b_K_2.0.png	 K	 b	 b	 n.a.	 3.542509e-01
8	 4	 9	 flanked	 rf	 5	 0.010000	 2.000000	 flanked_rf_freq_5_amplitude_0.01_rep_7_r_H_2.0.png	 H	 r	 r	 n.a.	 4.796412e-01
8	 4	 10	 flanked	 rf	 12	 0.010000	 2.000000	 flanked_rf_freq_12_amplitude_0.01_rep_1_l_D_2.0.png	 D	 l	 t	 n.a.	 4.879153e-01
8	 4	 11	 flanked	 rf	 4	 0.061700	 2.000000	 flanked_rf_freq_4_amplitude_0.0617_rep_0_r_H_2.0.png	 H	 r	 b	 n.a.	 2.601862e-01
8	 4	 12	 flanked	 rf	 4	 0.165000	 2.000000	 flanked_rf_freq_4_amplitude_0.165_rep_5_b_K_2.0.png	 K	 b	 b	 n.a.	 3.172989e-01
8	 4	 13	 flanked	 rf	 5	 0.216700	 2.000000	 flanked_rf_freq_5_amplitude_0.2167_rep_5_r_H_2.0.png	 H	 r	 r	 n.a.	 2.487972e-01
8	 4	 14	 flanked	 rf	 4	 0.113300	 2.000000	 flanked_rf_freq_4_amplitude_0.1133_rep_1_r_H_2.0.png	 H	 r	 r	 n.a.	 2.841466e-01
8	 4	 15	 flanked	 rf	 2	 0.268300	 2.000000	 flanked_rf_freq_2_amplitude_0.2683_rep_5_b_H_2.0.png	 H	 b	 b	 n.a.	 4.134297e-01
8	 4	 16	 flanked	 rf	 3	 0.216700	 2.000000	 flanked_rf_freq_3_amplitude_0.2167_rep_0_l_D_2.0.png	 D	 l	 l	 n.a.	 2.660388e-01
8	 4	 17	 flanked	 rf	 2	 0.007500	 2.000000	 flanked_rf_freq_2_amplitude_0.0075_rep_7_l_H_2.0.png	 H	 l	 b	 n.a.	 4.736002e-01
8	 4	 18	 flanked	 rf	 2	 0.061700	 2.000000	 flanked_rf_freq_2_amplitude_0.0617_rep_8_b_K_2.0.png	 K	 b	 l	 n.a.	 5.338397e-01
8	 4	 19	 flanked	 rf	 8	 0.010000	 2.000000	 flanked_rf_freq_8_amplitude_0.01_rep_8_t_K_2.0.png	 K	 t	 r	 n.a.	 2.642635e-01
8	 4	 20	 flanked	 rf	 2	 0.113300	 2.000000	 flanked_rf_freq_2_amplitude_0.1133_rep_8_r_N_2.0.png	 N	 r	 t	 n.a.	 3.020525e-01
8	 4	 21	 flanked	 rf	 12	 0.113300	 2.000000	 flanked_rf_freq_12_amplitude_0.1133_rep_3_b_H_2.0.png	 H	 b	 b	 n.a.	 2.531405e-01
8	 4	 22	 flanked	 rf	 4	 0.165000	 2.000000	 flanked_rf_freq_4_amplitude_0.165_rep_3_r_H_2.0.png	 H	 r	 r	 n.a.	 2.251421e-01
8	 4	 23	 flanked	 rf	 12	 0.061700	 2.000000	 flanked_rf_freq_12_amplitude_0.0617_rep_3_t_N_2.0.png	 N	 t	 b	 n.a.	 4.393740e-01
8	 4	 24	 flanked	 rf	 3	 0.061700	 2.000000	 flanked_rf_freq_3_amplitude_0.0617_rep_7_l_K_2.0.png	 K	 l	 l	 n.a.	 4.056252e-01
8	 4	 25	 flanked	 rf	 2	 0.268300	 2.000000	 flanked_rf_freq_2_amplitude_0.2683_rep_7_r_N_2.0.png	 N	 r	 r	 n.a.	 2.870559e-01
8	 4	 26	 flanked	 rf	 8	 0.010000	 2.000000	 flanked_rf_freq_8_amplitude_0.01_rep_5_b_N_2.0.png	 N	 b	 r	 n.a.	 3.058026e-01
8	 4	 27	 flanked	 rf	 3	 0.268300	 2.000000	 flanked_rf_freq_3_amplitude_0.2683_rep_5_b_K_2.0.png	 K	 b	 b	 n.a.	 2.744921e-01
8	 4	 28	 flanked	 rf	 5	 0.113300	 2.000000	 flanked_rf_freq_5_amplitude_0.1133_rep_0_t_K_2.0.png	 K	 t	 t	 n.a.	 3.359179e-01
8	 4	 29	 flanked	 rf	 4	 0.113300	 2.000000	 flanked_rf_freq_4_amplitude_0.1133_rep_0_b_D_2.0.png	 D	 b	 b	 n.a.	 4.139565e-01
8	 4	 30	 flanked	 rf	 5	 0.268300	 2.000000	 flanked_rf_freq_5_amplitude_0.2683_rep_4_t_N_2.0.png	 N	 t	 t	 n.a.	 3.273920e-01
8	 4	 31	 flanked	 rf	 12	 0.007500	 2.000000	 flanked_rf_freq_12_amplitude_0.0075_rep_2_b_H_2.0.png	 H	 b	 l	 n.a.	 4.131608e-01
8	 4	 32	 flanked	 rf	 2	 0.007500	 2.000000	 flanked_rf_freq_2_amplitude_0.0075_rep_9_l_H_2.0.png	 H	 l	 r	 n.a.	 1.960954e-01
8	 4	 33	 flanked	 rf	 3	 0.268300	 2.000000	 flanked_rf_freq_3_amplitude_0.2683_rep_0_b_K_2.0.png	 K	 b	 b	 n.a.	 2.163657e-01
8	 4	 34	 flanked	 rf	 4	 0.216700	 2.000000	 flanked_rf_freq_4_amplitude_0.2167_rep_3_l_H_2.0.png	 H	 l	 t	 n.a.	 1.382298e-01
8	 4	 35	 flanked	 rf	 3	 0.113300	 2.000000	 flanked_rf_freq_3_amplitude_0.1133_rep_7_r_D_2.0.png	 D	 r	 r	 n.a.	 4.882294e-01
8	 4	 36	 flanked	 rf	 2	 0.010000	 2.000000	 flanked_rf_freq_2_amplitude_0.01_rep_2_r_N_2.0.png	 N	 r	 b	 n.a.	 2.807410e-01
8	 4	 37	 flanked	 rf	 5	 0.007500	 2.000000	 flanked_rf_freq_5_amplitude_0.0075_rep_1_r_D_2.0.png	 D	 r	 l	 n.a.	 2.924516e-01
8	 4	 38	 flanked	 rf	 8	 0.268300	 2.000000	 flanked_rf_freq_8_amplitude_0.2683_rep_9_t_H_2.0.png	 H	 t	 t	 n.a.	 2.522399e-01
8	 4	 39	 flanked	 rf	 12	 0.113300	 2.000000	 flanked_rf_freq_12_amplitude_0.1133_rep_9_b_K_2.0.png	 K	 b	 b	 n.a.	 2.377184e-01
8	 4	 40	 flanked	 rf	 4	 0.010000	 2.000000	 flanked_rf_freq_4_amplitude_0.01_rep_2_b_H_2.0.png	 H	 b	 l	 n.a.	 3.564704e-01
8	 4	 41	 flanked	 rf	 4	 0.010000	 2.000000	 flanked_rf_freq_4_amplitude_0.01_rep_3_t_K_2.0.png	 K	 t	 b	 n.a.	 3.828373e-01
8	 4	 42	 flanked	 rf	 3	 0.061700	 2.000000	 flanked_rf_freq_3_amplitude_0.0617_rep_2_t_K_2.0.png	 K	 t	 t	 n.a.	 2.772295e-01
8	 4	 43	 flanked	 rf	 12	 0.113300	 2.000000	 flanked_rf_freq_12_amplitude_0.1133_rep_5_r_D_2.0.png	 D	 r	 r	 n.a.	 2.145037e-01
8	 4	 44	 flanked	 rf	 3	 0.216700	 2.000000	 flanked_rf_freq_3_amplitude_0.2167_rep_9_b_D_2.0.png	 D	 b	 b	 n.a.	 5.500120e-01
8	 4	 45	 flanked	 rf	 3	 0.165000	 2.000000	 flanked_rf_freq_3_amplitude_0.165_rep_1_l_N_2.0.png	 N	 l	 l	 n.a.	 4.131148e-01
8	 4	 46	 flanked	 rf	 5	 0.216700	 2.000000	 flanked_rf_freq_5_amplitude_0.2167_rep_6_t_K_2.0.png	 K	 t	 t	 n.a.	 3.060605e-01
8	 4	 47	 flanked	 rf	 5	 0.165000	 2.000000	 flanked_rf_freq_5_amplitude_0.165_rep_8_l_K_2.0.png	 K	 l	 l	 n.a.	 3.112037e-01
8	 4	 48	 flanked	 rf	 3	 0.268300	 2.000000	 flanked_rf_freq_3_amplitude_0.2683_rep_3_l_H_2.0.png	 H	 l	 l	 n.a.	 4.735330e-01
8	 4	 49	 flanked	 rf	 3	 0.268300	 2.000000	 flanked_rf_freq_3_amplitude_0.2683_rep_2_l_K_2.0.png	 K	 l	 l	 n.a.	 4.982488e-01
8	 4	 50	 flanked	 rf	 8	 0.010000	 2.000000	 flanked_rf_freq_8_amplitude_0.01_rep_7_b_D_2.0.png	 D	 b	 t	 n.a.	 3.696757e-01
8	 4	 51	 flanked	 rf	 3	 0.268300	 2.000000	 flanked_rf_freq_3_amplitude_0.2683_rep_4_t_N_2.0.png	 N	 t	 b	 n.a.	 4.120913e-01
8	 4	 52	 flanked	 rf	 3	 0.010000	 2.000000	 flanked_rf_freq_3_amplitude_0.01_rep_1_r_K_2.0.png	 K	 r	 b	 n.a.	 4.380819e-01
8	 4	 53	 flanked	 rf	 5	 0.007500	 2.000000	 flanked_rf_freq_5_amplitude_0.0075_rep_2_r_K_2.0.png	 K	 r	 r	 n.a.	 2.736613e-01
8	 4	 54	 flanked	 rf	 8	 0.268300	 2.000000	 flanked_rf_freq_8_amplitude_0.2683_rep_6_l_N_2.0.png	 N	 l	 l	 n.a.	 2.681798e-01
8	 4	 55	 flanked	 rf	 4	 0.268300	 2.000000	 flanked_rf_freq_4_amplitude_0.2683_rep_9_b_D_2.0.png	 D	 b	 b	 n.a.	 5.214835e-01
8	 4	 56	 flanked	 rf	 8	 0.216700	 2.000000	 flanked_rf_freq_8_amplitude_0.2167_rep_2_l_D_2.0.png	 D	 l	 l	 n.a.	 2.530319e-01
8	 4	 57	 flanked	 rf	 3	 0.113300	 2.000000	 flanked_rf_freq_3_amplitude_0.1133_rep_5_t_K_2.0.png	 K	 t	 t	 n.a.	 3.675192e-01
8	 4	 58	 flanked	 rf	 5	 0.010000	 2.000000	 flanked_rf_freq_5_amplitude_0.01_rep_8_r_H_2.0.png	 H	 r	 t	 n.a.	 5.270673e-01
8	 4	 59	 flanked	 rf	 12	 0.010000	 2.000000	 flanked_rf_freq_12_amplitude_0.01_rep_7_b_N_2.0.png	 N	 b	 r	 n.a.	 2.021455e-01
8	 4	 60	 flanked	 rf	 12	 0.216700	 2.000000	 flanked_rf_freq_12_amplitude_0.2167_rep_4_l_N_2.0.png	 N	 l	 l	 n.a.	 1.737523e-01
8	 4	 61	 flanked	 rf	 4	 0.113300	 2.000000	 flanked_rf_freq_4_amplitude_0.1133_rep_4_t_H_2.0.png	 H	 t	 r	 n.a.	 3.969442e-01
8	 4	 62	 flanked	 rf	 12	 0.113300	 2.000000	 flanked_rf_freq_12_amplitude_0.1133_rep_8_r_N_2.0.png	 N	 r	 r	 n.a.	 2.111441e-01
8	 4	 63	 flanked	 rf	 5	 0.113300	 2.000000	 flanked_rf_freq_5_amplitude_0.1133_rep_5_b_D_2.0.png	 D	 b	 b	 n.a.	 5.276725e-01
8	 4	 64	 flanked	 rf	 5	 0.061700	 2.000000	 flanked_rf_freq_5_amplitude_0.0617_rep_0_b_H_2.0.png	 H	 b	 t	 n.a.	 3.333282e-01
8	 4	 65	 flanked	 rf	 5	 0.061700	 2.000000	 flanked_rf_freq_5_amplitude_0.0617_rep_8_r_D_2.0.png	 D	 r	 t	 n.a.	 4.650762e-01
8	 4	 66	 flanked	 rf	 8	 0.061700	 2.000000	 flanked_rf_freq_8_amplitude_0.0617_rep_7_r_K_2.0.png	 K	 r	 r	 n.a.	 1.930039e-01
8	 4	 67	 flanked	 rf	 2	 0.216700	 2.000000	 flanked_rf_freq_2_amplitude_0.2167_rep_8_r_H_2.0.png	 H	 r	 r	 n.a.	 3.204046e-01
8	 4	 68	 flanked	 rf	 8	 0.268300	 2.000000	 flanked_rf_freq_8_amplitude_0.2683_rep_2_l_N_2.0.png	 N	 l	 l	 n.a.	 2.832493e-01
8	 4	 69	 flanked	 rf	 3	 0.216700	 2.000000	 flanked_rf_freq_3_amplitude_0.2167_rep_5_b_N_2.0.png	 N	 b	 b	 n.a.	 5.764916e-01
8	 4	 70	 flanked	 rf	 8	 0.165000	 2.000000	 flanked_rf_freq_8_amplitude_0.165_rep_6_l_H_2.0.png	 H	 l	 l	 n.a.	 2.356878e-01
8	 4	 71	 flanked	 rf	 4	 0.216700	 2.000000	 flanked_rf_freq_4_amplitude_0.2167_rep_0_r_K_2.0.png	 K	 r	 b	 n.a.	 4.446631e-01
8	 4	 72	 flanked	 rf	 12	 0.165000	 2.000000	 flanked_rf_freq_12_amplitude_0.165_rep_8_l_H_2.0.png	 H	 l	 l	 n.a.	 2.463378e-01
8	 4	 73	 flanked	 rf	 5	 0.113300	 2.000000	 flanked_rf_freq_5_amplitude_0.1133_rep_2_r_N_2.0.png	 N	 r	 t	 n.a.	 3.631494e-01
8	 4	 74	 flanked	 rf	 4	 0.268300	 2.000000	 flanked_rf_freq_4_amplitude_0.2683_rep_0_t_K_2.0.png	 K	 t	 t	 n.a.	 3.223482e-01
8	 4	 75	 flanked	 rf	 4	 0.061700	 2.000000	 flanked_rf_freq_4_amplitude_0.0617_rep_9_t_N_2.0.png	 N	 t	 l	 n.a.	 4.817159e-01
8	 4	 76	 flanked	 rf	 4	 0.061700	 2.000000	 flanked_rf_freq_4_amplitude_0.0617_rep_5_l_H_2.0.png	 H	 l	 b	 n.a.	 6.605234e-01
8	 4	 77	 flanked	 rf	 12	 0.061700	 2.000000	 flanked_rf_freq_12_amplitude_0.0617_rep_0_b_D_2.0.png	 D	 b	 b	 n.a.	 3.982945e-01
8	 4	 78	 flanked	 rf	 5	 0.010000	 2.000000	 flanked_rf_freq_5_amplitude_0.01_rep_6_t_H_2.0.png	 H	 t	 t	 n.a.	 2.494929e-01
8	 4	 79	 flanked	 rf	 3	 0.007500	 2.000000	 flanked_rf_freq_3_amplitude_0.0075_rep_1_t_H_2.0.png	 H	 t	 r	 n.a.	 3.891262e-01
8	 4	 80	 flanked	 rf	 8	 0.216700	 2.000000	 flanked_rf_freq_8_amplitude_0.2167_rep_8_b_K_2.0.png	 K	 b	 b	 n.a.	 3.196432e-01
8	 4	 81	 flanked	 rf	 5	 0.268300	 2.000000	 flanked_rf_freq_5_amplitude_0.2683_rep_3_l_K_2.0.png	 K	 l	 l	 n.a.	 2.340654e-01
8	 4	 82	 flanked	 rf	 4	 0.007500	 2.000000	 flanked_rf_freq_4_amplitude_0.0075_rep_8_b_K_2.0.png	 K	 b	 t	 n.a.	 3.415999e-01
8	 4	 83	 flanked	 rf	 2	 0.165000	 2.000000	 flanked_rf_freq_2_amplitude_0.165_rep_0_t_N_2.0.png	 N	 t	 r	 n.a.	 2.867954e-01
8	 4	 84	 flanked	 rf	 3	 0.061700	 2.000000	 flanked_rf_freq_3_amplitude_0.0617_rep_9_l_H_2.0.png	 H	 l	 l	 n.a.	 2.444784e-01
8	 4	 85	 flanked	 rf	 4	 0.007500	 2.000000	 flanked_rf_freq_4_amplitude_0.0075_rep_7_l_H_2.0.png	 H	 l	 t	 n.a.	 3.361098e-01
8	 4	 86	 flanked	 rf	 12	 0.216700	 2.000000	 flanked_rf_freq_12_amplitude_0.2167_rep_9_b_H_2.0.png	 H	 b	 b	 n.a.	 2.303942e-01
8	 4	 87	 flanked	 rf	 4	 0.216700	 2.000000	 flanked_rf_freq_4_amplitude_0.2167_rep_6_b_N_2.0.png	 N	 b	 b	 n.a.	 3.003961e-01
8	 4	 88	 flanked	 rf	 5	 0.113300	 2.000000	 flanked_rf_freq_5_amplitude_0.1133_rep_3_l_H_2.0.png	 H	 l	 l	 n.a.	 3.448900e-01
8	 4	 89	 flanked	 rf	 8	 0.165000	 2.000000	 flanked_rf_freq_8_amplitude_0.165_rep_1_b_K_2.0.png	 K	 b	 b	 n.a.	 2.711328e-01
8	 4	 90	 flanked	 rf	 8	 0.216700	 2.000000	 flanked_rf_freq_8_amplitude_0.2167_rep_6_r_K_2.0.png	 K	 r	 r	 n.a.	 1.900567e-01
8	 4	 91	 flanked	 rf	 8	 0.113300	 2.000000	 flanked_rf_freq_8_amplitude_0.1133_rep_5_b_H_2.0.png	 H	 b	 b	 n.a.	 3.318957e-01
8	 4	 92	 flanked	 rf	 12	 0.113300	 2.000000	 flanked_rf_freq_12_amplitude_0.1133_rep_6_b_D_2.0.png	 D	 b	 b	 n.a.	 3.211442e-01
8	 4	 93	 flanked	 rf	 3	 0.007500	 2.000000	 flanked_rf_freq_3_amplitude_0.0075_rep_8_t_H_2.0.png	 H	 t	 t	 n.a.	 3.862404e-01
8	 4	 94	 flanked	 rf	 8	 0.165000	 2.000000	 flanked_rf_freq_8_amplitude_0.165_rep_9_l_D_2.0.png	 D	 l	 l	 n.a.	 2.564800e-01
8	 4	 95	 flanked	 rf	 5	 0.010000	 2.000000	 flanked_rf_freq_5_amplitude_0.01_rep_4_b_N_2.0.png	 N	 b	 t	 n.a.	 4.082792e-01
8	 4	 96	 flanked	 rf	 5	 0.010000	 2.000000	 flanked_rf_freq_5_amplitude_0.01_rep_9_r_D_2.0.png	 D	 r	 b	 n.a.	 2.214436e-01
8	 4	 97	 flanked	 rf	 8	 0.007500	 2.000000	 flanked_rf_freq_8_amplitude_0.0075_rep_2_t_H_2.0.png	 H	 t	 b	 n.a.	 3.205314e-01
8	 4	 98	 flanked	 rf	 2	 0.268300	 2.000000	 flanked_rf_freq_2_amplitude_0.2683_rep_2_b_N_2.0.png	 N	 b	 b	 n.a.	 6.041624e-01
8	 4	 99	 flanked	 rf	 4	 0.216700	 2.000000	 flanked_rf_freq_4_amplitude_0.2167_rep_5_t_D_2.0.png	 D	 t	 l	 n.a.	 4.967197e-01
8	 4	 100	 flanked	 rf	 2	 0.165000	 2.000000	 flanked_rf_freq_2_amplitude_0.165_rep_2_b_D_2.0.png	 D	 b	 t	 n.a.	 3.150345e-01
8	 4	 101	 flanked	 rf	 5	 0.010000	 2.000000	 flanked_rf_freq_5_amplitude_0.01_rep_3_t_D_2.0.png	 D	 t	 r	 n.a.	 2.853697e-01
8	 4	 102	 flanked	 rf	 2	 0.061700	 2.000000	 flanked_rf_freq_2_amplitude_0.0617_rep_7_l_N_2.0.png	 N	 l	 b	 n.a.	 2.116951e-01
8	 4	 103	 flanked	 rf	 8	 0.113300	 2.000000	 flanked_rf_freq_8_amplitude_0.1133_rep_9_r_H_2.0.png	 H	 r	 r	 n.a.	 3.214892e-01
8	 4	 104	 flanked	 rf	 3	 0.216700	 2.000000	 flanked_rf_freq_3_amplitude_0.2167_rep_2_r_D_2.0.png	 D	 r	 r	 n.a.	 3.339911e-01
8	 4	 105	 flanked	 rf	 4	 0.268300	 2.000000	 flanked_rf_freq_4_amplitude_0.2683_rep_3_l_N_2.0.png	 N	 l	 l	 n.a.	 2.935403e-01
8	 4	 106	 flanked	 rf	 4	 0.010000	 2.000000	 flanked_rf_freq_4_amplitude_0.01_rep_4_t_D_2.0.png	 D	 t	 r	 n.a.	 4.427567e-01
8	 4	 107	 flanked	 rf	 5	 0.165000	 2.000000	 flanked_rf_freq_5_amplitude_0.165_rep_6_b_N_2.0.png	 N	 b	 b	 n.a.	 3.242884e-01
8	 4	 108	 flanked	 rf	 8	 0.061700	 2.000000	 flanked_rf_freq_8_amplitude_0.0617_rep_0_r_N_2.0.png	 N	 r	 r	 n.a.	 2.737843e-01
8	 4	 109	 flanked	 rf	 8	 0.010000	 2.000000	 flanked_rf_freq_8_amplitude_0.01_rep_4_r_H_2.0.png	 H	 r	 b	 n.a.	 4.579860e-01
8	 4	 110	 flanked	 rf	 8	 0.165000	 2.000000	 flanked_rf_freq_8_amplitude_0.165_rep_2_t_N_2.0.png	 N	 t	 t	 n.a.	 2.487191e-01
8	 4	 111	 flanked	 rf	 3	 0.061700	 2.000000	 flanked_rf_freq_3_amplitude_0.0617_rep_1_b_H_2.0.png	 H	 b	 l	 n.a.	 3.811292e-01
8	 4	 112	 flanked	 rf	 12	 0.061700	 2.000000	 flanked_rf_freq_12_amplitude_0.0617_rep_9_l_H_2.0.png	 H	 l	 b	 n.a.	 4.093011e-01
8	 4	 113	 flanked	 rf	 3	 0.010000	 2.000000	 flanked_rf_freq_3_amplitude_0.01_rep_0_t_N_2.0.png	 N	 t	 r	 n.a.	 2.373310e-01
8	 4	 114	 flanked	 rf	 8	 0.007500	 2.000000	 flanked_rf_freq_8_amplitude_0.0075_rep_6_r_N_2.0.png	 N	 r	 l	 n.a.	 2.058176e-01
8	 4	 115	 flanked	 rf	 8	 0.010000	 2.000000	 flanked_rf_freq_8_amplitude_0.01_rep_1_t_N_2.0.png	 N	 t	 b	 n.a.	 4.744592e-01
8	 4	 116	 flanked	 rf	 4	 0.007500	 2.000000	 flanked_rf_freq_4_amplitude_0.0075_rep_5_l_K_2.0.png	 K	 l	 t	 n.a.	 3.824353e-01
8	 4	 117	 flanked	 rf	 12	 0.165000	 2.000000	 flanked_rf_freq_12_amplitude_0.165_rep_1_r_H_2.0.png	 H	 r	 r	 n.a.	 2.301008e-01
8	 4	 118	 flanked	 rf	 3	 0.113300	 2.000000	 flanked_rf_freq_3_amplitude_0.1133_rep_0_b_K_2.0.png	 K	 b	 l	 n.a.	 3.396599e-01
8	 4	 119	 flanked	 rf	 3	 0.010000	 2.000000	 flanked_rf_freq_3_amplitude_0.01_rep_9_b_K_2.0.png	 K	 b	 b	 n.a.	 3.850999e-01
8	 4	 120	 flanked	 rf	 4	 0.061700	 2.000000	 flanked_rf_freq_4_amplitude_0.0617_rep_3_r_K_2.0.png	 K	 r	 t	 n.a.	 4.276666e-01
8	 4	 121	 flanked	 rf	 2	 0.061700	 2.000000	 flanked_rf_freq_2_amplitude_0.0617_rep_5_t_K_2.0.png	 K	 t	 b	 n.a.	 4.467492e-01
8	 4	 122	 flanked	 rf	 12	 0.061700	 2.000000	 flanked_rf_freq_12_amplitude_0.0617_rep_2_b_D_2.0.png	 D	 b	 l	 n.a.	 2.933718e-01
8	 4	 123	 flanked	 rf	 3	 0.216700	 2.000000	 flanked_rf_freq_3_amplitude_0.2167_rep_7_l_H_2.0.png	 H	 l	 l	 n.a.	 3.716115e-01
8	 4	 124	 flanked	 rf	 2	 0.113300	 2.000000	 flanked_rf_freq_2_amplitude_0.1133_rep_2_l_K_2.0.png	 K	 l	 b	 n.a.	 3.653505e-01
8	 4	 125	 flanked	 rf	 3	 0.061700	 2.000000	 flanked_rf_freq_3_amplitude_0.0617_rep_8_t_H_2.0.png	 H	 t	 t	 n.a.	 2.360328e-01
8	 4	 126	 flanked	 rf	 2	 0.216700	 2.000000	 flanked_rf_freq_2_amplitude_0.2167_rep_9_t_N_2.0.png	 N	 t	 l	 n.a.	 4.430691e-01
8	 4	 127	 flanked	 rf	 12	 0.010000	 2.000000	 flanked_rf_freq_12_amplitude_0.01_rep_6_b_N_2.0.png	 N	 b	 t	 n.a.	 3.522601e-01
8	 4	 128	 flanked	 rf	 5	 0.113300	 2.000000	 flanked_rf_freq_5_amplitude_0.1133_rep_4_l_K_2.0.png	 K	 l	 b	 n.a.	 3.735317e-01
8	 4	 129	 flanked	 rf	 12	 0.216700	 2.000000	 flanked_rf_freq_12_amplitude_0.2167_rep_2_b_N_2.0.png	 N	 b	 b	 n.a.	 3.325038e-01
8	 4	 130	 flanked	 rf	 3	 0.007500	 2.000000	 flanked_rf_freq_3_amplitude_0.0075_rep_7_r_D_2.0.png	 D	 r	 t	 n.a.	 3.357355e-01
8	 4	 131	 flanked	 rf	 8	 0.061700	 2.000000	 flanked_rf_freq_8_amplitude_0.0617_rep_4_l_K_2.0.png	 K	 l	 b	 n.a.	 3.906807e-01
8	 4	 132	 flanked	 rf	 3	 0.007500	 2.000000	 flanked_rf_freq_3_amplitude_0.0075_rep_6_l_H_2.0.png	 H	 l	 l	 n.a.	 2.160252e-01
8	 4	 133	 flanked	 rf	 12	 0.216700	 2.000000	 flanked_rf_freq_12_amplitude_0.2167_rep_7_r_H_2.0.png	 H	 r	 r	 n.a.	 2.459098e-01
8	 4	 134	 flanked	 rf	 5	 0.007500	 2.000000	 flanked_rf_freq_5_amplitude_0.0075_rep_3_r_N_2.0.png	 N	 r	 l	 n.a.	 4.509398e-01
8	 4	 135	 flanked	 rf	 12	 0.061700	 2.000000	 flanked_rf_freq_12_amplitude_0.0617_rep_1_r_K_2.0.png	 K	 r	 r	 n.a.	 2.379121e-01
8	 4	 136	 flanked	 rf	 8	 0.216700	 2.000000	 flanked_rf_freq_8_amplitude_0.2167_rep_9_r_D_2.0.png	 D	 r	 r	 n.a.	 2.688636e-01
8	 4	 137	 flanked	 rf	 3	 0.010000	 2.000000	 flanked_rf_freq_3_amplitude_0.01_rep_2_t_D_2.0.png	 D	 t	 t	 n.a.	 4.471535e-01
8	 4	 138	 flanked	 rf	 8	 0.061700	 2.000000	 flanked_rf_freq_8_amplitude_0.0617_rep_1_l_N_2.0.png	 N	 l	 b	 n.a.	 2.995286e-01
8	 4	 139	 flanked	 rf	 2	 0.216700	 2.000000	 flanked_rf_freq_2_amplitude_0.2167_rep_2_b_D_2.0.png	 D	 b	 b	 n.a.	 4.574253e-01
8	 4	 140	 flanked	 rf	 12	 0.216700	 2.000000	 flanked_rf_freq_12_amplitude_0.2167_rep_3_t_D_2.0.png	 D	 t	 t	 n.a.	 2.606131e-01
8	 4	 141	 flanked	 rf	 2	 0.216700	 2.000000	 flanked_rf_freq_2_amplitude_0.2167_rep_4_t_N_2.0.png	 N	 t	 b	 n.a.	 3.291437e-01
8	 4	 142	 flanked	 rf	 12	 0.268300	 2.000000	 flanked_rf_freq_12_amplitude_0.2683_rep_3_l_K_2.0.png	 K	 l	 l	 n.a.	 2.054239e-01
8	 4	 143	 flanked	 rf	 3	 0.010000	 2.000000	 flanked_rf_freq_3_amplitude_0.01_rep_7_t_H_2.0.png	 H	 t	 b	 n.a.	 3.855449e-01
8	 4	 144	 flanked	 rf	 12	 0.007500	 2.000000	 flanked_rf_freq_12_amplitude_0.0075_rep_8_l_D_2.0.png	 D	 l	 t	 n.a.	 2.895503e-01
8	 4	 145	 flanked	 rf	 4	 0.216700	 2.000000	 flanked_rf_freq_4_amplitude_0.2167_rep_4_r_D_2.0.png	 D	 r	 r	 n.a.	 2.417346e-01
8	 4	 146	 flanked	 rf	 4	 0.216700	 2.000000	 flanked_rf_freq_4_amplitude_0.2167_rep_2_t_N_2.0.png	 N	 t	 b	 n.a.	 3.975283e-01
8	 4	 147	 flanked	 rf	 2	 0.216700	 2.000000	 flanked_rf_freq_2_amplitude_0.2167_rep_0_t_N_2.0.png	 N	 t	 r	 n.a.	 1.951285e-01
8	 4	 148	 flanked	 rf	 12	 0.165000	 2.000000	 flanked_rf_freq_12_amplitude_0.165_rep_2_b_N_2.0.png	 N	 b	 b	 n.a.	 2.828807e-01
8	 4	 149	 flanked	 rf	 12	 0.061700	 2.000000	 flanked_rf_freq_12_amplitude_0.0617_rep_8_t_H_2.0.png	 H	 t	 t	 n.a.	 5.197596e-01
8	 4	 150	 flanked	 rf	 12	 0.268300	 2.000000	 flanked_rf_freq_12_amplitude_0.2683_rep_4_b_D_2.0.png	 D	 b	 b	 n.a.	 2.299160e-01
8	 4	 151	 flanked	 rf	 5	 0.216700	 2.000000	 flanked_rf_freq_5_amplitude_0.2167_rep_2_r_K_2.0.png	 K	 r	 r	 n.a.	 2.245652e-01
8	 4	 152	 flanked	 rf	 5	 0.268300	 2.000000	 flanked_rf_freq_5_amplitude_0.2683_rep_5_l_K_2.0.png	 K	 l	 l	 n.a.	 2.180263e-01
8	 4	 153	 flanked	 rf	 4	 0.268300	 2.000000	 flanked_rf_freq_4_amplitude_0.2683_rep_8_b_K_2.0.png	 K	 b	 b	 n.a.	 2.467901e-01
8	 4	 154	 flanked	 rf	 8	 0.113300	 2.000000	 flanked_rf_freq_8_amplitude_0.1133_rep_4_r_H_2.0.png	 H	 r	 r	 n.a.	 2.684832e-01
8	 4	 155	 flanked	 rf	 3	 0.061700	 2.000000	 flanked_rf_freq_3_amplitude_0.0617_rep_3_b_H_2.0.png	 H	 b	 b	 n.a.	 2.822995e-01
8	 4	 156	 flanked	 rf	 5	 0.113300	 2.000000	 flanked_rf_freq_5_amplitude_0.1133_rep_8_l_D_2.0.png	 D	 l	 l	 n.a.	 3.916479e-01
8	 4	 157	 flanked	 rf	 2	 0.165000	 2.000000	 flanked_rf_freq_2_amplitude_0.165_rep_1_r_H_2.0.png	 H	 r	 r	 n.a.	 3.211093e-01
8	 4	 158	 flanked	 rf	 4	 0.010000	 2.000000	 flanked_rf_freq_4_amplitude_0.01_rep_9_r_H_2.0.png	 H	 r	 b	 n.a.	 3.437299e-01
8	 4	 159	 flanked	 rf	 8	 0.165000	 2.000000	 flanked_rf_freq_8_amplitude_0.165_rep_7_t_D_2.0.png	 D	 t	 t	 n.a.	 2.666940e-01
8	 4	 160	 flanked	 rf	 12	 0.010000	 2.000000	 flanked_rf_freq_12_amplitude_0.01_rep_8_b_K_2.0.png	 K	 b	 b	 n.a.	 2.964584e-01
8	 4	 161	 flanked	 rf	 8	 0.007500	 2.000000	 flanked_rf_freq_8_amplitude_0.0075_rep_0_r_D_2.0.png	 D	 r	 b	 n.a.	 3.079153e-01
8	 4	 162	 flanked	 rf	 5	 0.165000	 2.000000	 flanked_rf_freq_5_amplitude_0.165_rep_2_t_D_2.0.png	 D	 t	 l	 n.a.	 4.152065e-01
8	 4	 163	 flanked	 rf	 2	 0.010000	 2.000000	 flanked_rf_freq_2_amplitude_0.01_rep_1_b_N_2.0.png	 N	 b	 t	 n.a.	 2.627201e-01
8	 4	 164	 flanked	 rf	 8	 0.010000	 2.000000	 flanked_rf_freq_8_amplitude_0.01_rep_0_t_H_2.0.png	 H	 t	 r	 n.a.	 2.492100e-01
8	 4	 165	 flanked	 rf	 2	 0.216700	 2.000000	 flanked_rf_freq_2_amplitude_0.2167_rep_3_r_N_2.0.png	 N	 r	 t	 n.a.	 2.530009e-01
8	 4	 166	 flanked	 rf	 4	 0.010000	 2.000000	 flanked_rf_freq_4_amplitude_0.01_rep_6_r_H_2.0.png	 H	 r	 l	 n.a.	 2.753520e-01
8	 4	 167	 flanked	 rf	 5	 0.216700	 2.000000	 flanked_rf_freq_5_amplitude_0.2167_rep_9_b_D_2.0.png	 D	 b	 b	 n.a.	 3.558606e-01
8	 4	 168	 flanked	 rf	 4	 0.216700	 2.000000	 flanked_rf_freq_4_amplitude_0.2167_rep_9_l_H_2.0.png	 H	 l	 l	 n.a.	 3.485086e-01
8	 4	 169	 flanked	 rf	 12	 0.165000	 2.000000	 flanked_rf_freq_12_amplitude_0.165_rep_6_l_H_2.0.png	 H	 l	 l	 n.a.	 2.572911e-01
8	 4	 170	 flanked	 rf	 5	 0.216700	 2.000000	 flanked_rf_freq_5_amplitude_0.2167_rep_8_b_N_2.0.png	 N	 b	 b	 n.a.	 3.830708e-01
8	 4	 171	 flanked	 rf	 4	 0.165000	 2.000000	 flanked_rf_freq_4_amplitude_0.165_rep_0_t_N_2.0.png	 N	 t	 t	 n.a.	 3.271074e-01
8	 4	 172	 flanked	 rf	 2	 0.268300	 2.000000	 flanked_rf_freq_2_amplitude_0.2683_rep_6_b_N_2.0.png	 N	 b	 l	 n.a.	 2.436453e-01
8	 4	 173	 flanked	 rf	 3	 0.165000	 2.000000	 flanked_rf_freq_3_amplitude_0.165_rep_2_t_D_2.0.png	 D	 t	 b	 n.a.	 3.037541e-01
8	 4	 174	 flanked	 rf	 3	 0.268300	 2.000000	 flanked_rf_freq_3_amplitude_0.2683_rep_6_r_D_2.0.png	 D	 r	 r	 n.a.	 2.002708e-01
8	 4	 175	 flanked	 rf	 12	 0.010000	 2.000000	 flanked_rf_freq_12_amplitude_0.01_rep_4_b_N_2.0.png	 N	 b	 t	 n.a.	 4.424939e-01
8	 4	 176	 flanked	 rf	 3	 0.007500	 2.000000	 flanked_rf_freq_3_amplitude_0.0075_rep_3_b_D_2.0.png	 D	 b	 l	 n.a.	 2.326855e-01
8	 4	 177	 flanked	 rf	 8	 0.010000	 2.000000	 flanked_rf_freq_8_amplitude_0.01_rep_3_t_K_2.0.png	 K	 t	 b	 n.a.	 2.823066e-01
8	 4	 178	 flanked	 rf	 2	 0.113300	 2.000000	 flanked_rf_freq_2_amplitude_0.1133_rep_5_b_K_2.0.png	 K	 b	 r	 n.a.	 3.048484e-01
8	 4	 179	 flanked	 rf	 12	 0.268300	 2.000000	 flanked_rf_freq_12_amplitude_0.2683_rep_6_l_K_2.0.png	 K	 l	 l	 n.a.	 2.085795e-01
8	 4	 180	 flanked	 rf	 4	 0.007500	 2.000000	 flanked_rf_freq_4_amplitude_0.0075_rep_9_l_K_2.0.png	 K	 l	 l	 n.a.	 3.540809e-01
8	 4	 181	 flanked	 rf	 2	 0.216700	 2.000000	 flanked_rf_freq_2_amplitude_0.2167_rep_5_l_H_2.0.png	 H	 l	 l	 n.a.	 4.434500e-01
8	 4	 182	 flanked	 rf	 8	 0.113300	 2.000000	 flanked_rf_freq_8_amplitude_0.1133_rep_7_r_D_2.0.png	 D	 r	 r	 n.a.	 2.510812e-01
8	 4	 183	 flanked	 rf	 8	 0.268300	 2.000000	 flanked_rf_freq_8_amplitude_0.2683_rep_5_b_D_2.0.png	 D	 b	 b	 n.a.	 2.137143e-01
8	 4	 184	 flanked	 rf	 4	 0.007500	 2.000000	 flanked_rf_freq_4_amplitude_0.0075_rep_1_t_N_2.0.png	 N	 t	 b	 n.a.	 4.321394e-01
8	 4	 185	 flanked	 rf	 2	 0.061700	 2.000000	 flanked_rf_freq_2_amplitude_0.0617_rep_3_b_N_2.0.png	 N	 b	 l	 n.a.	 3.203384e-01
8	 4	 186	 flanked	 rf	 8	 0.268300	 2.000000	 flanked_rf_freq_8_amplitude_0.2683_rep_8_b_H_2.0.png	 H	 b	 b	 n.a.	 2.580392e-01
8	 4	 187	 flanked	 rf	 5	 0.010000	 2.000000	 flanked_rf_freq_5_amplitude_0.01_rep_2_b_N_2.0.png	 N	 b	 t	 n.a.	 4.231520e-01
8	 4	 188	 flanked	 rf	 3	 0.216700	 2.000000	 flanked_rf_freq_3_amplitude_0.2167_rep_3_t_N_2.0.png	 N	 t	 b	 n.a.	 2.755823e-01
8	 4	 189	 flanked	 rf	 5	 0.010000	 2.000000	 flanked_rf_freq_5_amplitude_0.01_rep_5_r_D_2.0.png	 D	 r	 b	 n.a.	 2.603543e-01
8	 4	 190	 flanked	 rf	 4	 0.061700	 2.000000	 flanked_rf_freq_4_amplitude_0.0617_rep_7_b_K_2.0.png	 K	 b	 l	 n.a.	 3.543016e-01
8	 4	 191	 flanked	 rf	 12	 0.113300	 2.000000	 flanked_rf_freq_12_amplitude_0.1133_rep_4_t_N_2.0.png	 N	 t	 t	 n.a.	 1.941676e-01
8	 4	 192	 flanked	 rf	 2	 0.268300	 2.000000	 flanked_rf_freq_2_amplitude_0.2683_rep_1_r_H_2.0.png	 H	 r	 r	 n.a.	 4.920071e-01
8	 4	 193	 flanked	 rf	 4	 0.165000	 2.000000	 flanked_rf_freq_4_amplitude_0.165_rep_8_r_H_2.0.png	 H	 r	 r	 n.a.	 3.360498e-01
8	 4	 194	 flanked	 rf	 4	 0.165000	 2.000000	 flanked_rf_freq_4_amplitude_0.165_rep_1_l_N_2.0.png	 N	 l	 l	 n.a.	 2.519201e-01
8	 4	 195	 flanked	 rf	 12	 0.216700	 2.000000	 flanked_rf_freq_12_amplitude_0.2167_rep_6_t_K_2.0.png	 K	 t	 t	 n.a.	 2.512915e-01
8	 4	 196	 flanked	 rf	 5	 0.268300	 2.000000	 flanked_rf_freq_5_amplitude_0.2683_rep_9_t_H_2.0.png	 H	 t	 t	 n.a.	 3.208346e-01
8	 4	 197	 flanked	 rf	 4	 0.061700	 2.000000	 flanked_rf_freq_4_amplitude_0.0617_rep_4_b_D_2.0.png	 D	 b	 t	 n.a.	 5.015360e-01
8	 4	 198	 flanked	 rf	 2	 0.007500	 2.000000	 flanked_rf_freq_2_amplitude_0.0075_rep_5_b_D_2.0.png	 D	 b	 t	 n.a.	 3.416594e-01
8	 4	 199	 flanked	 rf	 5	 0.268300	 2.000000	 flanked_rf_freq_5_amplitude_0.2683_rep_6_b_N_2.0.png	 N	 b	 b	 n.a.	 5.575455e-01
8	 4	 200	 flanked	 rf	 2	 0.216700	 2.000000	 flanked_rf_freq_2_amplitude_0.2167_rep_6_l_K_2.0.png	 K	 l	 l	 n.a.	 6.971080e-01
8	 4	 201	 flanked	 rf	 12	 0.007500	 2.000000	 flanked_rf_freq_12_amplitude_0.0075_rep_9_t_K_2.0.png	 K	 t	 t	 n.a.	 5.278860e-01
8	 4	 202	 flanked	 rf	 5	 0.165000	 2.000000	 flanked_rf_freq_5_amplitude_0.165_rep_9_b_H_2.0.png	 H	 b	 t	 n.a.	 7.058089e-01
8	 4	 203	 flanked	 rf	 4	 0.007500	 2.000000	 flanked_rf_freq_4_amplitude_0.0075_rep_4_l_N_2.0.png	 N	 l	 b	 n.a.	 4.626685e-01
8	 4	 204	 flanked	 rf	 5	 0.113300	 2.000000	 flanked_rf_freq_5_amplitude_0.1133_rep_6_l_D_2.0.png	 D	 l	 r	 n.a.	 4.651340e-01
8	 4	 205	 flanked	 rf	 2	 0.061700	 2.000000	 flanked_rf_freq_2_amplitude_0.0617_rep_1_r_D_2.0.png	 D	 r	 t	 n.a.	 3.885992e-01
8	 4	 206	 flanked	 rf	 3	 0.165000	 2.000000	 flanked_rf_freq_3_amplitude_0.165_rep_3_l_N_2.0.png	 N	 l	 l	 n.a.	 3.813040e-01
8	 4	 207	 flanked	 rf	 12	 0.061700	 2.000000	 flanked_rf_freq_12_amplitude_0.0617_rep_4_l_N_2.0.png	 N	 l	 l	 n.a.	 4.250866e-01
8	 4	 208	 flanked	 rf	 8	 0.165000	 2.000000	 flanked_rf_freq_8_amplitude_0.165_rep_0_b_H_2.0.png	 H	 b	 b	 n.a.	 3.003916e-01
8	 4	 209	 flanked	 rf	 4	 0.216700	 2.000000	 flanked_rf_freq_4_amplitude_0.2167_rep_8_b_H_2.0.png	 H	 b	 b	 n.a.	 4.395110e-01
8	 4	 210	 flanked	 rf	 3	 0.165000	 2.000000	 flanked_rf_freq_3_amplitude_0.165_rep_4_r_K_2.0.png	 K	 r	 r	 n.a.	 2.826588e-01
8	 4	 211	 flanked	 rf	 8	 0.007500	 2.000000	 flanked_rf_freq_8_amplitude_0.0075_rep_7_b_H_2.0.png	 H	 b	 t	 n.a.	 6.703333e-01
8	 4	 212	 flanked	 rf	 3	 0.165000	 2.000000	 flanked_rf_freq_3_amplitude_0.165_rep_8_b_H_2.0.png	 H	 b	 b	 n.a.	 6.708787e-01
8	 4	 213	 flanked	 rf	 2	 0.113300	 2.000000	 flanked_rf_freq_2_amplitude_0.1133_rep_4_b_D_2.0.png	 D	 b	 b	 n.a.	 3.697362e-01
8	 4	 214	 flanked	 rf	 2	 0.268300	 2.000000	 flanked_rf_freq_2_amplitude_0.2683_rep_9_b_H_2.0.png	 H	 b	 r	 n.a.	 5.363854e-01
8	 4	 215	 flanked	 rf	 4	 0.061700	 2.000000	 flanked_rf_freq_4_amplitude_0.0617_rep_8_l_D_2.0.png	 D	 l	 t	 n.a.	 3.007083e-01
8	 4	 216	 flanked	 rf	 3	 0.216700	 2.000000	 flanked_rf_freq_3_amplitude_0.2167_rep_1_r_D_2.0.png	 D	 r	 r	 n.a.	 3.227174e-01
8	 4	 217	 flanked	 rf	 12	 0.165000	 2.000000	 flanked_rf_freq_12_amplitude_0.165_rep_0_l_H_2.0.png	 H	 l	 l	 n.a.	 2.371999e-01
8	 4	 218	 flanked	 rf	 8	 0.216700	 2.000000	 flanked_rf_freq_8_amplitude_0.2167_rep_5_l_H_2.0.png	 H	 l	 l	 n.a.	 2.904013e-01
8	 4	 219	 flanked	 rf	 2	 0.010000	 2.000000	 flanked_rf_freq_2_amplitude_0.01_rep_0_t_D_2.0.png	 D	 t	 b	 n.a.	 3.734537e-01
8	 4	 220	 flanked	 rf	 3	 0.113300	 2.000000	 flanked_rf_freq_3_amplitude_0.1133_rep_2_l_K_2.0.png	 K	 l	 t	 n.a.	 2.974028e-01
8	 4	 221	 flanked	 rf	 4	 0.165000	 2.000000	 flanked_rf_freq_4_amplitude_0.165_rep_6_r_K_2.0.png	 K	 r	 r	 n.a.	 2.385860e-01
8	 4	 222	 flanked	 rf	 2	 0.268300	 2.000000	 flanked_rf_freq_2_amplitude_0.2683_rep_8_l_H_2.0.png	 H	 l	 l	 n.a.	 3.103961e-01
8	 4	 223	 flanked	 rf	 2	 0.010000	 2.000000	 flanked_rf_freq_2_amplitude_0.01_rep_6_b_D_2.0.png	 D	 b	 b	 n.a.	 3.614263e-01
8	 4	 224	 flanked	 rf	 2	 0.165000	 2.000000	 flanked_rf_freq_2_amplitude_0.165_rep_9_l_N_2.0.png	 N	 l	 r	 n.a.	 4.427869e-01
8	 4	 225	 flanked	 rf	 5	 0.268300	 2.000000	 flanked_rf_freq_5_amplitude_0.2683_rep_7_r_K_2.0.png	 K	 r	 r	 n.a.	 2.348416e-01
8	 4	 226	 flanked	 rf	 12	 0.268300	 2.000000	 flanked_rf_freq_12_amplitude_0.2683_rep_7_l_H_2.0.png	 H	 l	 l	 n.a.	 2.504760e-01
8	 4	 227	 flanked	 rf	 4	 0.061700	 2.000000	 flanked_rf_freq_4_amplitude_0.0617_rep_1_r_K_2.0.png	 K	 r	 r	 n.a.	 3.904118e-01
8	 4	 228	 flanked	 rf	 2	 0.268300	 2.000000	 flanked_rf_freq_2_amplitude_0.2683_rep_0_l_H_2.0.png	 H	 l	 l	 n.a.	 2.873003e-01
8	 4	 229	 flanked	 rf	 5	 0.007500	 2.000000	 flanked_rf_freq_5_amplitude_0.0075_rep_8_t_N_2.0.png	 N	 t	 t	 n.a.	 3.542878e-01
8	 4	 230	 flanked	 rf	 2	 0.010000	 2.000000	 flanked_rf_freq_2_amplitude_0.01_rep_8_t_H_2.0.png	 H	 t	 t	 n.a.	 4.039344e-01
8	 4	 231	 flanked	 rf	 2	 0.268300	 2.000000	 flanked_rf_freq_2_amplitude_0.2683_rep_3_r_N_2.0.png	 N	 r	 r	 n.a.	 6.174136e-01
8	 4	 232	 flanked	 rf	 8	 0.010000	 2.000000	 flanked_rf_freq_8_amplitude_0.01_rep_9_b_K_2.0.png	 K	 b	 b	 n.a.	 4.651476e-01
8	 4	 233	 flanked	 rf	 8	 0.010000	 2.000000	 flanked_rf_freq_8_amplitude_0.01_rep_6_l_N_2.0.png	 N	 l	 t	 n.a.	 2.688302e-01
8	 4	 234	 flanked	 rf	 12	 0.010000	 2.000000	 flanked_rf_freq_12_amplitude_0.01_rep_5_t_H_2.0.png	 H	 t	 l	 n.a.	 3.075780e-01
8	 4	 235	 flanked	 rf	 5	 0.007500	 2.000000	 flanked_rf_freq_5_amplitude_0.0075_rep_5_b_D_2.0.png	 D	 b	 r	 n.a.	 3.762891e-01
8	 4	 236	 flanked	 rf	 4	 0.165000	 2.000000	 flanked_rf_freq_4_amplitude_0.165_rep_2_t_N_2.0.png	 N	 t	 b	 n.a.	 4.127226e-01
8	 4	 237	 flanked	 rf	 5	 0.113300	 2.000000	 flanked_rf_freq_5_amplitude_0.1133_rep_9_r_N_2.0.png	 N	 r	 t	 n.a.	 2.700771e-01
8	 4	 238	 flanked	 rf	 5	 0.007500	 2.000000	 flanked_rf_freq_5_amplitude_0.0075_rep_6_b_N_2.0.png	 N	 b	 l	 n.a.	 4.040900e-01
8	 4	 239	 flanked	 rf	 3	 0.007500	 2.000000	 flanked_rf_freq_3_amplitude_0.0075_rep_2_r_D_2.0.png	 D	 r	 b	 n.a.	 4.983483e-01
8	 4	 240	 flanked	 rf	 2	 0.007500	 2.000000	 flanked_rf_freq_2_amplitude_0.0075_rep_3_t_H_2.0.png	 H	 t	 t	 n.a.	 4.000169e-01
8	 4	 241	 flanked	 rf	 3	 0.061700	 2.000000	 flanked_rf_freq_3_amplitude_0.0617_rep_0_b_D_2.0.png	 D	 b	 r	 n.a.	 5.200366e-01
8	 4	 242	 flanked	 rf	 12	 0.216700	 2.000000	 flanked_rf_freq_12_amplitude_0.2167_rep_1_l_N_2.0.png	 N	 l	 l	 n.a.	 2.715364e-01
8	 4	 243	 flanked	 rf	 8	 0.113300	 2.000000	 flanked_rf_freq_8_amplitude_0.1133_rep_1_t_N_2.0.png	 N	 t	 b	 n.a.	 4.844989e-01
8	 4	 244	 flanked	 rf	 5	 0.061700	 2.000000	 flanked_rf_freq_5_amplitude_0.0617_rep_1_t_K_2.0.png	 K	 t	 t	 n.a.	 3.638723e-01
8	 4	 245	 flanked	 rf	 5	 0.165000	 2.000000	 flanked_rf_freq_5_amplitude_0.165_rep_0_r_D_2.0.png	 D	 r	 r	 n.a.	 2.673159e-01
8	 4	 246	 flanked	 rf	 3	 0.216700	 2.000000	 flanked_rf_freq_3_amplitude_0.2167_rep_6_b_D_2.0.png	 D	 b	 r	 n.a.	 3.157144e-01
8	 4	 247	 flanked	 rf	 5	 0.010000	 2.000000	 flanked_rf_freq_5_amplitude_0.01_rep_1_r_K_2.0.png	 K	 r	 b	 n.a.	 2.326264e-01
8	 4	 248	 flanked	 rf	 5	 0.216700	 2.000000	 flanked_rf_freq_5_amplitude_0.2167_rep_0_t_K_2.0.png	 K	 t	 t	 n.a.	 2.633265e-01
8	 4	 249	 flanked	 rf	 2	 0.010000	 2.000000	 flanked_rf_freq_2_amplitude_0.01_rep_4_b_K_2.0.png	 K	 b	 t	 n.a.	 4.941429e-01
8	 4	 250	 flanked	 rf	 4	 0.010000	 2.000000	 flanked_rf_freq_4_amplitude_0.01_rep_1_r_H_2.0.png	 H	 r	 b	 n.a.	 4.683734e-01
8	 4	 251	 flanked	 rf	 4	 0.268300	 2.000000	 flanked_rf_freq_4_amplitude_0.2683_rep_4_b_H_2.0.png	 H	 b	 l	 n.a.	 2.282028e-01
8	 4	 252	 flanked	 rf	 8	 0.061700	 2.000000	 flanked_rf_freq_8_amplitude_0.0617_rep_9_b_K_2.0.png	 K	 b	 b	 n.a.	 5.233830e-01
8	 4	 253	 flanked	 rf	 12	 0.165000	 2.000000	 flanked_rf_freq_12_amplitude_0.165_rep_9_b_H_2.0.png	 H	 b	 b	 n.a.	 3.896051e-01
8	 4	 254	 flanked	 rf	 4	 0.165000	 2.000000	 flanked_rf_freq_4_amplitude_0.165_rep_9_b_D_2.0.png	 D	 b	 t	 n.a.	 3.807306e-01
8	 4	 255	 flanked	 rf	 8	 0.216700	 2.000000	 flanked_rf_freq_8_amplitude_0.2167_rep_1_b_D_2.0.png	 D	 b	 b	 n.a.	 3.280849e-01
8	 4	 256	 flanked	 rf	 4	 0.010000	 2.000000	 flanked_rf_freq_4_amplitude_0.01_rep_0_l_D_2.0.png	 D	 l	 b	 n.a.	 4.864104e-01
8	 4	 257	 flanked	 rf	 4	 0.216700	 2.000000	 flanked_rf_freq_4_amplitude_0.2167_rep_7_b_K_2.0.png	 K	 b	 b	 n.a.	 3.438369e-01
8	 4	 258	 flanked	 rf	 8	 0.268300	 2.000000	 flanked_rf_freq_8_amplitude_0.2683_rep_0_b_D_2.0.png	 D	 b	 b	 n.a.	 3.925256e-01
8	 4	 259	 flanked	 rf	 2	 0.216700	 2.000000	 flanked_rf_freq_2_amplitude_0.2167_rep_1_r_K_2.0.png	 K	 r	 t	 n.a.	 5.767504e-01
8	 4	 260	 flanked	 rf	 12	 0.007500	 2.000000	 flanked_rf_freq_12_amplitude_0.0075_rep_1_r_D_2.0.png	 D	 r	 b	 n.a.	 4.525847e-01
8	 4	 261	 flanked	 rf	 12	 0.165000	 2.000000	 flanked_rf_freq_12_amplitude_0.165_rep_7_l_H_2.0.png	 H	 l	 l	 n.a.	 2.687652e-01
8	 4	 262	 flanked	 rf	 8	 0.113300	 2.000000	 flanked_rf_freq_8_amplitude_0.1133_rep_8_r_K_2.0.png	 K	 r	 r	 n.a.	 2.351099e-01
8	 4	 263	 flanked	 rf	 4	 0.216700	 2.000000	 flanked_rf_freq_4_amplitude_0.2167_rep_1_l_D_2.0.png	 D	 l	 b	 n.a.	 4.174006e-01
8	 4	 264	 flanked	 rf	 2	 0.165000	 2.000000	 flanked_rf_freq_2_amplitude_0.165_rep_5_b_H_2.0.png	 H	 b	 b	 n.a.	 4.926771e-01
8	 4	 265	 flanked	 rf	 8	 0.165000	 2.000000	 flanked_rf_freq_8_amplitude_0.165_rep_3_l_K_2.0.png	 K	 l	 l	 n.a.	 2.246963e-01
8	 4	 266	 flanked	 rf	 5	 0.113300	 2.000000	 flanked_rf_freq_5_amplitude_0.1133_rep_1_b_N_2.0.png	 N	 b	 t	 n.a.	 3.140898e-01
8	 4	 267	 flanked	 rf	 8	 0.216700	 2.000000	 flanked_rf_freq_8_amplitude_0.2167_rep_4_l_N_2.0.png	 N	 l	 l	 n.a.	 2.170871e-01
8	 4	 268	 flanked	 rf	 4	 0.113300	 2.000000	 flanked_rf_freq_4_amplitude_0.1133_rep_7_b_D_2.0.png	 D	 b	 r	 n.a.	 2.782788e-01
8	 4	 269	 flanked	 rf	 4	 0.165000	 2.000000	 flanked_rf_freq_4_amplitude_0.165_rep_4_l_H_2.0.png	 H	 l	 l	 n.a.	 3.308498e-01
8	 4	 270	 flanked	 rf	 3	 0.007500	 2.000000	 flanked_rf_freq_3_amplitude_0.0075_rep_5_b_H_2.0.png	 H	 b	 b	 n.a.	 3.364112e-01
8	 4	 271	 flanked	 rf	 8	 0.007500	 2.000000	 flanked_rf_freq_8_amplitude_0.0075_rep_3_r_K_2.0.png	 K	 r	 r	 n.a.	 3.503772e-01
8	 4	 272	 flanked	 rf	 3	 0.268300	 2.000000	 flanked_rf_freq_3_amplitude_0.2683_rep_7_b_N_2.0.png	 N	 b	 t	 n.a.	 5.441657e-01
8	 4	 273	 flanked	 rf	 8	 0.007500	 2.000000	 flanked_rf_freq_8_amplitude_0.0075_rep_5_b_H_2.0.png	 H	 b	 r	 n.a.	 3.697733e-01
8	 4	 274	 flanked	 rf	 12	 0.216700	 2.000000	 flanked_rf_freq_12_amplitude_0.2167_rep_0_t_K_2.0.png	 K	 t	 t	 n.a.	 3.280616e-01
8	 4	 275	 flanked	 rf	 3	 0.165000	 2.000000	 flanked_rf_freq_3_amplitude_0.165_rep_6_l_D_2.0.png	 D	 l	 l	 n.a.	 2.662875e-01
8	 4	 276	 flanked	 rf	 12	 0.165000	 2.000000	 flanked_rf_freq_12_amplitude_0.165_rep_5_l_K_2.0.png	 K	 l	 l	 n.a.	 2.266600e-01
8	 4	 277	 flanked	 rf	 4	 0.113300	 2.000000	 flanked_rf_freq_4_amplitude_0.1133_rep_6_l_D_2.0.png	 D	 l	 r	 n.a.	 3.306453e-01
8	 4	 278	 flanked	 rf	 3	 0.216700	 2.000000	 flanked_rf_freq_3_amplitude_0.2167_rep_4_l_D_2.0.png	 D	 l	 l	 n.a.	 2.572384e-01
8	 4	 279	 flanked	 rf	 12	 0.007500	 2.000000	 flanked_rf_freq_12_amplitude_0.0075_rep_7_r_H_2.0.png	 H	 r	 t	 n.a.	 4.814888e-01
8	 4	 280	 flanked	 rf	 2	 0.165000	 2.000000	 flanked_rf_freq_2_amplitude_0.165_rep_8_l_H_2.0.png	 H	 l	 b	 n.a.	 3.981055e-01
8	 4	 281	 flanked	 rf	 12	 0.113300	 2.000000	 flanked_rf_freq_12_amplitude_0.1133_rep_0_b_N_2.0.png	 N	 b	 b	 n.a.	 4.301346e-01
8	 4	 282	 flanked	 rf	 12	 0.268300	 2.000000	 flanked_rf_freq_12_amplitude_0.2683_rep_8_l_D_2.0.png	 D	 l	 l	 n.a.	 1.744974e-01
8	 4	 283	 flanked	 rf	 3	 0.010000	 2.000000	 flanked_rf_freq_3_amplitude_0.01_rep_5_t_N_2.0.png	 N	 t	 b	 n.a.	 3.169837e-01
8	 4	 284	 flanked	 rf	 12	 0.010000	 2.000000	 flanked_rf_freq_12_amplitude_0.01_rep_3_l_K_2.0.png	 K	 l	 r	 n.a.	 3.177476e-01
8	 4	 285	 flanked	 rf	 8	 0.113300	 2.000000	 flanked_rf_freq_8_amplitude_0.1133_rep_2_r_N_2.0.png	 N	 r	 r	 n.a.	 2.601057e-01
8	 4	 286	 flanked	 rf	 5	 0.216700	 2.000000	 flanked_rf_freq_5_amplitude_0.2167_rep_1_t_H_2.0.png	 H	 t	 t	 n.a.	 3.661025e-01
8	 4	 287	 flanked	 rf	 2	 0.165000	 2.000000	 flanked_rf_freq_2_amplitude_0.165_rep_6_l_H_2.0.png	 H	 l	 l	 n.a.	 4.870749e-01
8	 4	 288	 flanked	 rf	 3	 0.010000	 2.000000	 flanked_rf_freq_3_amplitude_0.01_rep_4_r_D_2.0.png	 D	 r	 b	 n.a.	 3.693131e-01
8	 4	 289	 flanked	 rf	 2	 0.007500	 2.000000	 flanked_rf_freq_2_amplitude_0.0075_rep_2_r_H_2.0.png	 H	 r	 t	 n.a.	 4.450648e-01
8	 4	 290	 flanked	 rf	 5	 0.061700	 2.000000	 flanked_rf_freq_5_amplitude_0.0617_rep_5_b_D_2.0.png	 D	 b	 r	 n.a.	 4.093968e-01
8	 4	 291	 flanked	 rf	 4	 0.007500	 2.000000	 flanked_rf_freq_4_amplitude_0.0075_rep_2_l_N_2.0.png	 N	 l	 b	 n.a.	 3.219420e-01
8	 4	 292	 flanked	 rf	 2	 0.113300	 2.000000	 flanked_rf_freq_2_amplitude_0.1133_rep_9_l_H_2.0.png	 H	 l	 t	 n.a.	 4.236378e-01
8	 4	 293	 flanked	 rf	 4	 0.165000	 2.000000	 flanked_rf_freq_4_amplitude_0.165_rep_7_r_D_2.0.png	 D	 r	 r	 n.a.	 3.523899e-01
8	 4	 294	 flanked	 rf	 4	 0.007500	 2.000000	 flanked_rf_freq_4_amplitude_0.0075_rep_0_b_D_2.0.png	 D	 b	 b	 n.a.	 5.252497e-01
8	 4	 295	 flanked	 rf	 5	 0.165000	 2.000000	 flanked_rf_freq_5_amplitude_0.165_rep_1_r_N_2.0.png	 N	 r	 r	 n.a.	 6.566907e-01
8	 4	 296	 flanked	 rf	 3	 0.165000	 2.000000	 flanked_rf_freq_3_amplitude_0.165_rep_0_t_H_2.0.png	 H	 t	 b	 n.a.	 5.431300e-01
8	 4	 297	 flanked	 rf	 12	 0.061700	 2.000000	 flanked_rf_freq_12_amplitude_0.0617_rep_7_b_N_2.0.png	 N	 b	 t	 n.a.	 3.046994e-01
8	 4	 298	 flanked	 rf	 2	 0.010000	 2.000000	 flanked_rf_freq_2_amplitude_0.01_rep_3_b_K_2.0.png	 K	 b	 b	 n.a.	 2.425506e-01
8	 4	 299	 flanked	 rf	 8	 0.061700	 2.000000	 flanked_rf_freq_8_amplitude_0.0617_rep_2_r_K_2.0.png	 K	 r	 l	 n.a.	 4.470639e-01
8	 4	 300	 flanked	 rf	 12	 0.010000	 2.000000	 flanked_rf_freq_12_amplitude_0.01_rep_2_t_K_2.0.png	 K	 t	 b	 n.a.	 4.595085e-01
8	 4	 301	 flanked	 rf	 5	 0.216700	 2.000000	 flanked_rf_freq_5_amplitude_0.2167_rep_3_r_N_2.0.png	 N	 r	 r	 n.a.	 3.090690e-01
8	 4	 302	 flanked	 rf	 3	 0.113300	 2.000000	 flanked_rf_freq_3_amplitude_0.1133_rep_9_t_N_2.0.png	 N	 t	 t	 n.a.	 5.506139e-01
8	 4	 303	 flanked	 rf	 4	 0.010000	 2.000000	 flanked_rf_freq_4_amplitude_0.01_rep_5_l_H_2.0.png	 H	 l	 b	 n.a.	 4.358317e-01
8	 4	 304	 flanked	 rf	 3	 0.010000	 2.000000	 flanked_rf_freq_3_amplitude_0.01_rep_3_l_D_2.0.png	 D	 l	 r	 n.a.	 2.625596e-01
8	 4	 305	 flanked	 rf	 8	 0.113300	 2.000000	 flanked_rf_freq_8_amplitude_0.1133_rep_3_l_H_2.0.png	 H	 l	 l	 n.a.	 2.999054e-01
8	 4	 306	 flanked	 rf	 3	 0.113300	 2.000000	 flanked_rf_freq_3_amplitude_0.1133_rep_8_r_N_2.0.png	 N	 r	 b	 n.a.	 3.721178e-01
8	 4	 307	 flanked	 rf	 4	 0.061700	 2.000000	 flanked_rf_freq_4_amplitude_0.0617_rep_2_t_N_2.0.png	 N	 t	 t	 n.a.	 2.707857e-01
8	 4	 308	 flanked	 rf	 3	 0.113300	 2.000000	 flanked_rf_freq_3_amplitude_0.1133_rep_3_t_N_2.0.png	 N	 t	 r	 n.a.	 2.844791e-01
8	 4	 309	 flanked	 rf	 5	 0.268300	 2.000000	 flanked_rf_freq_5_amplitude_0.2683_rep_1_b_H_2.0.png	 H	 b	 b	 n.a.	 3.969306e-01
8	 4	 310	 flanked	 rf	 5	 0.165000	 2.000000	 flanked_rf_freq_5_amplitude_0.165_rep_5_t_D_2.0.png	 D	 t	 l	 n.a.	 2.926630e-01
8	 4	 311	 flanked	 rf	 2	 0.061700	 2.000000	 flanked_rf_freq_2_amplitude_0.0617_rep_9_r_K_2.0.png	 K	 r	 t	 n.a.	 2.441461e-01
8	 4	 312	 flanked	 rf	 2	 0.007500	 2.000000	 flanked_rf_freq_2_amplitude_0.0075_rep_4_l_H_2.0.png	 H	 l	 l	 n.a.	 3.667108e-01
8	 4	 313	 flanked	 rf	 8	 0.268300	 2.000000	 flanked_rf_freq_8_amplitude_0.2683_rep_3_b_K_2.0.png	 K	 b	 b	 n.a.	 2.485336e-01
8	 4	 314	 flanked	 rf	 12	 0.010000	 2.000000	 flanked_rf_freq_12_amplitude_0.01_rep_0_t_D_2.0.png	 D	 t	 r	 n.a.	 2.493948e-01
8	 4	 315	 flanked	 rf	 3	 0.007500	 2.000000	 flanked_rf_freq_3_amplitude_0.0075_rep_0_t_K_2.0.png	 K	 t	 t	 n.a.	 3.761139e-01
8	 4	 316	 flanked	 rf	 8	 0.061700	 2.000000	 flanked_rf_freq_8_amplitude_0.0617_rep_8_l_H_2.0.png	 H	 l	 b	 n.a.	 3.341554e-01
8	 4	 317	 flanked	 rf	 2	 0.007500	 2.000000	 flanked_rf_freq_2_amplitude_0.0075_rep_0_b_K_2.0.png	 K	 b	 t	 n.a.	 3.272043e-01
8	 4	 318	 flanked	 rf	 4	 0.113300	 2.000000	 flanked_rf_freq_4_amplitude_0.1133_rep_3_r_K_2.0.png	 K	 r	 b	 n.a.	 5.248488e-01
8	 4	 319	 flanked	 rf	 12	 0.216700	 2.000000	 flanked_rf_freq_12_amplitude_0.2167_rep_8_t_N_2.0.png	 N	 t	 t	 n.a.	 2.859859e-01
8	 4	 320	 flanked	 rf	 4	 0.268300	 2.000000	 flanked_rf_freq_4_amplitude_0.2683_rep_5_r_K_2.0.png	 K	 r	 r	 n.a.	 2.575377e-01
8	 4	 321	 flanked	 rf	 5	 0.061700	 2.000000	 flanked_rf_freq_5_amplitude_0.0617_rep_7_t_D_2.0.png	 D	 t	 b	 n.a.	 4.909079e-01
8	 4	 322	 flanked	 rf	 2	 0.010000	 2.000000	 flanked_rf_freq_2_amplitude_0.01_rep_5_r_H_2.0.png	 H	 r	 l	 n.a.	 2.005331e-01
8	 4	 323	 flanked	 rf	 2	 0.061700	 2.000000	 flanked_rf_freq_2_amplitude_0.0617_rep_2_t_K_2.0.png	 K	 t	 t	 n.a.	 3.572787e-01
8	 4	 324	 flanked	 rf	 4	 0.007500	 2.000000	 flanked_rf_freq_4_amplitude_0.0075_rep_6_t_K_2.0.png	 K	 t	 l	 n.a.	 3.281620e-01
8	 4	 325	 flanked	 rf	 3	 0.268300	 2.000000	 flanked_rf_freq_3_amplitude_0.2683_rep_9_r_K_2.0.png	 K	 r	 r	 n.a.	 2.589226e-01
8	 4	 326	 flanked	 rf	 12	 0.165000	 2.000000	 flanked_rf_freq_12_amplitude_0.165_rep_3_l_N_2.0.png	 N	 l	 l	 n.a.	 3.781381e-01
8	 4	 327	 flanked	 rf	 12	 0.216700	 2.000000	 flanked_rf_freq_12_amplitude_0.2167_rep_5_t_D_2.0.png	 D	 t	 t	 n.a.	 4.648856e-01
8	 4	 328	 flanked	 rf	 5	 0.007500	 2.000000	 flanked_rf_freq_5_amplitude_0.0075_rep_0_t_D_2.0.png	 D	 t	 b	 n.a.	 7.787475e-01
8	 4	 329	 flanked	 rf	 5	 0.165000	 2.000000	 flanked_rf_freq_5_amplitude_0.165_rep_7_b_N_2.0.png	 N	 b	 l	 n.a.	 8.040807e-01
8	 4	 330	 flanked	 rf	 5	 0.061700	 2.000000	 flanked_rf_freq_5_amplitude_0.0617_rep_4_l_D_2.0.png	 D	 l	 b	 n.a.	 4.017940e-01
8	 4	 331	 flanked	 rf	 2	 0.113300	 2.000000	 flanked_rf_freq_2_amplitude_0.1133_rep_3_b_K_2.0.png	 K	 b	 b	 n.a.	 4.045109e-01
8	 4	 332	 flanked	 rf	 3	 0.165000	 2.000000	 flanked_rf_freq_3_amplitude_0.165_rep_7_r_K_2.0.png	 K	 r	 r	 n.a.	 5.130988e-01
8	 4	 333	 flanked	 rf	 5	 0.010000	 2.000000	 flanked_rf_freq_5_amplitude_0.01_rep_0_l_H_2.0.png	 H	 l	 l	 n.a.	 4.538916e-01
8	 4	 334	 flanked	 rf	 5	 0.061700	 2.000000	 flanked_rf_freq_5_amplitude_0.0617_rep_3_b_N_2.0.png	 N	 b	 t	 n.a.	 3.973056e-01
8	 4	 335	 flanked	 rf	 8	 0.268300	 2.000000	 flanked_rf_freq_8_amplitude_0.2683_rep_7_l_N_2.0.png	 N	 l	 l	 n.a.	 2.171299e-01
8	 4	 336	 flanked	 rf	 2	 0.010000	 2.000000	 flanked_rf_freq_2_amplitude_0.01_rep_7_r_K_2.0.png	 K	 r	 b	 n.a.	 4.638663e-01
8	 4	 337	 flanked	 rf	 12	 0.268300	 2.000000	 flanked_rf_freq_12_amplitude_0.2683_rep_1_b_H_2.0.png	 H	 b	 b	 n.a.	 2.525123e-01
8	 4	 338	 flanked	 rf	 3	 0.061700	 2.000000	 flanked_rf_freq_3_amplitude_0.0617_rep_4_r_N_2.0.png	 N	 r	 t	 n.a.	 4.036898e-01
8	 4	 339	 flanked	 rf	 4	 0.113300	 2.000000	 flanked_rf_freq_4_amplitude_0.1133_rep_2_t_D_2.0.png	 D	 t	 b	 n.a.	 6.748986e-01
8	 4	 340	 flanked	 rf	 2	 0.113300	 2.000000	 flanked_rf_freq_2_amplitude_0.1133_rep_6_b_N_2.0.png	 N	 b	 b	 n.a.	 5.348544e-01
8	 4	 341	 flanked	 rf	 5	 0.061700	 2.000000	 flanked_rf_freq_5_amplitude_0.0617_rep_2_l_K_2.0.png	 K	 l	 t	 n.a.	 3.782373e-01
8	 4	 342	 flanked	 rf	 8	 0.216700	 2.000000	 flanked_rf_freq_8_amplitude_0.2167_rep_3_l_K_2.0.png	 K	 l	 l	 n.a.	 2.588804e-01
8	 4	 343	 flanked	 rf	 2	 0.061700	 2.000000	 flanked_rf_freq_2_amplitude_0.0617_rep_4_r_H_2.0.png	 H	 r	 b	 n.a.	 4.423428e-01
8	 4	 344	 flanked	 rf	 4	 0.010000	 2.000000	 flanked_rf_freq_4_amplitude_0.01_rep_7_l_K_2.0.png	 K	 l	 l	 n.a.	 3.854668e-01
8	 4	 345	 flanked	 rf	 2	 0.007500	 2.000000	 flanked_rf_freq_2_amplitude_0.0075_rep_1_b_K_2.0.png	 K	 b	 b	 n.a.	 3.354070e-01
8	 4	 346	 flanked	 rf	 2	 0.113300	 2.000000	 flanked_rf_freq_2_amplitude_0.1133_rep_0_l_K_2.0.png	 K	 l	 l	 n.a.	 8.028876e-01
8	 4	 347	 flanked	 rf	 3	 0.268300	 2.000000	 flanked_rf_freq_3_amplitude_0.2683_rep_8_l_H_2.0.png	 H	 l	 l	 n.a.	 4.093958e-01
8	 4	 348	 flanked	 rf	 2	 0.165000	 2.000000	 flanked_rf_freq_2_amplitude_0.165_rep_3_b_K_2.0.png	 K	 b	 b	 n.a.	 3.414131e-01
8	 4	 349	 flanked	 rf	 12	 0.061700	 2.000000	 flanked_rf_freq_12_amplitude_0.0617_rep_5_t_K_2.0.png	 K	 t	 t	 n.a.	 3.095867e-01
8	 4	 350	 flanked	 rf	 12	 0.165000	 2.000000	 flanked_rf_freq_12_amplitude_0.165_rep_4_t_N_2.0.png	 N	 t	 r	 n.a.	 9.197247e-01
8	 4	 351	 flanked	 rf	 3	 0.113300	 2.000000	 flanked_rf_freq_3_amplitude_0.1133_rep_4_t_H_2.0.png	 H	 t	 t	 n.a.	 4.051113e-01
8	 4	 352	 flanked	 rf	 12	 0.268300	 2.000000	 flanked_rf_freq_12_amplitude_0.2683_rep_0_t_N_2.0.png	 N	 t	 t	 n.a.	 2.295204e-01
8	 4	 353	 flanked	 rf	 12	 0.268300	 2.000000	 flanked_rf_freq_12_amplitude_0.2683_rep_2_b_K_2.0.png	 K	 b	 b	 n.a.	 2.890783e-01
8	 4	 354	 flanked	 rf	 5	 0.007500	 2.000000	 flanked_rf_freq_5_amplitude_0.0075_rep_4_b_D_2.0.png	 D	 b	 t	 n.a.	 3.456238e-01
8	 4	 355	 flanked	 rf	 8	 0.061700	 2.000000	 flanked_rf_freq_8_amplitude_0.0617_rep_3_b_H_2.0.png	 H	 b	 b	 n.a.	 2.907868e-01
8	 4	 356	 flanked	 rf	 4	 0.268300	 2.000000	 flanked_rf_freq_4_amplitude_0.2683_rep_1_l_D_2.0.png	 D	 l	 l	 n.a.	 3.743338e-01
8	 4	 357	 flanked	 rf	 5	 0.165000	 2.000000	 flanked_rf_freq_5_amplitude_0.165_rep_3_b_D_2.0.png	 D	 b	 t	 n.a.	 3.494949e-01
8	 4	 358	 flanked	 rf	 5	 0.061700	 2.000000	 flanked_rf_freq_5_amplitude_0.0617_rep_6_b_D_2.0.png	 D	 b	 b	 n.a.	 2.512013e-01
8	 4	 359	 flanked	 rf	 3	 0.165000	 2.000000	 flanked_rf_freq_3_amplitude_0.165_rep_5_r_H_2.0.png	 H	 r	 r	 n.a.	 3.494411e-01
8	 4	 360	 flanked	 rf	 3	 0.007500	 2.000000	 flanked_rf_freq_3_amplitude_0.0075_rep_4_t_D_2.0.png	 D	 t	 b	 n.a.	 5.325574e-01
8	 4	 361	 flanked	 rf	 4	 0.268300	 2.000000	 flanked_rf_freq_4_amplitude_0.2683_rep_2_r_D_2.0.png	 D	 r	 r	 n.a.	 2.594407e-01
8	 4	 362	 flanked	 rf	 8	 0.165000	 2.000000	 flanked_rf_freq_8_amplitude_0.165_rep_5_l_D_2.0.png	 D	 l	 l	 n.a.	 3.459919e-01
8	 4	 363	 flanked	 rf	 12	 0.268300	 2.000000	 flanked_rf_freq_12_amplitude_0.2683_rep_5_b_K_2.0.png	 K	 b	 b	 n.a.	 2.699671e-01
8	 4	 364	 flanked	 rf	 3	 0.061700	 2.000000	 flanked_rf_freq_3_amplitude_0.0617_rep_6_r_H_2.0.png	 H	 r	 r	 n.a.	 4.221327e-01
8	 4	 365	 flanked	 rf	 5	 0.216700	 2.000000	 flanked_rf_freq_5_amplitude_0.2167_rep_7_t_D_2.0.png	 D	 t	 t	 n.a.	 3.168792e-01
8	 4	 366	 flanked	 rf	 2	 0.007500	 2.000000	 flanked_rf_freq_2_amplitude_0.0075_rep_6_b_N_2.0.png	 N	 b	 t	 n.a.	 5.225832e-01
8	 4	 367	 flanked	 rf	 2	 0.061700	 2.000000	 flanked_rf_freq_2_amplitude_0.0617_rep_0_t_N_2.0.png	 N	 t	 b	 n.a.	 3.198280e-01
8	 4	 368	 flanked	 rf	 12	 0.007500	 2.000000	 flanked_rf_freq_12_amplitude_0.0075_rep_0_r_N_2.0.png	 N	 r	 r	 n.a.	 3.365944e-01
8	 4	 369	 flanked	 rf	 2	 0.268300	 2.000000	 flanked_rf_freq_2_amplitude_0.2683_rep_4_r_N_2.0.png	 N	 r	 r	 n.a.	 3.326937e-01
8	 4	 370	 flanked	 rf	 12	 0.113300	 2.000000	 flanked_rf_freq_12_amplitude_0.1133_rep_1_b_N_2.0.png	 N	 b	 l	 n.a.	 3.703061e-01
8	 4	 371	 flanked	 rf	 3	 0.216700	 2.000000	 flanked_rf_freq_3_amplitude_0.2167_rep_8_t_K_2.0.png	 K	 t	 b	 n.a.	 2.752764e-01
8	 4	 372	 flanked	 rf	 8	 0.007500	 2.000000	 flanked_rf_freq_8_amplitude_0.0075_rep_9_b_H_2.0.png	 H	 b	 t	 n.a.	 4.020781e-01
8	 4	 373	 flanked	 rf	 12	 0.113300	 2.000000	 flanked_rf_freq_12_amplitude_0.1133_rep_7_t_D_2.0.png	 D	 t	 t	 n.a.	 3.555299e-01
8	 4	 374	 flanked	 rf	 8	 0.268300	 2.000000	 flanked_rf_freq_8_amplitude_0.2683_rep_4_b_H_2.0.png	 H	 b	 r	 n.a.	 8.986404e-01
8	 4	 375	 flanked	 rf	 5	 0.216700	 2.000000	 flanked_rf_freq_5_amplitude_0.2167_rep_4_t_K_2.0.png	 K	 t	 b	 n.a.	 3.065773e-01
8	 4	 376	 flanked	 rf	 8	 0.165000	 2.000000	 flanked_rf_freq_8_amplitude_0.165_rep_8_b_H_2.0.png	 H	 b	 t	 n.a.	 2.369133e-01
8	 4	 377	 flanked	 rf	 8	 0.165000	 2.000000	 flanked_rf_freq_8_amplitude_0.165_rep_4_l_H_2.0.png	 H	 l	 l	 n.a.	 3.738844e-01
8	 4	 378	 flanked	 rf	 4	 0.113300	 2.000000	 flanked_rf_freq_4_amplitude_0.1133_rep_5_l_K_2.0.png	 K	 l	 l	 n.a.	 3.500704e-01
8	 4	 379	 flanked	 rf	 3	 0.010000	 2.000000	 flanked_rf_freq_3_amplitude_0.01_rep_8_b_H_2.0.png	 H	 b	 b	 n.a.	 4.865469e-01
8	 4	 380	 flanked	 rf	 3	 0.113300	 2.000000	 flanked_rf_freq_3_amplitude_0.1133_rep_6_t_N_2.0.png	 N	 t	 t	 n.a.	 2.928124e-01
8	 4	 381	 flanked	 rf	 12	 0.061700	 2.000000	 flanked_rf_freq_12_amplitude_0.0617_rep_6_t_N_2.0.png	 N	 t	 t	 n.a.	 4.172769e-01
8	 4	 382	 flanked	 rf	 12	 0.007500	 2.000000	 flanked_rf_freq_12_amplitude_0.0075_rep_3_b_H_2.0.png	 H	 b	 t	 n.a.	 7.113244e-01
8	 4	 383	 flanked	 rf	 2	 0.216700	 2.000000	 flanked_rf_freq_2_amplitude_0.2167_rep_7_l_K_2.0.png	 K	 l	 t	 n.a.	 6.326648e-01
8	 4	 384	 flanked	 rf	 8	 0.113300	 2.000000	 flanked_rf_freq_8_amplitude_0.1133_rep_0_l_D_2.0.png	 D	 l	 l	 n.a.	 2.869639e-01
8	 4	 385	 flanked	 rf	 4	 0.268300	 2.000000	 flanked_rf_freq_4_amplitude_0.2683_rep_7_b_D_2.0.png	 D	 b	 b	 n.a.	 3.086292e-01
8	 4	 386	 flanked	 rf	 12	 0.010000	 2.000000	 flanked_rf_freq_12_amplitude_0.01_rep_9_l_K_2.0.png	 K	 l	 t	 n.a.	 6.608288e-01
8	 4	 387	 flanked	 rf	 5	 0.165000	 2.000000	 flanked_rf_freq_5_amplitude_0.165_rep_4_l_K_2.0.png	 K	 l	 b	 n.a.	 5.177608e-01
8	 4	 388	 flanked	 rf	 2	 0.113300	 2.000000	 flanked_rf_freq_2_amplitude_0.1133_rep_1_t_K_2.0.png	 K	 t	 r	 n.a.	 2.360639e-01
8	 4	 389	 flanked	 rf	 12	 0.113300	 2.000000	 flanked_rf_freq_12_amplitude_0.1133_rep_2_l_H_2.0.png	 H	 l	 l	 n.a.	 2.117462e-01
8	 4	 390	 flanked	 rf	 5	 0.007500	 2.000000	 flanked_rf_freq_5_amplitude_0.0075_rep_7_l_H_2.0.png	 H	 l	 t	 n.a.	 3.119471e-01
8	 4	 391	 flanked	 rf	 2	 0.165000	 2.000000	 flanked_rf_freq_2_amplitude_0.165_rep_7_b_H_2.0.png	 H	 b	 b	 n.a.	 2.230140e-01
8	 4	 392	 flanked	 rf	 4	 0.010000	 2.000000	 flanked_rf_freq_4_amplitude_0.01_rep_8_b_H_2.0.png	 H	 b	 l	 n.a.	 3.409634e-01
8	 4	 393	 flanked	 rf	 4	 0.061700	 2.000000	 flanked_rf_freq_4_amplitude_0.0617_rep_6_b_N_2.0.png	 N	 b	 r	 n.a.	 2.980018e-01
8	 4	 394	 flanked	 rf	 2	 0.010000	 2.000000	 flanked_rf_freq_2_amplitude_0.01_rep_9_b_K_2.0.png	 K	 b	 t	 n.a.	 2.190724e-01
8	 4	 395	 flanked	 rf	 8	 0.010000	 2.000000	 flanked_rf_freq_8_amplitude_0.01_rep_2_b_D_2.0.png	 D	 b	 l	 n.a.	 2.727716e-01
8	 4	 396	 flanked	 rf	 5	 0.113300	 2.000000	 flanked_rf_freq_5_amplitude_0.1133_rep_7_r_D_2.0.png	 D	 r	 b	 n.a.	 3.445200e-01
8	 4	 397	 flanked	 rf	 2	 0.113300	 2.000000	 flanked_rf_freq_2_amplitude_0.1133_rep_7_r_N_2.0.png	 N	 r	 t	 n.a.	 3.610019e-01
8	 4	 398	 flanked	 rf	 3	 0.007500	 2.000000	 flanked_rf_freq_3_amplitude_0.0075_rep_9_b_K_2.0.png	 K	 b	 l	 n.a.	 3.919458e-01
8	 4	 399	 flanked	 rf	 8	 0.061700	 2.000000	 flanked_rf_freq_8_amplitude_0.0617_rep_6_b_N_2.0.png	 N	 b	 b	 n.a.	 4.200317e-01
8	 4	 400	 flanked	 rf	 4	 0.268300	 2.000000	 flanked_rf_freq_4_amplitude_0.2683_rep_6_l_N_2.0.png	 N	 l	 l	 n.a.	 3.430273e-01
8	 4	 401	 flanked	 rf	 3	 0.165000	 2.000000	 flanked_rf_freq_3_amplitude_0.165_rep_9_l_K_2.0.png	 K	 l	 t	 n.a.	 7.408383e-01
8	 4	 402	 flanked	 rf	 4	 0.007500	 2.000000	 flanked_rf_freq_4_amplitude_0.0075_rep_3_l_N_2.0.png	 N	 l	 r	 n.a.	 2.945070e-01
8	 4	 403	 flanked	 rf	 3	 0.268300	 2.000000	 flanked_rf_freq_3_amplitude_0.2683_rep_1_r_N_2.0.png	 N	 r	 r	 n.a.	 7.750601e-01
8	 4	 404	 flanked	 rf	 5	 0.268300	 2.000000	 flanked_rf_freq_5_amplitude_0.2683_rep_0_b_N_2.0.png	 N	 b	 b	 n.a.	 5.632758e-01
8	 4	 405	 flanked	 rf	 12	 0.268300	 2.000000	 flanked_rf_freq_12_amplitude_0.2683_rep_9_t_D_2.0.png	 D	 t	 t	 n.a.	 3.336170e-01
8	 4	 406	 flanked	 rf	 8	 0.061700	 2.000000	 flanked_rf_freq_8_amplitude_0.0617_rep_5_b_K_2.0.png	 K	 b	 b	 n.a.	 3.859955e-01
8	 4	 407	 flanked	 rf	 8	 0.007500	 2.000000	 flanked_rf_freq_8_amplitude_0.0075_rep_4_r_H_2.0.png	 H	 r	 t	 n.a.	 7.124677e-01
8	 4	 408	 flanked	 rf	 8	 0.216700	 2.000000	 flanked_rf_freq_8_amplitude_0.2167_rep_0_b_N_2.0.png	 N	 b	 b	 n.a.	 2.274464e-01
8	 4	 409	 flanked	 rf	 2	 0.007500	 2.000000	 flanked_rf_freq_2_amplitude_0.0075_rep_8_l_H_2.0.png	 H	 l	 t	 n.a.	 3.205392e-01
8	 4	 410	 flanked	 rf	 2	 0.061700	 2.000000	 flanked_rf_freq_2_amplitude_0.0617_rep_6_t_H_2.0.png	 H	 t	 l	 n.a.	 4.661190e-01
8	 4	 411	 flanked	 rf	 5	 0.268300	 2.000000	 flanked_rf_freq_5_amplitude_0.2683_rep_8_b_H_2.0.png	 H	 b	 b	 n.a.	 2.641794e-01
8	 4	 412	 flanked	 rf	 5	 0.268300	 2.000000	 flanked_rf_freq_5_amplitude_0.2683_rep_2_t_H_2.0.png	 H	 t	 t	 n.a.	 3.072968e-01
8	 4	 413	 flanked	 rf	 3	 0.061700	 2.000000	 flanked_rf_freq_3_amplitude_0.0617_rep_5_b_N_2.0.png	 N	 b	 r	 n.a.	 3.481061e-01
8	 4	 414	 flanked	 rf	 3	 0.113300	 2.000000	 flanked_rf_freq_3_amplitude_0.1133_rep_1_t_K_2.0.png	 K	 t	 t	 n.a.	 2.671314e-01
8	 4	 415	 flanked	 rf	 8	 0.268300	 2.000000	 flanked_rf_freq_8_amplitude_0.2683_rep_1_r_H_2.0.png	 H	 r	 r	 n.a.	 2.862785e-01
8	 4	 416	 flanked	 rf	 12	 0.007500	 2.000000	 flanked_rf_freq_12_amplitude_0.0075_rep_6_b_H_2.0.png	 H	 b	 b	 n.a.	 3.324453e-01
8	 4	 417	 flanked	 rf	 4	 0.113300	 2.000000	 flanked_rf_freq_4_amplitude_0.1133_rep_8_b_D_2.0.png	 D	 b	 t	 n.a.	 2.411338e-01
8	 4	 418	 flanked	 rf	 5	 0.061700	 2.000000	 flanked_rf_freq_5_amplitude_0.0617_rep_9_l_K_2.0.png	 K	 l	 l	 n.a.	 2.885858e-01
8	 4	 419	 flanked	 rf	 8	 0.007500	 2.000000	 flanked_rf_freq_8_amplitude_0.0075_rep_1_b_N_2.0.png	 N	 b	 t	 n.a.	 2.732323e-01
8	 4	 420	 flanked	 rf	 2	 0.165000	 2.000000	 flanked_rf_freq_2_amplitude_0.165_rep_4_r_N_2.0.png	 N	 r	 t	 n.a.	 3.061115e-01
