subject	 session	 trial	 flanked	 distortion	 freq	 amplitude	 spacing	 im_name	 targ_letter	 targ_pos	 response	 eyemovement	 RT
5	 2	 1	 unflanked	 rf	 12	 0.061700	 0.000000	 unflanked_rf_freq_12_amplitude_0.0617_rep_6_b_N.png	 N	 b	 t	 n.a.	 4.805683e-01
5	 2	 2	 unflanked	 rf	 4	 0.113300	 0.000000	 unflanked_rf_freq_4_amplitude_0.1133_rep_4_b_D.png	 D	 b	 l	 n.a.	 6.112205e-01
5	 2	 3	 unflanked	 rf	 8	 0.061700	 0.000000	 unflanked_rf_freq_8_amplitude_0.0617_rep_7_l_D.png	 D	 l	 l	 n.a.	 3.061851e-01
5	 2	 4	 unflanked	 rf	 2	 0.165000	 0.000000	 unflanked_rf_freq_2_amplitude_0.165_rep_6_l_K.png	 K	 l	 r	 n.a.	 3.519940e-01
5	 2	 5	 unflanked	 rf	 5	 0.216700	 0.000000	 unflanked_rf_freq_5_amplitude_0.2167_rep_7_r_N.png	 N	 r	 r	 n.a.	 2.579805e-01
5	 2	 6	 unflanked	 rf	 12	 0.216700	 0.000000	 unflanked_rf_freq_12_amplitude_0.2167_rep_4_t_H.png	 H	 t	 t	 n.a.	 5.030378e-01
5	 2	 7	 unflanked	 rf	 12	 0.320000	 0.000000	 unflanked_rf_freq_12_amplitude_0.32_rep_5_r_K.png	 K	 r	 r	 n.a.	 3.333224e-01
5	 2	 8	 unflanked	 rf	 8	 0.113300	 0.000000	 unflanked_rf_freq_8_amplitude_0.1133_rep_5_l_H.png	 H	 l	 t	 n.a.	 6.986030e-01
5	 2	 9	 unflanked	 rf	 5	 0.113300	 0.000000	 unflanked_rf_freq_5_amplitude_0.1133_rep_8_r_K.png	 K	 r	 r	 n.a.	 2.928449e-01
5	 2	 10	 unflanked	 rf	 5	 0.268300	 0.000000	 unflanked_rf_freq_5_amplitude_0.2683_rep_3_r_K.png	 K	 r	 r	 n.a.	 2.713282e-01
5	 2	 11	 unflanked	 rf	 2	 0.216700	 0.000000	 unflanked_rf_freq_2_amplitude_0.2167_rep_6_t_H.png	 H	 t	 t	 n.a.	 4.284131e-01
5	 2	 12	 unflanked	 rf	 8	 0.320000	 0.000000	 unflanked_rf_freq_8_amplitude_0.32_rep_3_b_K.png	 K	 b	 b	 n.a.	 3.812772e-01
5	 2	 13	 unflanked	 rf	 5	 0.165000	 0.000000	 unflanked_rf_freq_5_amplitude_0.165_rep_9_t_H.png	 H	 t	 t	 n.a.	 4.157788e-01
5	 2	 14	 unflanked	 rf	 4	 0.010000	 0.000000	 unflanked_rf_freq_4_amplitude_0.01_rep_3_t_D.png	 D	 t	 r	 n.a.	 6.339078e-01
5	 2	 15	 unflanked	 rf	 2	 0.216700	 0.000000	 unflanked_rf_freq_2_amplitude_0.2167_rep_0_b_N.png	 N	 b	 t	 n.a.	 5.198435e-01
5	 2	 16	 unflanked	 rf	 4	 0.268300	 0.000000	 unflanked_rf_freq_4_amplitude_0.2683_rep_8_t_H.png	 H	 t	 t	 n.a.	 3.083486e-01
5	 2	 17	 unflanked	 rf	 3	 0.061700	 0.000000	 unflanked_rf_freq_3_amplitude_0.0617_rep_5_b_H.png	 H	 b	 b	 n.a.	 5.468769e-01
5	 2	 18	 unflanked	 rf	 2	 0.268300	 0.000000	 unflanked_rf_freq_2_amplitude_0.2683_rep_5_l_K.png	 K	 l	 l	 n.a.	 3.452499e-01
5	 2	 19	 unflanked	 rf	 3	 0.165000	 0.000000	 unflanked_rf_freq_3_amplitude_0.165_rep_6_b_N.png	 N	 b	 b	 n.a.	 6.552465e-01
5	 2	 20	 unflanked	 rf	 12	 0.113300	 0.000000	 unflanked_rf_freq_12_amplitude_0.1133_rep_6_b_D.png	 D	 b	 t	 n.a.	 6.179383e-01
5	 2	 21	 unflanked	 rf	 3	 0.216700	 0.000000	 unflanked_rf_freq_3_amplitude_0.2167_rep_6_l_D.png	 D	 l	 l	 n.a.	 3.628405e-01
5	 2	 22	 unflanked	 rf	 5	 0.268300	 0.000000	 unflanked_rf_freq_5_amplitude_0.2683_rep_1_l_N.png	 N	 l	 l	 n.a.	 3.323035e-01
5	 2	 23	 unflanked	 rf	 4	 0.165000	 0.000000	 unflanked_rf_freq_4_amplitude_0.165_rep_5_b_H.png	 H	 b	 r	 n.a.	 5.549393e-01
5	 2	 24	 unflanked	 rf	 4	 0.010000	 0.000000	 unflanked_rf_freq_4_amplitude_0.01_rep_5_r_K.png	 K	 r	 t	 n.a.	 5.536417e-01
5	 2	 25	 unflanked	 rf	 12	 0.113300	 0.000000	 unflanked_rf_freq_12_amplitude_0.1133_rep_3_r_H.png	 H	 r	 r	 n.a.	 3.527664e-01
5	 2	 26	 unflanked	 rf	 5	 0.010000	 0.000000	 unflanked_rf_freq_5_amplitude_0.01_rep_3_t_K.png	 K	 t	 r	 n.a.	 4.311585e-01
5	 2	 27	 unflanked	 rf	 8	 0.165000	 0.000000	 unflanked_rf_freq_8_amplitude_0.165_rep_8_r_D.png	 D	 r	 r	 n.a.	 2.713847e-01
5	 2	 28	 unflanked	 rf	 5	 0.165000	 0.000000	 unflanked_rf_freq_5_amplitude_0.165_rep_8_r_K.png	 K	 r	 r	 n.a.	 5.077321e-01
5	 2	 29	 unflanked	 rf	 12	 0.010000	 0.000000	 unflanked_rf_freq_12_amplitude_0.01_rep_2_r_N.png	 N	 r	 r	 n.a.	 8.725074e-01
5	 2	 30	 unflanked	 rf	 3	 0.061700	 0.000000	 unflanked_rf_freq_3_amplitude_0.0617_rep_7_b_K.png	 K	 b	 b	 n.a.	 4.569922e-01
5	 2	 31	 unflanked	 rf	 4	 0.320000	 0.000000	 unflanked_rf_freq_4_amplitude_0.32_rep_8_l_N.png	 N	 l	 l	 n.a.	 2.706500e-01
5	 2	 32	 unflanked	 rf	 5	 0.320000	 0.000000	 unflanked_rf_freq_5_amplitude_0.32_rep_1_r_D.png	 D	 r	 r	 n.a.	 3.093679e-01
5	 2	 33	 unflanked	 rf	 4	 0.216700	 0.000000	 unflanked_rf_freq_4_amplitude_0.2167_rep_5_l_N.png	 N	 l	 r	 n.a.	 3.212468e-01
5	 2	 34	 unflanked	 rf	 3	 0.113300	 0.000000	 unflanked_rf_freq_3_amplitude_0.1133_rep_0_t_N.png	 N	 t	 r	 n.a.	 2.558197e-01
5	 2	 35	 unflanked	 rf	 2	 0.061700	 0.000000	 unflanked_rf_freq_2_amplitude_0.0617_rep_0_r_H.png	 H	 r	 r	 n.a.	 2.998967e-01
5	 2	 36	 unflanked	 rf	 8	 0.010000	 0.000000	 unflanked_rf_freq_8_amplitude_0.01_rep_9_l_N.png	 N	 l	 t	 n.a.	 6.213525e-01
5	 2	 37	 unflanked	 rf	 2	 0.061700	 0.000000	 unflanked_rf_freq_2_amplitude_0.0617_rep_8_t_K.png	 K	 t	 b	 n.a.	 5.716048e-01
5	 2	 38	 unflanked	 rf	 5	 0.113300	 0.000000	 unflanked_rf_freq_5_amplitude_0.1133_rep_0_t_H.png	 H	 t	 t	 n.a.	 5.424012e-01
5	 2	 39	 unflanked	 rf	 5	 0.113300	 0.000000	 unflanked_rf_freq_5_amplitude_0.1133_rep_1_l_K.png	 K	 l	 l	 n.a.	 6.209970e-01
5	 2	 40	 unflanked	 rf	 4	 0.165000	 0.000000	 unflanked_rf_freq_4_amplitude_0.165_rep_0_r_K.png	 K	 r	 r	 n.a.	 3.932737e-01
5	 2	 41	 unflanked	 rf	 4	 0.320000	 0.000000	 unflanked_rf_freq_4_amplitude_0.32_rep_7_r_H.png	 H	 r	 r	 n.a.	 3.565259e-01
5	 2	 42	 unflanked	 rf	 4	 0.216700	 0.000000	 unflanked_rf_freq_4_amplitude_0.2167_rep_9_l_N.png	 N	 l	 t	 n.a.	 6.166047e-01
5	 2	 43	 unflanked	 rf	 8	 0.320000	 0.000000	 unflanked_rf_freq_8_amplitude_0.32_rep_4_l_D.png	 D	 l	 l	 n.a.	 2.378883e-01
5	 2	 44	 unflanked	 rf	 2	 0.320000	 0.000000	 unflanked_rf_freq_2_amplitude_0.32_rep_0_l_D.png	 D	 l	 l	 n.a.	 3.224529e-01
5	 2	 45	 unflanked	 rf	 8	 0.268300	 0.000000	 unflanked_rf_freq_8_amplitude_0.2683_rep_6_b_D.png	 D	 b	 b	 n.a.	 2.691117e-01
5	 2	 46	 unflanked	 rf	 5	 0.010000	 0.000000	 unflanked_rf_freq_5_amplitude_0.01_rep_1_l_D.png	 D	 l	 l	 n.a.	 3.718957e-01
5	 2	 47	 unflanked	 rf	 5	 0.010000	 0.000000	 unflanked_rf_freq_5_amplitude_0.01_rep_0_r_N.png	 N	 r	 b	 n.a.	 4.950566e-01
5	 2	 48	 unflanked	 rf	 12	 0.113300	 0.000000	 unflanked_rf_freq_12_amplitude_0.1133_rep_5_t_H.png	 H	 t	 t	 n.a.	 4.364662e-01
5	 2	 49	 unflanked	 rf	 5	 0.010000	 0.000000	 unflanked_rf_freq_5_amplitude_0.01_rep_2_b_K.png	 K	 b	 t	 n.a.	 4.817092e-01
5	 2	 50	 unflanked	 rf	 2	 0.268300	 0.000000	 unflanked_rf_freq_2_amplitude_0.2683_rep_7_t_N.png	 N	 t	 t	 n.a.	 4.028724e-01
5	 2	 51	 unflanked	 rf	 4	 0.061700	 0.000000	 unflanked_rf_freq_4_amplitude_0.0617_rep_9_b_D.png	 D	 b	 t	 n.a.	 6.345718e-01
5	 2	 52	 unflanked	 rf	 8	 0.061700	 0.000000	 unflanked_rf_freq_8_amplitude_0.0617_rep_0_b_H.png	 H	 b	 b	 n.a.	 7.060705e-01
5	 2	 53	 unflanked	 rf	 8	 0.010000	 0.000000	 unflanked_rf_freq_8_amplitude_0.01_rep_7_t_D.png	 D	 t	 b	 n.a.	 6.914447e-01
5	 2	 54	 unflanked	 rf	 2	 0.216700	 0.000000	 unflanked_rf_freq_2_amplitude_0.2167_rep_9_b_D.png	 D	 b	 b	 n.a.	 6.643630e-01
5	 2	 55	 unflanked	 rf	 12	 0.320000	 0.000000	 unflanked_rf_freq_12_amplitude_0.32_rep_0_l_N.png	 N	 l	 l	 n.a.	 3.436889e-01
5	 2	 56	 unflanked	 rf	 4	 0.216700	 0.000000	 unflanked_rf_freq_4_amplitude_0.2167_rep_3_l_H.png	 H	 l	 l	 n.a.	 2.986829e-01
5	 2	 57	 unflanked	 rf	 8	 0.113300	 0.000000	 unflanked_rf_freq_8_amplitude_0.1133_rep_6_l_N.png	 N	 l	 l	 n.a.	 3.250251e-01
5	 2	 58	 unflanked	 rf	 5	 0.216700	 0.000000	 unflanked_rf_freq_5_amplitude_0.2167_rep_2_l_N.png	 N	 l	 l	 n.a.	 3.793446e-01
5	 2	 59	 unflanked	 rf	 8	 0.216700	 0.000000	 unflanked_rf_freq_8_amplitude_0.2167_rep_3_l_D.png	 D	 l	 l	 n.a.	 3.352861e-01
5	 2	 60	 unflanked	 rf	 8	 0.113300	 0.000000	 unflanked_rf_freq_8_amplitude_0.1133_rep_8_t_H.png	 H	 t	 t	 n.a.	 5.929220e-01
5	 2	 61	 unflanked	 rf	 2	 0.113300	 0.000000	 unflanked_rf_freq_2_amplitude_0.1133_rep_4_t_N.png	 N	 t	 r	 n.a.	 5.541703e-01
5	 2	 62	 unflanked	 rf	 2	 0.113300	 0.000000	 unflanked_rf_freq_2_amplitude_0.1133_rep_7_t_D.png	 D	 t	 t	 n.a.	 4.346551e-01
5	 2	 63	 unflanked	 rf	 2	 0.216700	 0.000000	 unflanked_rf_freq_2_amplitude_0.2167_rep_3_r_D.png	 D	 r	 r	 n.a.	 6.262962e-01
5	 2	 64	 unflanked	 rf	 8	 0.165000	 0.000000	 unflanked_rf_freq_8_amplitude_0.165_rep_6_b_H.png	 H	 b	 b	 n.a.	 3.548758e-01
5	 2	 65	 unflanked	 rf	 2	 0.268300	 0.000000	 unflanked_rf_freq_2_amplitude_0.2683_rep_3_r_H.png	 H	 r	 r	 n.a.	 2.963229e-01
5	 2	 66	 unflanked	 rf	 12	 0.165000	 0.000000	 unflanked_rf_freq_12_amplitude_0.165_rep_5_t_N.png	 N	 t	 t	 n.a.	 4.053823e-01
5	 2	 67	 unflanked	 rf	 3	 0.320000	 0.000000	 unflanked_rf_freq_3_amplitude_0.32_rep_6_l_N.png	 N	 l	 l	 n.a.	 3.106929e-01
5	 2	 68	 unflanked	 rf	 2	 0.010000	 0.000000	 unflanked_rf_freq_2_amplitude_0.01_rep_8_b_H.png	 H	 b	 r	 n.a.	 7.366066e-01
5	 2	 69	 unflanked	 rf	 4	 0.320000	 0.000000	 unflanked_rf_freq_4_amplitude_0.32_rep_3_b_D.png	 D	 b	 b	 n.a.	 3.960852e-01
5	 2	 70	 unflanked	 rf	 12	 0.268300	 0.000000	 unflanked_rf_freq_12_amplitude_0.2683_rep_4_r_D.png	 D	 r	 r	 n.a.	 3.776465e-01
5	 2	 71	 unflanked	 rf	 5	 0.268300	 0.000000	 unflanked_rf_freq_5_amplitude_0.2683_rep_8_b_N.png	 N	 b	 b	 n.a.	 4.542148e-01
5	 2	 72	 unflanked	 rf	 8	 0.216700	 0.000000	 unflanked_rf_freq_8_amplitude_0.2167_rep_0_t_K.png	 K	 t	 t	 n.a.	 4.446124e-01
5	 2	 73	 unflanked	 rf	 5	 0.320000	 0.000000	 unflanked_rf_freq_5_amplitude_0.32_rep_8_r_N.png	 N	 r	 r	 n.a.	 2.185846e-01
5	 2	 74	 unflanked	 rf	 2	 0.320000	 0.000000	 unflanked_rf_freq_2_amplitude_0.32_rep_9_b_K.png	 K	 b	 b	 n.a.	 3.591999e-01
5	 2	 75	 unflanked	 rf	 5	 0.165000	 0.000000	 unflanked_rf_freq_5_amplitude_0.165_rep_7_t_K.png	 K	 t	 r	 n.a.	 4.429432e-01
5	 2	 76	 unflanked	 rf	 5	 0.165000	 0.000000	 unflanked_rf_freq_5_amplitude_0.165_rep_3_b_N.png	 N	 b	 b	 n.a.	 9.197547e-01
5	 2	 77	 unflanked	 rf	 8	 0.113300	 0.000000	 unflanked_rf_freq_8_amplitude_0.1133_rep_4_b_N.png	 N	 b	 t	 n.a.	 8.628314e-01
5	 2	 78	 unflanked	 rf	 4	 0.010000	 0.000000	 unflanked_rf_freq_4_amplitude_0.01_rep_9_t_K.png	 K	 t	 t	 n.a.	 9.755024e-01
5	 2	 79	 unflanked	 rf	 12	 0.320000	 0.000000	 unflanked_rf_freq_12_amplitude_0.32_rep_6_t_N.png	 N	 t	 t	 n.a.	 5.879995e-01
5	 2	 80	 unflanked	 rf	 12	 0.010000	 0.000000	 unflanked_rf_freq_12_amplitude_0.01_rep_1_r_D.png	 D	 r	 b	 n.a.	 1.218907e+00
5	 2	 81	 unflanked	 rf	 2	 0.216700	 0.000000	 unflanked_rf_freq_2_amplitude_0.2167_rep_2_b_H.png	 H	 b	 b	 n.a.	 4.435857e-01
5	 2	 82	 unflanked	 rf	 5	 0.061700	 0.000000	 unflanked_rf_freq_5_amplitude_0.0617_rep_6_r_D.png	 D	 r	 r	 n.a.	 4.362027e-01
5	 2	 83	 unflanked	 rf	 3	 0.216700	 0.000000	 unflanked_rf_freq_3_amplitude_0.2167_rep_8_l_K.png	 K	 l	 l	 n.a.	 2.469169e-01
5	 2	 84	 unflanked	 rf	 4	 0.165000	 0.000000	 unflanked_rf_freq_4_amplitude_0.165_rep_7_b_D.png	 D	 b	 b	 n.a.	 5.073596e-01
5	 2	 85	 unflanked	 rf	 5	 0.061700	 0.000000	 unflanked_rf_freq_5_amplitude_0.0617_rep_5_t_D.png	 D	 t	 t	 n.a.	 5.833526e-01
5	 2	 86	 unflanked	 rf	 2	 0.320000	 0.000000	 unflanked_rf_freq_2_amplitude_0.32_rep_7_t_K.png	 K	 t	 t	 n.a.	 4.783817e-01
5	 2	 87	 unflanked	 rf	 5	 0.320000	 0.000000	 unflanked_rf_freq_5_amplitude_0.32_rep_4_r_D.png	 D	 r	 r	 n.a.	 2.975714e-01
5	 2	 88	 unflanked	 rf	 8	 0.216700	 0.000000	 unflanked_rf_freq_8_amplitude_0.2167_rep_1_l_N.png	 N	 l	 l	 n.a.	 3.439029e-01
5	 2	 89	 unflanked	 rf	 12	 0.216700	 0.000000	 unflanked_rf_freq_12_amplitude_0.2167_rep_9_t_D.png	 D	 t	 t	 n.a.	 5.294675e-01
5	 2	 90	 unflanked	 rf	 12	 0.320000	 0.000000	 unflanked_rf_freq_12_amplitude_0.32_rep_4_t_N.png	 N	 t	 t	 n.a.	 2.762903e-01
5	 2	 91	 unflanked	 rf	 12	 0.216700	 0.000000	 unflanked_rf_freq_12_amplitude_0.2167_rep_3_r_N.png	 N	 r	 r	 n.a.	 3.236835e-01
5	 2	 92	 unflanked	 rf	 4	 0.061700	 0.000000	 unflanked_rf_freq_4_amplitude_0.0617_rep_6_b_N.png	 N	 b	 t	 n.a.	 3.950482e-01
5	 2	 93	 unflanked	 rf	 12	 0.268300	 0.000000	 unflanked_rf_freq_12_amplitude_0.2683_rep_7_r_H.png	 H	 r	 r	 n.a.	 3.510223e-01
5	 2	 94	 unflanked	 rf	 8	 0.113300	 0.000000	 unflanked_rf_freq_8_amplitude_0.1133_rep_2_r_D.png	 D	 r	 r	 n.a.	 2.162292e-01
5	 2	 95	 unflanked	 rf	 8	 0.113300	 0.000000	 unflanked_rf_freq_8_amplitude_0.1133_rep_7_r_K.png	 K	 r	 r	 n.a.	 2.535675e-01
5	 2	 96	 unflanked	 rf	 12	 0.061700	 0.000000	 unflanked_rf_freq_12_amplitude_0.0617_rep_0_r_N.png	 N	 r	 r	 n.a.	 2.115518e-01
5	 2	 97	 unflanked	 rf	 4	 0.010000	 0.000000	 unflanked_rf_freq_4_amplitude_0.01_rep_0_b_N.png	 N	 b	 r	 n.a.	 3.502109e-01
5	 2	 98	 unflanked	 rf	 5	 0.320000	 0.000000	 unflanked_rf_freq_5_amplitude_0.32_rep_3_l_N.png	 N	 l	 l	 n.a.	 2.890763e-01
5	 2	 99	 unflanked	 rf	 3	 0.268300	 0.000000	 unflanked_rf_freq_3_amplitude_0.2683_rep_0_r_D.png	 D	 r	 r	 n.a.	 3.950639e-01
5	 2	 100	 unflanked	 rf	 8	 0.113300	 0.000000	 unflanked_rf_freq_8_amplitude_0.1133_rep_1_t_H.png	 H	 t	 t	 n.a.	 6.322265e-01
5	 2	 101	 unflanked	 rf	 2	 0.165000	 0.000000	 unflanked_rf_freq_2_amplitude_0.165_rep_2_r_H.png	 H	 r	 r	 n.a.	 4.096794e-01
5	 2	 102	 unflanked	 rf	 3	 0.165000	 0.000000	 unflanked_rf_freq_3_amplitude_0.165_rep_5_b_D.png	 D	 b	 r	 n.a.	 2.584802e-01
5	 2	 103	 unflanked	 rf	 12	 0.216700	 0.000000	 unflanked_rf_freq_12_amplitude_0.2167_rep_7_l_K.png	 K	 l	 l	 n.a.	 2.658107e-01
5	 2	 104	 unflanked	 rf	 4	 0.320000	 0.000000	 unflanked_rf_freq_4_amplitude_0.32_rep_0_t_K.png	 K	 t	 t	 n.a.	 4.436258e-01
5	 2	 105	 unflanked	 rf	 8	 0.010000	 0.000000	 unflanked_rf_freq_8_amplitude_0.01_rep_1_r_H.png	 H	 r	 r	 n.a.	 6.343676e-01
5	 2	 106	 unflanked	 rf	 5	 0.113300	 0.000000	 unflanked_rf_freq_5_amplitude_0.1133_rep_2_b_N.png	 N	 b	 b	 n.a.	 4.141989e-01
5	 2	 107	 unflanked	 rf	 8	 0.268300	 0.000000	 unflanked_rf_freq_8_amplitude_0.2683_rep_4_r_H.png	 H	 r	 r	 n.a.	 2.850227e-01
5	 2	 108	 unflanked	 rf	 2	 0.268300	 0.000000	 unflanked_rf_freq_2_amplitude_0.2683_rep_8_r_H.png	 H	 r	 r	 n.a.	 2.589251e-01
5	 2	 109	 unflanked	 rf	 12	 0.113300	 0.000000	 unflanked_rf_freq_12_amplitude_0.1133_rep_8_r_H.png	 H	 r	 r	 n.a.	 2.429480e-01
5	 2	 110	 unflanked	 rf	 12	 0.113300	 0.000000	 unflanked_rf_freq_12_amplitude_0.1133_rep_2_b_D.png	 D	 b	 b	 n.a.	 3.388651e-01
5	 2	 111	 unflanked	 rf	 12	 0.268300	 0.000000	 unflanked_rf_freq_12_amplitude_0.2683_rep_0_b_K.png	 K	 b	 b	 n.a.	 3.078633e-01
5	 2	 112	 unflanked	 rf	 4	 0.113300	 0.000000	 unflanked_rf_freq_4_amplitude_0.1133_rep_9_l_D.png	 D	 l	 b	 n.a.	 3.521500e-01
5	 2	 113	 unflanked	 rf	 4	 0.061700	 0.000000	 unflanked_rf_freq_4_amplitude_0.0617_rep_8_r_N.png	 N	 r	 r	 n.a.	 5.246102e-01
5	 2	 114	 unflanked	 rf	 2	 0.113300	 0.000000	 unflanked_rf_freq_2_amplitude_0.1133_rep_8_l_N.png	 N	 l	 l	 n.a.	 7.422883e-01
5	 2	 115	 unflanked	 rf	 12	 0.061700	 0.000000	 unflanked_rf_freq_12_amplitude_0.0617_rep_4_t_K.png	 K	 t	 t	 n.a.	 5.944154e-01
5	 2	 116	 unflanked	 rf	 12	 0.061700	 0.000000	 unflanked_rf_freq_12_amplitude_0.0617_rep_9_b_K.png	 K	 b	 r	 n.a.	 5.583688e-01
5	 2	 117	 unflanked	 rf	 5	 0.061700	 0.000000	 unflanked_rf_freq_5_amplitude_0.0617_rep_3_r_K.png	 K	 r	 r	 n.a.	 3.215026e-01
5	 2	 118	 unflanked	 rf	 3	 0.010000	 0.000000	 unflanked_rf_freq_3_amplitude_0.01_rep_5_t_K.png	 K	 t	 r	 n.a.	 5.431669e-01
5	 2	 119	 unflanked	 rf	 4	 0.165000	 0.000000	 unflanked_rf_freq_4_amplitude_0.165_rep_8_l_K.png	 K	 l	 l	 n.a.	 4.233926e-01
5	 2	 120	 unflanked	 rf	 4	 0.113300	 0.000000	 unflanked_rf_freq_4_amplitude_0.1133_rep_7_t_K.png	 K	 t	 b	 n.a.	 5.738715e-01
5	 2	 121	 unflanked	 rf	 2	 0.268300	 0.000000	 unflanked_rf_freq_2_amplitude_0.2683_rep_1_l_N.png	 N	 l	 l	 n.a.	 3.205970e-01
5	 2	 122	 unflanked	 rf	 5	 0.165000	 0.000000	 unflanked_rf_freq_5_amplitude_0.165_rep_1_b_N.png	 N	 b	 t	 n.a.	 1.186477e+00
5	 2	 123	 unflanked	 rf	 3	 0.165000	 0.000000	 unflanked_rf_freq_3_amplitude_0.165_rep_3_b_H.png	 H	 b	 b	 n.a.	 2.452122e-01
5	 2	 124	 unflanked	 rf	 2	 0.010000	 0.000000	 unflanked_rf_freq_2_amplitude_0.01_rep_9_t_N.png	 N	 t	 b	 n.a.	 6.420802e-01
5	 2	 125	 unflanked	 rf	 4	 0.320000	 0.000000	 unflanked_rf_freq_4_amplitude_0.32_rep_5_r_D.png	 D	 r	 r	 n.a.	 3.113964e-01
5	 2	 126	 unflanked	 rf	 3	 0.216700	 0.000000	 unflanked_rf_freq_3_amplitude_0.2167_rep_0_r_D.png	 D	 r	 r	 n.a.	 3.052044e-01
5	 2	 127	 unflanked	 rf	 2	 0.268300	 0.000000	 unflanked_rf_freq_2_amplitude_0.2683_rep_2_t_H.png	 H	 t	 t	 n.a.	 5.983855e-01
5	 2	 128	 unflanked	 rf	 2	 0.061700	 0.000000	 unflanked_rf_freq_2_amplitude_0.0617_rep_2_r_D.png	 D	 r	 r	 n.a.	 5.655340e-01
5	 2	 129	 unflanked	 rf	 2	 0.113300	 0.000000	 unflanked_rf_freq_2_amplitude_0.1133_rep_1_b_D.png	 D	 b	 r	 n.a.	 6.494354e-01
5	 2	 130	 unflanked	 rf	 4	 0.165000	 0.000000	 unflanked_rf_freq_4_amplitude_0.165_rep_6_b_D.png	 D	 b	 b	 n.a.	 3.210209e-01
5	 2	 131	 unflanked	 rf	 3	 0.320000	 0.000000	 unflanked_rf_freq_3_amplitude_0.32_rep_7_t_H.png	 H	 t	 t	 n.a.	 5.137016e-01
5	 2	 132	 unflanked	 rf	 8	 0.216700	 0.000000	 unflanked_rf_freq_8_amplitude_0.2167_rep_2_l_K.png	 K	 l	 l	 n.a.	 2.790004e-01
5	 2	 133	 unflanked	 rf	 2	 0.061700	 0.000000	 unflanked_rf_freq_2_amplitude_0.0617_rep_3_b_N.png	 N	 b	 t	 n.a.	 4.336854e-01
5	 2	 134	 unflanked	 rf	 2	 0.113300	 0.000000	 unflanked_rf_freq_2_amplitude_0.1133_rep_0_t_N.png	 N	 t	 r	 n.a.	 6.051284e-01
5	 2	 135	 unflanked	 rf	 4	 0.061700	 0.000000	 unflanked_rf_freq_4_amplitude_0.0617_rep_5_l_N.png	 N	 l	 l	 n.a.	 8.307890e-01
5	 2	 136	 unflanked	 rf	 12	 0.165000	 0.000000	 unflanked_rf_freq_12_amplitude_0.165_rep_2_r_H.png	 H	 r	 r	 n.a.	 3.123240e-01
5	 2	 137	 unflanked	 rf	 4	 0.061700	 0.000000	 unflanked_rf_freq_4_amplitude_0.0617_rep_4_b_H.png	 H	 b	 r	 n.a.	 4.870123e-01
5	 2	 138	 unflanked	 rf	 8	 0.061700	 0.000000	 unflanked_rf_freq_8_amplitude_0.0617_rep_1_l_H.png	 H	 l	 r	 n.a.	 4.092956e-01
5	 2	 139	 unflanked	 rf	 2	 0.216700	 0.000000	 unflanked_rf_freq_2_amplitude_0.2167_rep_1_l_D.png	 D	 l	 l	 n.a.	 3.528052e-01
5	 2	 140	 unflanked	 rf	 12	 0.320000	 0.000000	 unflanked_rf_freq_12_amplitude_0.32_rep_7_t_K.png	 K	 t	 t	 n.a.	 7.322674e-01
5	 2	 141	 unflanked	 rf	 4	 0.113300	 0.000000	 unflanked_rf_freq_4_amplitude_0.1133_rep_0_t_K.png	 K	 t	 r	 n.a.	 4.308573e-01
5	 2	 142	 unflanked	 rf	 12	 0.113300	 0.000000	 unflanked_rf_freq_12_amplitude_0.1133_rep_9_l_K.png	 K	 l	 l	 n.a.	 2.797608e-01
5	 2	 143	 unflanked	 rf	 3	 0.320000	 0.000000	 unflanked_rf_freq_3_amplitude_0.32_rep_0_t_N.png	 N	 t	 t	 n.a.	 4.771262e-01
5	 2	 144	 unflanked	 rf	 3	 0.320000	 0.000000	 unflanked_rf_freq_3_amplitude_0.32_rep_2_r_H.png	 H	 r	 r	 n.a.	 2.766792e-01
5	 2	 145	 unflanked	 rf	 4	 0.113300	 0.000000	 unflanked_rf_freq_4_amplitude_0.1133_rep_5_t_K.png	 K	 t	 t	 n.a.	 4.276372e-01
5	 2	 146	 unflanked	 rf	 2	 0.216700	 0.000000	 unflanked_rf_freq_2_amplitude_0.2167_rep_7_t_H.png	 H	 t	 t	 n.a.	 4.469947e-01
5	 2	 147	 unflanked	 rf	 2	 0.061700	 0.000000	 unflanked_rf_freq_2_amplitude_0.0617_rep_1_r_N.png	 N	 r	 t	 n.a.	 5.039650e-01
5	 2	 148	 unflanked	 rf	 5	 0.320000	 0.000000	 unflanked_rf_freq_5_amplitude_0.32_rep_2_l_H.png	 H	 l	 l	 n.a.	 2.861765e-01
5	 2	 149	 unflanked	 rf	 5	 0.320000	 0.000000	 unflanked_rf_freq_5_amplitude_0.32_rep_0_b_N.png	 N	 b	 b	 n.a.	 5.564603e-01
5	 2	 150	 unflanked	 rf	 3	 0.268300	 0.000000	 unflanked_rf_freq_3_amplitude_0.2683_rep_8_r_H.png	 H	 r	 r	 n.a.	 2.951377e-01
5	 2	 151	 unflanked	 rf	 2	 0.165000	 0.000000	 unflanked_rf_freq_2_amplitude_0.165_rep_9_l_K.png	 K	 l	 l	 n.a.	 2.914982e-01
5	 2	 152	 unflanked	 rf	 8	 0.320000	 0.000000	 unflanked_rf_freq_8_amplitude_0.32_rep_0_l_N.png	 N	 l	 l	 n.a.	 3.784631e-01
5	 2	 153	 unflanked	 rf	 12	 0.010000	 0.000000	 unflanked_rf_freq_12_amplitude_0.01_rep_3_l_K.png	 K	 l	 t	 n.a.	 5.833910e-01
5	 2	 154	 unflanked	 rf	 8	 0.010000	 0.000000	 unflanked_rf_freq_8_amplitude_0.01_rep_6_t_H.png	 H	 t	 l	 n.a.	 3.453778e-01
5	 2	 155	 unflanked	 rf	 12	 0.216700	 0.000000	 unflanked_rf_freq_12_amplitude_0.2167_rep_2_t_N.png	 N	 t	 t	 n.a.	 2.940158e-01
5	 2	 156	 unflanked	 rf	 4	 0.165000	 0.000000	 unflanked_rf_freq_4_amplitude_0.165_rep_1_b_H.png	 H	 b	 b	 n.a.	 5.470090e-01
5	 2	 157	 unflanked	 rf	 2	 0.010000	 0.000000	 unflanked_rf_freq_2_amplitude_0.01_rep_3_t_N.png	 N	 t	 t	 n.a.	 7.228705e-01
5	 2	 158	 unflanked	 rf	 2	 0.216700	 0.000000	 unflanked_rf_freq_2_amplitude_0.2167_rep_5_r_H.png	 H	 r	 r	 n.a.	 4.357795e-01
5	 2	 159	 unflanked	 rf	 8	 0.216700	 0.000000	 unflanked_rf_freq_8_amplitude_0.2167_rep_6_r_K.png	 K	 r	 r	 n.a.	 2.587988e-01
5	 2	 160	 unflanked	 rf	 3	 0.216700	 0.000000	 unflanked_rf_freq_3_amplitude_0.2167_rep_9_b_N.png	 N	 b	 t	 n.a.	 5.306431e-01
5	 2	 161	 unflanked	 rf	 5	 0.113300	 0.000000	 unflanked_rf_freq_5_amplitude_0.1133_rep_7_l_D.png	 D	 l	 b	 n.a.	 4.106103e-01
5	 2	 162	 unflanked	 rf	 12	 0.268300	 0.000000	 unflanked_rf_freq_12_amplitude_0.2683_rep_5_l_D.png	 D	 l	 l	 n.a.	 1.825748e-01
5	 2	 163	 unflanked	 rf	 12	 0.010000	 0.000000	 unflanked_rf_freq_12_amplitude_0.01_rep_8_b_D.png	 D	 b	 r	 n.a.	 3.265816e-01
5	 2	 164	 unflanked	 rf	 8	 0.268300	 0.000000	 unflanked_rf_freq_8_amplitude_0.2683_rep_0_t_K.png	 K	 t	 t	 n.a.	 3.528595e-01
5	 2	 165	 unflanked	 rf	 3	 0.061700	 0.000000	 unflanked_rf_freq_3_amplitude_0.0617_rep_9_l_H.png	 H	 l	 t	 n.a.	 6.445101e-01
5	 2	 166	 unflanked	 rf	 12	 0.061700	 0.000000	 unflanked_rf_freq_12_amplitude_0.0617_rep_8_l_K.png	 K	 l	 b	 n.a.	 5.659451e-01
5	 2	 167	 unflanked	 rf	 2	 0.320000	 0.000000	 unflanked_rf_freq_2_amplitude_0.32_rep_6_l_H.png	 H	 l	 l	 n.a.	 3.107599e-01
5	 2	 168	 unflanked	 rf	 3	 0.320000	 0.000000	 unflanked_rf_freq_3_amplitude_0.32_rep_1_b_H.png	 H	 b	 b	 n.a.	 4.642958e-01
5	 2	 169	 unflanked	 rf	 5	 0.113300	 0.000000	 unflanked_rf_freq_5_amplitude_0.1133_rep_4_l_K.png	 K	 l	 l	 n.a.	 3.243431e-01
5	 2	 170	 unflanked	 rf	 8	 0.320000	 0.000000	 unflanked_rf_freq_8_amplitude_0.32_rep_7_r_H.png	 H	 r	 r	 n.a.	 2.736571e-01
5	 2	 171	 unflanked	 rf	 2	 0.165000	 0.000000	 unflanked_rf_freq_2_amplitude_0.165_rep_5_r_K.png	 K	 r	 r	 n.a.	 3.835921e-01
5	 2	 172	 unflanked	 rf	 5	 0.320000	 0.000000	 unflanked_rf_freq_5_amplitude_0.32_rep_7_t_H.png	 H	 t	 t	 n.a.	 5.454757e-01
5	 2	 173	 unflanked	 rf	 8	 0.320000	 0.000000	 unflanked_rf_freq_8_amplitude_0.32_rep_6_r_K.png	 K	 r	 r	 n.a.	 2.637627e-01
5	 2	 174	 unflanked	 rf	 5	 0.216700	 0.000000	 unflanked_rf_freq_5_amplitude_0.2167_rep_8_b_H.png	 H	 b	 b	 n.a.	 4.693525e-01
5	 2	 175	 unflanked	 rf	 2	 0.010000	 0.000000	 unflanked_rf_freq_2_amplitude_0.01_rep_7_l_H.png	 H	 l	 t	 n.a.	 8.783696e-01
5	 2	 176	 unflanked	 rf	 4	 0.010000	 0.000000	 unflanked_rf_freq_4_amplitude_0.01_rep_4_b_D.png	 D	 b	 r	 n.a.	 4.675647e-01
5	 2	 177	 unflanked	 rf	 4	 0.268300	 0.000000	 unflanked_rf_freq_4_amplitude_0.2683_rep_0_r_K.png	 K	 r	 r	 n.a.	 2.401409e-01
5	 2	 178	 unflanked	 rf	 2	 0.010000	 0.000000	 unflanked_rf_freq_2_amplitude_0.01_rep_1_l_N.png	 N	 l	 r	 n.a.	 4.398517e-01
5	 2	 179	 unflanked	 rf	 5	 0.010000	 0.000000	 unflanked_rf_freq_5_amplitude_0.01_rep_4_r_K.png	 K	 r	 r	 n.a.	 4.018705e-01
5	 2	 180	 unflanked	 rf	 4	 0.061700	 0.000000	 unflanked_rf_freq_4_amplitude_0.0617_rep_1_l_H.png	 H	 l	 t	 n.a.	 6.312774e-01
5	 2	 181	 unflanked	 rf	 12	 0.113300	 0.000000	 unflanked_rf_freq_12_amplitude_0.1133_rep_1_b_D.png	 D	 b	 l	 n.a.	 5.412820e-01
5	 2	 182	 unflanked	 rf	 3	 0.216700	 0.000000	 unflanked_rf_freq_3_amplitude_0.2167_rep_3_r_K.png	 K	 r	 r	 n.a.	 3.101507e-01
5	 2	 183	 unflanked	 rf	 5	 0.061700	 0.000000	 unflanked_rf_freq_5_amplitude_0.0617_rep_7_l_D.png	 D	 l	 b	 n.a.	 4.924379e-01
5	 2	 184	 unflanked	 rf	 3	 0.320000	 0.000000	 unflanked_rf_freq_3_amplitude_0.32_rep_3_r_H.png	 H	 r	 r	 n.a.	 2.848249e-01
5	 2	 185	 unflanked	 rf	 3	 0.010000	 0.000000	 unflanked_rf_freq_3_amplitude_0.01_rep_4_b_K.png	 K	 b	 t	 n.a.	 8.595881e-01
5	 2	 186	 unflanked	 rf	 12	 0.216700	 0.000000	 unflanked_rf_freq_12_amplitude_0.2167_rep_5_l_K.png	 K	 l	 l	 n.a.	 2.875635e-01
5	 2	 187	 unflanked	 rf	 5	 0.010000	 0.000000	 unflanked_rf_freq_5_amplitude_0.01_rep_9_b_K.png	 K	 b	 r	 n.a.	 4.126426e-01
5	 2	 188	 unflanked	 rf	 3	 0.165000	 0.000000	 unflanked_rf_freq_3_amplitude_0.165_rep_1_b_H.png	 H	 b	 b	 n.a.	 5.768193e-01
5	 2	 189	 unflanked	 rf	 8	 0.113300	 0.000000	 unflanked_rf_freq_8_amplitude_0.1133_rep_0_r_H.png	 H	 r	 r	 n.a.	 3.667132e-01
5	 2	 190	 unflanked	 rf	 4	 0.320000	 0.000000	 unflanked_rf_freq_4_amplitude_0.32_rep_1_t_H.png	 H	 t	 t	 n.a.	 4.477707e-01
5	 2	 191	 unflanked	 rf	 8	 0.113300	 0.000000	 unflanked_rf_freq_8_amplitude_0.1133_rep_3_r_H.png	 H	 r	 r	 n.a.	 3.759843e-01
5	 2	 192	 unflanked	 rf	 5	 0.165000	 0.000000	 unflanked_rf_freq_5_amplitude_0.165_rep_5_r_N.png	 N	 r	 r	 n.a.	 1.704814e-01
5	 2	 193	 unflanked	 rf	 3	 0.320000	 0.000000	 unflanked_rf_freq_3_amplitude_0.32_rep_9_l_K.png	 K	 l	 l	 n.a.	 3.329801e-01
5	 2	 194	 unflanked	 rf	 5	 0.268300	 0.000000	 unflanked_rf_freq_5_amplitude_0.2683_rep_6_l_D.png	 D	 l	 l	 n.a.	 4.071606e-01
5	 2	 195	 unflanked	 rf	 5	 0.216700	 0.000000	 unflanked_rf_freq_5_amplitude_0.2167_rep_9_t_K.png	 K	 t	 t	 n.a.	 3.895083e-01
5	 2	 196	 unflanked	 rf	 12	 0.010000	 0.000000	 unflanked_rf_freq_12_amplitude_0.01_rep_7_l_K.png	 K	 l	 b	 n.a.	 5.847388e-01
5	 2	 197	 unflanked	 rf	 5	 0.165000	 0.000000	 unflanked_rf_freq_5_amplitude_0.165_rep_2_r_D.png	 D	 r	 r	 n.a.	 2.923760e-01
5	 2	 198	 unflanked	 rf	 2	 0.113300	 0.000000	 unflanked_rf_freq_2_amplitude_0.1133_rep_9_t_D.png	 D	 t	 r	 n.a.	 7.256052e-01
5	 2	 199	 unflanked	 rf	 3	 0.061700	 0.000000	 unflanked_rf_freq_3_amplitude_0.0617_rep_3_b_N.png	 N	 b	 t	 n.a.	 5.344313e-01
5	 2	 200	 unflanked	 rf	 12	 0.010000	 0.000000	 unflanked_rf_freq_12_amplitude_0.01_rep_4_t_D.png	 D	 t	 b	 n.a.	 4.497453e-01
5	 2	 201	 unflanked	 rf	 2	 0.165000	 0.000000	 unflanked_rf_freq_2_amplitude_0.165_rep_1_r_H.png	 H	 r	 r	 n.a.	 2.903191e-01
5	 2	 202	 unflanked	 rf	 3	 0.320000	 0.000000	 unflanked_rf_freq_3_amplitude_0.32_rep_4_r_N.png	 N	 r	 r	 n.a.	 3.409036e-01
5	 2	 203	 unflanked	 rf	 8	 0.268300	 0.000000	 unflanked_rf_freq_8_amplitude_0.2683_rep_7_r_H.png	 H	 r	 r	 n.a.	 2.746360e-01
5	 2	 204	 unflanked	 rf	 5	 0.061700	 0.000000	 unflanked_rf_freq_5_amplitude_0.0617_rep_2_t_D.png	 D	 t	 r	 n.a.	 3.973234e-01
5	 2	 205	 unflanked	 rf	 2	 0.165000	 0.000000	 unflanked_rf_freq_2_amplitude_0.165_rep_8_r_K.png	 K	 r	 r	 n.a.	 2.744088e-01
5	 2	 206	 unflanked	 rf	 8	 0.216700	 0.000000	 unflanked_rf_freq_8_amplitude_0.2167_rep_4_l_K.png	 K	 l	 l	 n.a.	 2.896104e-01
5	 2	 207	 unflanked	 rf	 3	 0.113300	 0.000000	 unflanked_rf_freq_3_amplitude_0.1133_rep_9_l_K.png	 K	 l	 r	 n.a.	 5.385362e-01
5	 2	 208	 unflanked	 rf	 4	 0.268300	 0.000000	 unflanked_rf_freq_4_amplitude_0.2683_rep_1_l_N.png	 N	 l	 l	 n.a.	 2.535009e-01
5	 2	 209	 unflanked	 rf	 2	 0.320000	 0.000000	 unflanked_rf_freq_2_amplitude_0.32_rep_1_r_N.png	 N	 r	 r	 n.a.	 2.433605e-01
5	 2	 210	 unflanked	 rf	 12	 0.216700	 0.000000	 unflanked_rf_freq_12_amplitude_0.2167_rep_8_b_N.png	 N	 b	 b	 n.a.	 4.455884e-01
5	 2	 211	 unflanked	 rf	 2	 0.320000	 0.000000	 unflanked_rf_freq_2_amplitude_0.32_rep_8_t_K.png	 K	 t	 t	 n.a.	 4.147460e-01
5	 2	 212	 unflanked	 rf	 2	 0.061700	 0.000000	 unflanked_rf_freq_2_amplitude_0.0617_rep_6_l_D.png	 D	 l	 b	 n.a.	 4.184184e-01
5	 2	 213	 unflanked	 rf	 5	 0.320000	 0.000000	 unflanked_rf_freq_5_amplitude_0.32_rep_6_r_H.png	 H	 r	 r	 n.a.	 2.167367e-01
5	 2	 214	 unflanked	 rf	 2	 0.010000	 0.000000	 unflanked_rf_freq_2_amplitude_0.01_rep_6_t_H.png	 H	 t	 r	 n.a.	 2.887324e-01
5	 2	 215	 unflanked	 rf	 4	 0.268300	 0.000000	 unflanked_rf_freq_4_amplitude_0.2683_rep_2_l_N.png	 N	 l	 l	 n.a.	 2.669545e-01
5	 2	 216	 unflanked	 rf	 12	 0.061700	 0.000000	 unflanked_rf_freq_12_amplitude_0.0617_rep_5_r_D.png	 D	 r	 r	 n.a.	 2.881924e-01
5	 2	 217	 unflanked	 rf	 4	 0.268300	 0.000000	 unflanked_rf_freq_4_amplitude_0.2683_rep_6_b_H.png	 H	 b	 b	 n.a.	 4.036549e-01
5	 2	 218	 unflanked	 rf	 2	 0.061700	 0.000000	 unflanked_rf_freq_2_amplitude_0.0617_rep_5_r_N.png	 N	 r	 t	 n.a.	 7.065416e-01
5	 2	 219	 unflanked	 rf	 2	 0.165000	 0.000000	 unflanked_rf_freq_2_amplitude_0.165_rep_3_b_H.png	 H	 b	 b	 n.a.	 7.569847e-01
5	 2	 220	 unflanked	 rf	 3	 0.216700	 0.000000	 unflanked_rf_freq_3_amplitude_0.2167_rep_2_r_N.png	 N	 r	 r	 n.a.	 3.224944e-01
5	 2	 221	 unflanked	 rf	 4	 0.010000	 0.000000	 unflanked_rf_freq_4_amplitude_0.01_rep_7_r_K.png	 K	 r	 b	 n.a.	 4.809448e-01
5	 2	 222	 unflanked	 rf	 5	 0.165000	 0.000000	 unflanked_rf_freq_5_amplitude_0.165_rep_6_t_D.png	 D	 t	 t	 n.a.	 4.560187e-01
5	 2	 223	 unflanked	 rf	 4	 0.268300	 0.000000	 unflanked_rf_freq_4_amplitude_0.2683_rep_9_t_N.png	 N	 t	 r	 n.a.	 4.670702e-01
5	 2	 224	 unflanked	 rf	 12	 0.320000	 0.000000	 unflanked_rf_freq_12_amplitude_0.32_rep_3_b_K.png	 K	 b	 b	 n.a.	 3.893735e-01
5	 2	 225	 unflanked	 rf	 3	 0.061700	 0.000000	 unflanked_rf_freq_3_amplitude_0.0617_rep_8_t_D.png	 D	 t	 l	 n.a.	 2.929200e-01
5	 2	 226	 unflanked	 rf	 4	 0.216700	 0.000000	 unflanked_rf_freq_4_amplitude_0.2167_rep_0_b_N.png	 N	 b	 b	 n.a.	 4.628401e-01
5	 2	 227	 unflanked	 rf	 5	 0.268300	 0.000000	 unflanked_rf_freq_5_amplitude_0.2683_rep_4_l_D.png	 D	 l	 l	 n.a.	 2.618111e-01
5	 2	 228	 unflanked	 rf	 4	 0.010000	 0.000000	 unflanked_rf_freq_4_amplitude_0.01_rep_6_b_N.png	 N	 b	 l	 n.a.	 4.330117e-01
5	 2	 229	 unflanked	 rf	 3	 0.113300	 0.000000	 unflanked_rf_freq_3_amplitude_0.1133_rep_4_l_D.png	 D	 l	 l	 n.a.	 3.431963e-01
5	 2	 230	 unflanked	 rf	 3	 0.268300	 0.000000	 unflanked_rf_freq_3_amplitude_0.2683_rep_7_r_K.png	 K	 r	 r	 n.a.	 2.509419e-01
5	 2	 231	 unflanked	 rf	 12	 0.010000	 0.000000	 unflanked_rf_freq_12_amplitude_0.01_rep_5_t_H.png	 H	 t	 l	 n.a.	 4.597832e-01
5	 2	 232	 unflanked	 rf	 5	 0.113300	 0.000000	 unflanked_rf_freq_5_amplitude_0.1133_rep_9_r_D.png	 D	 r	 r	 n.a.	 3.715693e-01
5	 2	 233	 unflanked	 rf	 3	 0.320000	 0.000000	 unflanked_rf_freq_3_amplitude_0.32_rep_8_r_K.png	 K	 r	 r	 n.a.	 2.638514e-01
5	 2	 234	 unflanked	 rf	 2	 0.165000	 0.000000	 unflanked_rf_freq_2_amplitude_0.165_rep_4_t_D.png	 D	 t	 t	 n.a.	 6.155825e-01
5	 2	 235	 unflanked	 rf	 2	 0.113300	 0.000000	 unflanked_rf_freq_2_amplitude_0.1133_rep_2_r_D.png	 D	 r	 r	 n.a.	 6.243604e-01
5	 2	 236	 unflanked	 rf	 8	 0.061700	 0.000000	 unflanked_rf_freq_8_amplitude_0.0617_rep_6_b_D.png	 D	 b	 b	 n.a.	 6.349194e-01
5	 2	 237	 unflanked	 rf	 3	 0.113300	 0.000000	 unflanked_rf_freq_3_amplitude_0.1133_rep_6_t_D.png	 D	 t	 t	 n.a.	 5.451049e-01
5	 2	 238	 unflanked	 rf	 4	 0.010000	 0.000000	 unflanked_rf_freq_4_amplitude_0.01_rep_1_r_D.png	 D	 r	 l	 n.a.	 3.737680e-01
5	 2	 239	 unflanked	 rf	 12	 0.113300	 0.000000	 unflanked_rf_freq_12_amplitude_0.1133_rep_7_r_K.png	 K	 r	 r	 n.a.	 2.729861e-01
5	 2	 240	 unflanked	 rf	 12	 0.113300	 0.000000	 unflanked_rf_freq_12_amplitude_0.1133_rep_4_b_D.png	 D	 b	 r	 n.a.	 6.251374e-01
5	 2	 241	 unflanked	 rf	 8	 0.061700	 0.000000	 unflanked_rf_freq_8_amplitude_0.0617_rep_3_l_D.png	 D	 l	 b	 n.a.	 4.560538e-01
5	 2	 242	 unflanked	 rf	 5	 0.268300	 0.000000	 unflanked_rf_freq_5_amplitude_0.2683_rep_0_r_N.png	 N	 r	 r	 n.a.	 3.136515e-01
5	 2	 243	 unflanked	 rf	 8	 0.216700	 0.000000	 unflanked_rf_freq_8_amplitude_0.2167_rep_7_l_N.png	 N	 l	 l	 n.a.	 3.068647e-01
5	 2	 244	 unflanked	 rf	 8	 0.061700	 0.000000	 unflanked_rf_freq_8_amplitude_0.0617_rep_4_r_N.png	 N	 r	 r	 n.a.	 4.279918e-01
5	 2	 245	 unflanked	 rf	 4	 0.061700	 0.000000	 unflanked_rf_freq_4_amplitude_0.0617_rep_0_r_D.png	 D	 r	 b	 n.a.	 5.190980e-01
5	 2	 246	 unflanked	 rf	 3	 0.061700	 0.000000	 unflanked_rf_freq_3_amplitude_0.0617_rep_1_t_K.png	 K	 t	 t	 n.a.	 6.749777e-01
5	 2	 247	 unflanked	 rf	 4	 0.113300	 0.000000	 unflanked_rf_freq_4_amplitude_0.1133_rep_8_l_H.png	 H	 l	 l	 n.a.	 3.675647e-01
5	 2	 248	 unflanked	 rf	 12	 0.165000	 0.000000	 unflanked_rf_freq_12_amplitude_0.165_rep_9_l_K.png	 K	 l	 l	 n.a.	 2.596262e-01
5	 2	 249	 unflanked	 rf	 8	 0.113300	 0.000000	 unflanked_rf_freq_8_amplitude_0.1133_rep_9_r_H.png	 H	 r	 r	 n.a.	 4.032054e-01
5	 2	 250	 unflanked	 rf	 8	 0.216700	 0.000000	 unflanked_rf_freq_8_amplitude_0.2167_rep_8_t_D.png	 D	 t	 t	 n.a.	 5.166382e-01
5	 2	 251	 unflanked	 rf	 4	 0.320000	 0.000000	 unflanked_rf_freq_4_amplitude_0.32_rep_4_l_H.png	 H	 l	 l	 n.a.	 2.449733e-01
5	 2	 252	 unflanked	 rf	 8	 0.061700	 0.000000	 unflanked_rf_freq_8_amplitude_0.0617_rep_9_r_N.png	 N	 r	 b	 n.a.	 4.682962e-01
5	 2	 253	 unflanked	 rf	 8	 0.268300	 0.000000	 unflanked_rf_freq_8_amplitude_0.2683_rep_8_l_K.png	 K	 l	 l	 n.a.	 2.338129e-01
5	 2	 254	 unflanked	 rf	 3	 0.113300	 0.000000	 unflanked_rf_freq_3_amplitude_0.1133_rep_2_r_H.png	 H	 r	 r	 n.a.	 3.532088e-01
5	 2	 255	 unflanked	 rf	 5	 0.061700	 0.000000	 unflanked_rf_freq_5_amplitude_0.0617_rep_9_r_H.png	 H	 r	 r	 n.a.	 2.519326e-01
5	 2	 256	 unflanked	 rf	 8	 0.010000	 0.000000	 unflanked_rf_freq_8_amplitude_0.01_rep_2_r_N.png	 N	 r	 t	 n.a.	 5.482491e-01
5	 2	 257	 unflanked	 rf	 12	 0.165000	 0.000000	 unflanked_rf_freq_12_amplitude_0.165_rep_7_b_K.png	 K	 b	 b	 n.a.	 3.467499e-01
5	 2	 258	 unflanked	 rf	 5	 0.268300	 0.000000	 unflanked_rf_freq_5_amplitude_0.2683_rep_7_t_K.png	 K	 t	 t	 n.a.	 6.603253e-01
5	 2	 259	 unflanked	 rf	 12	 0.268300	 0.000000	 unflanked_rf_freq_12_amplitude_0.2683_rep_9_l_K.png	 K	 l	 l	 n.a.	 2.329753e-01
5	 2	 260	 unflanked	 rf	 5	 0.061700	 0.000000	 unflanked_rf_freq_5_amplitude_0.0617_rep_8_t_N.png	 N	 t	 r	 n.a.	 4.168295e-01
5	 2	 261	 unflanked	 rf	 5	 0.320000	 0.000000	 unflanked_rf_freq_5_amplitude_0.32_rep_5_r_K.png	 K	 r	 r	 n.a.	 2.552783e-01
5	 2	 262	 unflanked	 rf	 2	 0.061700	 0.000000	 unflanked_rf_freq_2_amplitude_0.0617_rep_9_b_H.png	 H	 b	 r	 n.a.	 4.079690e-01
5	 2	 263	 unflanked	 rf	 12	 0.320000	 0.000000	 unflanked_rf_freq_12_amplitude_0.32_rep_8_t_K.png	 K	 t	 t	 n.a.	 4.587161e-01
5	 2	 264	 unflanked	 rf	 3	 0.268300	 0.000000	 unflanked_rf_freq_3_amplitude_0.2683_rep_9_l_H.png	 H	 l	 l	 n.a.	 2.149729e-01
5	 2	 265	 unflanked	 rf	 12	 0.216700	 0.000000	 unflanked_rf_freq_12_amplitude_0.2167_rep_6_b_D.png	 D	 b	 b	 n.a.	 4.597984e-01
5	 2	 266	 unflanked	 rf	 5	 0.268300	 0.000000	 unflanked_rf_freq_5_amplitude_0.2683_rep_9_l_K.png	 K	 l	 l	 n.a.	 3.046317e-01
5	 2	 267	 unflanked	 rf	 3	 0.268300	 0.000000	 unflanked_rf_freq_3_amplitude_0.2683_rep_3_t_H.png	 H	 t	 t	 n.a.	 5.478016e-01
5	 2	 268	 unflanked	 rf	 12	 0.268300	 0.000000	 unflanked_rf_freq_12_amplitude_0.2683_rep_1_b_N.png	 N	 b	 b	 n.a.	 5.491284e-01
5	 2	 269	 unflanked	 rf	 8	 0.165000	 0.000000	 unflanked_rf_freq_8_amplitude_0.165_rep_9_b_D.png	 D	 b	 b	 n.a.	 5.751601e-01
5	 2	 270	 unflanked	 rf	 12	 0.320000	 0.000000	 unflanked_rf_freq_12_amplitude_0.32_rep_2_t_N.png	 N	 t	 t	 n.a.	 2.739427e-01
5	 2	 271	 unflanked	 rf	 5	 0.216700	 0.000000	 unflanked_rf_freq_5_amplitude_0.2167_rep_5_t_N.png	 N	 t	 t	 n.a.	 4.441614e-01
5	 2	 272	 unflanked	 rf	 5	 0.268300	 0.000000	 unflanked_rf_freq_5_amplitude_0.2683_rep_2_t_D.png	 D	 t	 t	 n.a.	 3.655251e-01
5	 2	 273	 unflanked	 rf	 4	 0.061700	 0.000000	 unflanked_rf_freq_4_amplitude_0.0617_rep_3_b_D.png	 D	 b	 b	 n.a.	 6.793886e-01
5	 2	 274	 unflanked	 rf	 3	 0.010000	 0.000000	 unflanked_rf_freq_3_amplitude_0.01_rep_1_r_N.png	 N	 r	 r	 n.a.	 4.584223e-01
5	 2	 275	 unflanked	 rf	 12	 0.061700	 0.000000	 unflanked_rf_freq_12_amplitude_0.0617_rep_1_t_N.png	 N	 t	 r	 n.a.	 4.949853e-01
5	 2	 276	 unflanked	 rf	 5	 0.010000	 0.000000	 unflanked_rf_freq_5_amplitude_0.01_rep_5_b_D.png	 D	 b	 l	 n.a.	 3.693320e-01
5	 2	 277	 unflanked	 rf	 12	 0.061700	 0.000000	 unflanked_rf_freq_12_amplitude_0.0617_rep_3_b_H.png	 H	 b	 t	 n.a.	 4.934884e-01
5	 2	 278	 unflanked	 rf	 2	 0.113300	 0.000000	 unflanked_rf_freq_2_amplitude_0.1133_rep_5_l_N.png	 N	 l	 r	 n.a.	 4.257925e-01
5	 2	 279	 unflanked	 rf	 4	 0.268300	 0.000000	 unflanked_rf_freq_4_amplitude_0.2683_rep_4_l_N.png	 N	 l	 l	 n.a.	 2.775556e-01
5	 2	 280	 unflanked	 rf	 5	 0.216700	 0.000000	 unflanked_rf_freq_5_amplitude_0.2167_rep_4_t_D.png	 D	 t	 t	 n.a.	 5.012578e-01
5	 2	 281	 unflanked	 rf	 4	 0.320000	 0.000000	 unflanked_rf_freq_4_amplitude_0.32_rep_2_l_H.png	 H	 l	 l	 n.a.	 2.829332e-01
5	 2	 282	 unflanked	 rf	 2	 0.268300	 0.000000	 unflanked_rf_freq_2_amplitude_0.2683_rep_9_t_H.png	 H	 t	 t	 n.a.	 4.392514e-01
5	 2	 283	 unflanked	 rf	 3	 0.010000	 0.000000	 unflanked_rf_freq_3_amplitude_0.01_rep_6_r_K.png	 K	 r	 r	 n.a.	 5.080442e-01
5	 2	 284	 unflanked	 rf	 3	 0.268300	 0.000000	 unflanked_rf_freq_3_amplitude_0.2683_rep_6_r_H.png	 H	 r	 r	 n.a.	 2.362274e-01
5	 2	 285	 unflanked	 rf	 4	 0.113300	 0.000000	 unflanked_rf_freq_4_amplitude_0.1133_rep_3_b_H.png	 H	 b	 b	 n.a.	 5.689484e-01
5	 2	 286	 unflanked	 rf	 12	 0.216700	 0.000000	 unflanked_rf_freq_12_amplitude_0.2167_rep_0_b_N.png	 N	 b	 b	 n.a.	 2.604415e-01
5	 2	 287	 unflanked	 rf	 2	 0.165000	 0.000000	 unflanked_rf_freq_2_amplitude_0.165_rep_7_r_K.png	 K	 r	 r	 n.a.	 3.499260e-01
5	 2	 288	 unflanked	 rf	 8	 0.268300	 0.000000	 unflanked_rf_freq_8_amplitude_0.2683_rep_9_t_K.png	 K	 t	 t	 n.a.	 4.084045e-01
5	 2	 289	 unflanked	 rf	 3	 0.268300	 0.000000	 unflanked_rf_freq_3_amplitude_0.2683_rep_4_b_N.png	 N	 b	 b	 n.a.	 3.651487e-01
5	 2	 290	 unflanked	 rf	 4	 0.113300	 0.000000	 unflanked_rf_freq_4_amplitude_0.1133_rep_2_b_H.png	 H	 b	 b	 n.a.	 3.737897e-01
5	 2	 291	 unflanked	 rf	 3	 0.061700	 0.000000	 unflanked_rf_freq_3_amplitude_0.0617_rep_0_l_H.png	 H	 l	 l	 n.a.	 6.899477e-01
5	 2	 292	 unflanked	 rf	 8	 0.165000	 0.000000	 unflanked_rf_freq_8_amplitude_0.165_rep_3_t_N.png	 N	 t	 t	 n.a.	 4.191133e-01
5	 2	 293	 unflanked	 rf	 5	 0.061700	 0.000000	 unflanked_rf_freq_5_amplitude_0.0617_rep_0_r_H.png	 H	 r	 r	 n.a.	 3.695740e-01
5	 2	 294	 unflanked	 rf	 3	 0.216700	 0.000000	 unflanked_rf_freq_3_amplitude_0.2167_rep_7_b_K.png	 K	 b	 b	 n.a.	 4.042525e-01
5	 2	 295	 unflanked	 rf	 5	 0.268300	 0.000000	 unflanked_rf_freq_5_amplitude_0.2683_rep_5_l_N.png	 N	 l	 l	 n.a.	 2.283607e-01
5	 2	 296	 unflanked	 rf	 5	 0.010000	 0.000000	 unflanked_rf_freq_5_amplitude_0.01_rep_8_r_K.png	 K	 r	 b	 n.a.	 5.692808e-01
5	 2	 297	 unflanked	 rf	 8	 0.216700	 0.000000	 unflanked_rf_freq_8_amplitude_0.2167_rep_9_r_N.png	 N	 r	 r	 n.a.	 2.047646e-01
5	 2	 298	 unflanked	 rf	 4	 0.216700	 0.000000	 unflanked_rf_freq_4_amplitude_0.2167_rep_8_t_H.png	 H	 t	 t	 n.a.	 4.476501e-01
5	 2	 299	 unflanked	 rf	 2	 0.320000	 0.000000	 unflanked_rf_freq_2_amplitude_0.32_rep_2_b_K.png	 K	 b	 b	 n.a.	 4.559075e-01
5	 2	 300	 unflanked	 rf	 3	 0.113300	 0.000000	 unflanked_rf_freq_3_amplitude_0.1133_rep_1_t_N.png	 N	 t	 b	 n.a.	 5.084193e-01
5	 2	 301	 unflanked	 rf	 12	 0.165000	 0.000000	 unflanked_rf_freq_12_amplitude_0.165_rep_0_b_N.png	 N	 b	 b	 n.a.	 2.710670e-01
5	 2	 302	 unflanked	 rf	 8	 0.320000	 0.000000	 unflanked_rf_freq_8_amplitude_0.32_rep_1_r_H.png	 H	 r	 r	 n.a.	 3.962038e-01
5	 2	 303	 unflanked	 rf	 4	 0.216700	 0.000000	 unflanked_rf_freq_4_amplitude_0.2167_rep_7_t_N.png	 N	 t	 t	 n.a.	 4.594142e-01
5	 2	 304	 unflanked	 rf	 2	 0.320000	 0.000000	 unflanked_rf_freq_2_amplitude_0.32_rep_4_t_H.png	 H	 t	 t	 n.a.	 3.234603e-01
5	 2	 305	 unflanked	 rf	 5	 0.113300	 0.000000	 unflanked_rf_freq_5_amplitude_0.1133_rep_3_t_K.png	 K	 t	 t	 n.a.	 6.699362e-01
5	 2	 306	 unflanked	 rf	 2	 0.010000	 0.000000	 unflanked_rf_freq_2_amplitude_0.01_rep_4_t_D.png	 D	 t	 r	 n.a.	 5.778390e-01
5	 2	 307	 unflanked	 rf	 4	 0.113300	 0.000000	 unflanked_rf_freq_4_amplitude_0.1133_rep_1_l_D.png	 D	 l	 l	 n.a.	 4.544497e-01
5	 2	 308	 unflanked	 rf	 12	 0.216700	 0.000000	 unflanked_rf_freq_12_amplitude_0.2167_rep_1_l_D.png	 D	 l	 l	 n.a.	 3.049716e-01
5	 2	 309	 unflanked	 rf	 4	 0.216700	 0.000000	 unflanked_rf_freq_4_amplitude_0.2167_rep_6_b_D.png	 D	 b	 b	 n.a.	 4.352531e-01
5	 2	 310	 unflanked	 rf	 5	 0.165000	 0.000000	 unflanked_rf_freq_5_amplitude_0.165_rep_0_t_D.png	 D	 t	 t	 n.a.	 7.337174e-01
5	 2	 311	 unflanked	 rf	 4	 0.216700	 0.000000	 unflanked_rf_freq_4_amplitude_0.2167_rep_1_r_D.png	 D	 r	 r	 n.a.	 3.028397e-01
5	 2	 312	 unflanked	 rf	 2	 0.320000	 0.000000	 unflanked_rf_freq_2_amplitude_0.32_rep_5_b_N.png	 N	 b	 b	 n.a.	 5.248014e-01
5	 2	 313	 unflanked	 rf	 8	 0.320000	 0.000000	 unflanked_rf_freq_8_amplitude_0.32_rep_9_r_N.png	 N	 r	 r	 n.a.	 3.584942e-01
5	 2	 314	 unflanked	 rf	 8	 0.268300	 0.000000	 unflanked_rf_freq_8_amplitude_0.2683_rep_3_b_N.png	 N	 b	 b	 n.a.	 3.384000e-01
5	 2	 315	 unflanked	 rf	 3	 0.165000	 0.000000	 unflanked_rf_freq_3_amplitude_0.165_rep_7_r_D.png	 D	 r	 r	 n.a.	 3.282157e-01
5	 2	 316	 unflanked	 rf	 3	 0.061700	 0.000000	 unflanked_rf_freq_3_amplitude_0.0617_rep_2_r_N.png	 N	 r	 r	 n.a.	 5.706805e-01
5	 2	 317	 unflanked	 rf	 2	 0.268300	 0.000000	 unflanked_rf_freq_2_amplitude_0.2683_rep_4_t_D.png	 D	 t	 t	 n.a.	 5.167056e-01
5	 2	 318	 unflanked	 rf	 4	 0.010000	 0.000000	 unflanked_rf_freq_4_amplitude_0.01_rep_8_t_N.png	 N	 t	 l	 n.a.	 5.687858e-01
5	 2	 319	 unflanked	 rf	 12	 0.165000	 0.000000	 unflanked_rf_freq_12_amplitude_0.165_rep_6_b_K.png	 K	 b	 b	 n.a.	 3.602227e-01
5	 2	 320	 unflanked	 rf	 3	 0.010000	 0.000000	 unflanked_rf_freq_3_amplitude_0.01_rep_8_l_D.png	 D	 l	 t	 n.a.	 1.136571e+00
5	 2	 321	 unflanked	 rf	 5	 0.216700	 0.000000	 unflanked_rf_freq_5_amplitude_0.2167_rep_1_r_N.png	 N	 r	 r	 n.a.	 2.223880e-01
5	 2	 322	 unflanked	 rf	 2	 0.061700	 0.000000	 unflanked_rf_freq_2_amplitude_0.0617_rep_7_t_H.png	 H	 t	 l	 n.a.	 5.800136e-01
5	 2	 323	 unflanked	 rf	 2	 0.216700	 0.000000	 unflanked_rf_freq_2_amplitude_0.2167_rep_8_t_D.png	 D	 t	 t	 n.a.	 4.657050e-01
5	 2	 324	 unflanked	 rf	 8	 0.010000	 0.000000	 unflanked_rf_freq_8_amplitude_0.01_rep_3_l_N.png	 N	 l	 l	 n.a.	 1.402926e+00
5	 2	 325	 unflanked	 rf	 8	 0.165000	 0.000000	 unflanked_rf_freq_8_amplitude_0.165_rep_5_l_N.png	 N	 l	 l	 n.a.	 3.397851e-01
5	 2	 326	 unflanked	 rf	 3	 0.113300	 0.000000	 unflanked_rf_freq_3_amplitude_0.1133_rep_3_b_N.png	 N	 b	 r	 n.a.	 5.872455e-01
5	 2	 327	 unflanked	 rf	 3	 0.165000	 0.000000	 unflanked_rf_freq_3_amplitude_0.165_rep_0_b_H.png	 H	 b	 t	 n.a.	 5.440655e-01
5	 2	 328	 unflanked	 rf	 5	 0.061700	 0.000000	 unflanked_rf_freq_5_amplitude_0.0617_rep_4_r_H.png	 H	 r	 r	 n.a.	 3.971700e-01
5	 2	 329	 unflanked	 rf	 5	 0.010000	 0.000000	 unflanked_rf_freq_5_amplitude_0.01_rep_7_l_N.png	 N	 l	 b	 n.a.	 6.727035e-01
5	 2	 330	 unflanked	 rf	 2	 0.010000	 0.000000	 unflanked_rf_freq_2_amplitude_0.01_rep_0_r_H.png	 H	 r	 t	 n.a.	 6.994103e-01
5	 2	 331	 unflanked	 rf	 3	 0.010000	 0.000000	 unflanked_rf_freq_3_amplitude_0.01_rep_3_t_N.png	 N	 t	 b	 n.a.	 6.031465e-01
5	 2	 332	 unflanked	 rf	 8	 0.010000	 0.000000	 unflanked_rf_freq_8_amplitude_0.01_rep_8_b_D.png	 D	 b	 t	 n.a.	 1.197997e+00
5	 2	 333	 unflanked	 rf	 8	 0.268300	 0.000000	 unflanked_rf_freq_8_amplitude_0.2683_rep_5_b_N.png	 N	 b	 b	 n.a.	 4.792919e-01
5	 2	 334	 unflanked	 rf	 8	 0.165000	 0.000000	 unflanked_rf_freq_8_amplitude_0.165_rep_2_r_D.png	 D	 r	 r	 n.a.	 2.743895e-01
5	 2	 335	 unflanked	 rf	 3	 0.216700	 0.000000	 unflanked_rf_freq_3_amplitude_0.2167_rep_1_r_H.png	 H	 r	 r	 n.a.	 2.830392e-01
5	 2	 336	 unflanked	 rf	 4	 0.268300	 0.000000	 unflanked_rf_freq_4_amplitude_0.2683_rep_5_t_N.png	 N	 t	 t	 n.a.	 5.228736e-01
5	 2	 337	 unflanked	 rf	 8	 0.061700	 0.000000	 unflanked_rf_freq_8_amplitude_0.0617_rep_8_b_N.png	 N	 b	 r	 n.a.	 3.344973e-01
5	 2	 338	 unflanked	 rf	 8	 0.165000	 0.000000	 unflanked_rf_freq_8_amplitude_0.165_rep_1_b_N.png	 N	 b	 b	 n.a.	 3.857412e-01
5	 2	 339	 unflanked	 rf	 3	 0.113300	 0.000000	 unflanked_rf_freq_3_amplitude_0.1133_rep_5_t_H.png	 H	 t	 r	 n.a.	 5.271675e-01
5	 2	 340	 unflanked	 rf	 2	 0.216700	 0.000000	 unflanked_rf_freq_2_amplitude_0.2167_rep_4_l_N.png	 N	 l	 l	 n.a.	 3.069627e-01
5	 2	 341	 unflanked	 rf	 3	 0.010000	 0.000000	 unflanked_rf_freq_3_amplitude_0.01_rep_2_r_H.png	 H	 r	 l	 n.a.	 3.421046e-01
5	 2	 342	 unflanked	 rf	 2	 0.061700	 0.000000	 unflanked_rf_freq_2_amplitude_0.0617_rep_4_r_K.png	 K	 r	 l	 n.a.	 9.598260e-01
5	 2	 343	 unflanked	 rf	 4	 0.165000	 0.000000	 unflanked_rf_freq_4_amplitude_0.165_rep_2_t_K.png	 K	 t	 r	 n.a.	 4.488736e-01
5	 2	 344	 unflanked	 rf	 5	 0.216700	 0.000000	 unflanked_rf_freq_5_amplitude_0.2167_rep_0_r_H.png	 H	 r	 r	 n.a.	 3.023063e-01
5	 2	 345	 unflanked	 rf	 3	 0.216700	 0.000000	 unflanked_rf_freq_3_amplitude_0.2167_rep_4_t_N.png	 N	 t	 b	 n.a.	 4.056276e-01
5	 2	 346	 unflanked	 rf	 8	 0.165000	 0.000000	 unflanked_rf_freq_8_amplitude_0.165_rep_0_r_N.png	 N	 r	 r	 n.a.	 3.247036e-01
5	 2	 347	 unflanked	 rf	 12	 0.320000	 0.000000	 unflanked_rf_freq_12_amplitude_0.32_rep_1_r_N.png	 N	 r	 r	 n.a.	 3.103461e-01
5	 2	 348	 unflanked	 rf	 3	 0.165000	 0.000000	 unflanked_rf_freq_3_amplitude_0.165_rep_2_l_D.png	 D	 l	 t	 n.a.	 8.968054e-01
5	 2	 349	 unflanked	 rf	 5	 0.113300	 0.000000	 unflanked_rf_freq_5_amplitude_0.1133_rep_5_r_K.png	 K	 r	 r	 n.a.	 4.407336e-01
5	 2	 350	 unflanked	 rf	 3	 0.010000	 0.000000	 unflanked_rf_freq_3_amplitude_0.01_rep_9_t_N.png	 N	 t	 b	 n.a.	 7.930656e-01
5	 2	 351	 unflanked	 rf	 3	 0.165000	 0.000000	 unflanked_rf_freq_3_amplitude_0.165_rep_8_t_H.png	 H	 t	 t	 n.a.	 4.369120e-01
5	 2	 352	 unflanked	 rf	 5	 0.010000	 0.000000	 unflanked_rf_freq_5_amplitude_0.01_rep_6_t_D.png	 D	 t	 b	 n.a.	 9.050824e-01
5	 2	 353	 unflanked	 rf	 3	 0.268300	 0.000000	 unflanked_rf_freq_3_amplitude_0.2683_rep_1_b_H.png	 H	 b	 b	 n.a.	 3.592582e-01
5	 2	 354	 unflanked	 rf	 4	 0.216700	 0.000000	 unflanked_rf_freq_4_amplitude_0.2167_rep_2_b_D.png	 D	 b	 b	 n.a.	 3.833353e-01
5	 2	 355	 unflanked	 rf	 3	 0.010000	 0.000000	 unflanked_rf_freq_3_amplitude_0.01_rep_0_t_D.png	 D	 t	 r	 n.a.	 5.121820e-01
5	 2	 356	 unflanked	 rf	 8	 0.061700	 0.000000	 unflanked_rf_freq_8_amplitude_0.0617_rep_2_r_K.png	 K	 r	 r	 n.a.	 2.274961e-01
5	 2	 357	 unflanked	 rf	 2	 0.010000	 0.000000	 unflanked_rf_freq_2_amplitude_0.01_rep_2_r_D.png	 D	 r	 b	 n.a.	 3.706179e-01
5	 2	 358	 unflanked	 rf	 12	 0.165000	 0.000000	 unflanked_rf_freq_12_amplitude_0.165_rep_1_l_H.png	 H	 l	 l	 n.a.	 3.001678e-01
5	 2	 359	 unflanked	 rf	 5	 0.320000	 0.000000	 unflanked_rf_freq_5_amplitude_0.32_rep_9_t_D.png	 D	 t	 t	 n.a.	 5.391965e-01
5	 2	 360	 unflanked	 rf	 8	 0.268300	 0.000000	 unflanked_rf_freq_8_amplitude_0.2683_rep_1_r_H.png	 H	 r	 r	 n.a.	 3.961751e-01
5	 2	 361	 unflanked	 rf	 8	 0.165000	 0.000000	 unflanked_rf_freq_8_amplitude_0.165_rep_4_r_H.png	 H	 r	 r	 n.a.	 2.762684e-01
5	 2	 362	 unflanked	 rf	 4	 0.268300	 0.000000	 unflanked_rf_freq_4_amplitude_0.2683_rep_3_r_D.png	 D	 r	 r	 n.a.	 2.551982e-01
5	 2	 363	 unflanked	 rf	 4	 0.061700	 0.000000	 unflanked_rf_freq_4_amplitude_0.0617_rep_2_l_D.png	 D	 l	 r	 n.a.	 3.968191e-01
5	 2	 364	 unflanked	 rf	 8	 0.010000	 0.000000	 unflanked_rf_freq_8_amplitude_0.01_rep_0_t_D.png	 D	 t	 t	 n.a.	 7.679955e-01
5	 2	 365	 unflanked	 rf	 12	 0.268300	 0.000000	 unflanked_rf_freq_12_amplitude_0.2683_rep_3_l_K.png	 K	 l	 l	 n.a.	 3.183563e-01
5	 2	 366	 unflanked	 rf	 4	 0.165000	 0.000000	 unflanked_rf_freq_4_amplitude_0.165_rep_4_l_N.png	 N	 l	 l	 n.a.	 4.348639e-01
5	 2	 367	 unflanked	 rf	 8	 0.320000	 0.000000	 unflanked_rf_freq_8_amplitude_0.32_rep_5_r_D.png	 D	 r	 r	 n.a.	 1.844365e-01
5	 2	 368	 unflanked	 rf	 2	 0.113300	 0.000000	 unflanked_rf_freq_2_amplitude_0.1133_rep_3_b_K.png	 K	 b	 r	 n.a.	 3.886505e-01
5	 2	 369	 unflanked	 rf	 3	 0.061700	 0.000000	 unflanked_rf_freq_3_amplitude_0.0617_rep_4_l_N.png	 N	 l	 l	 n.a.	 5.302780e-01
5	 2	 370	 unflanked	 rf	 3	 0.113300	 0.000000	 unflanked_rf_freq_3_amplitude_0.1133_rep_8_b_D.png	 D	 b	 b	 n.a.	 7.783361e-01
5	 2	 371	 unflanked	 rf	 4	 0.010000	 0.000000	 unflanked_rf_freq_4_amplitude_0.01_rep_2_l_K.png	 K	 l	 b	 n.a.	 4.145804e-01
5	 2	 372	 unflanked	 rf	 4	 0.320000	 0.000000	 unflanked_rf_freq_4_amplitude_0.32_rep_6_t_N.png	 N	 t	 t	 n.a.	 5.415144e-01
5	 2	 373	 unflanked	 rf	 12	 0.061700	 0.000000	 unflanked_rf_freq_12_amplitude_0.0617_rep_7_b_D.png	 D	 b	 t	 n.a.	 8.922673e-01
5	 2	 374	 unflanked	 rf	 8	 0.320000	 0.000000	 unflanked_rf_freq_8_amplitude_0.32_rep_2_b_D.png	 D	 b	 b	 n.a.	 4.110518e-01
5	 2	 375	 unflanked	 rf	 12	 0.268300	 0.000000	 unflanked_rf_freq_12_amplitude_0.2683_rep_6_l_K.png	 K	 l	 l	 n.a.	 3.889925e-01
5	 2	 376	 unflanked	 rf	 2	 0.165000	 0.000000	 unflanked_rf_freq_2_amplitude_0.165_rep_0_l_D.png	 D	 l	 r	 n.a.	 6.426343e-01
5	 2	 377	 unflanked	 rf	 12	 0.268300	 0.000000	 unflanked_rf_freq_12_amplitude_0.2683_rep_2_l_H.png	 H	 l	 l	 n.a.	 2.509533e-01
5	 2	 378	 unflanked	 rf	 5	 0.216700	 0.000000	 unflanked_rf_freq_5_amplitude_0.2167_rep_3_b_N.png	 N	 b	 b	 n.a.	 5.356542e-01
5	 2	 379	 unflanked	 rf	 4	 0.113300	 0.000000	 unflanked_rf_freq_4_amplitude_0.1133_rep_6_t_N.png	 N	 t	 r	 n.a.	 5.677665e-01
5	 2	 380	 unflanked	 rf	 2	 0.113300	 0.000000	 unflanked_rf_freq_2_amplitude_0.1133_rep_6_l_N.png	 N	 l	 b	 n.a.	 5.945220e-01
5	 2	 381	 unflanked	 rf	 4	 0.216700	 0.000000	 unflanked_rf_freq_4_amplitude_0.2167_rep_4_b_D.png	 D	 b	 b	 n.a.	 3.156485e-01
5	 2	 382	 unflanked	 rf	 3	 0.320000	 0.000000	 unflanked_rf_freq_3_amplitude_0.32_rep_5_b_H.png	 H	 b	 b	 n.a.	 2.895305e-01
5	 2	 383	 unflanked	 rf	 2	 0.268300	 0.000000	 unflanked_rf_freq_2_amplitude_0.2683_rep_0_r_H.png	 H	 r	 r	 n.a.	 3.412092e-01
5	 2	 384	 unflanked	 rf	 12	 0.165000	 0.000000	 unflanked_rf_freq_12_amplitude_0.165_rep_8_t_N.png	 N	 t	 l	 n.a.	 7.708953e-01
5	 2	 385	 unflanked	 rf	 8	 0.010000	 0.000000	 unflanked_rf_freq_8_amplitude_0.01_rep_5_r_H.png	 H	 r	 t	 n.a.	 4.695888e-01
5	 2	 386	 unflanked	 rf	 8	 0.268300	 0.000000	 unflanked_rf_freq_8_amplitude_0.2683_rep_2_l_K.png	 K	 l	 l	 n.a.	 3.167665e-01
5	 2	 387	 unflanked	 rf	 3	 0.165000	 0.000000	 unflanked_rf_freq_3_amplitude_0.165_rep_9_l_N.png	 N	 l	 l	 n.a.	 3.172822e-01
5	 2	 388	 unflanked	 rf	 8	 0.061700	 0.000000	 unflanked_rf_freq_8_amplitude_0.0617_rep_5_t_K.png	 K	 t	 t	 n.a.	 6.381412e-01
5	 2	 389	 unflanked	 rf	 2	 0.320000	 0.000000	 unflanked_rf_freq_2_amplitude_0.32_rep_3_l_N.png	 N	 l	 l	 n.a.	 3.641264e-01
5	 2	 390	 unflanked	 rf	 3	 0.268300	 0.000000	 unflanked_rf_freq_3_amplitude_0.2683_rep_5_b_D.png	 D	 b	 b	 n.a.	 4.024083e-01
5	 2	 391	 unflanked	 rf	 5	 0.113300	 0.000000	 unflanked_rf_freq_5_amplitude_0.1133_rep_6_l_H.png	 H	 l	 l	 n.a.	 5.423565e-01
5	 2	 392	 unflanked	 rf	 5	 0.165000	 0.000000	 unflanked_rf_freq_5_amplitude_0.165_rep_4_l_N.png	 N	 l	 l	 n.a.	 3.225125e-01
5	 2	 393	 unflanked	 rf	 3	 0.113300	 0.000000	 unflanked_rf_freq_3_amplitude_0.1133_rep_7_b_D.png	 D	 b	 b	 n.a.	 5.455628e-01
5	 2	 394	 unflanked	 rf	 2	 0.268300	 0.000000	 unflanked_rf_freq_2_amplitude_0.2683_rep_6_t_D.png	 D	 t	 t	 n.a.	 6.262216e-01
5	 2	 395	 unflanked	 rf	 12	 0.113300	 0.000000	 unflanked_rf_freq_12_amplitude_0.1133_rep_0_l_K.png	 K	 l	 l	 n.a.	 8.891528e-01
5	 2	 396	 unflanked	 rf	 8	 0.216700	 0.000000	 unflanked_rf_freq_8_amplitude_0.2167_rep_5_t_N.png	 N	 t	 t	 n.a.	 3.461835e-01
5	 2	 397	 unflanked	 rf	 3	 0.216700	 0.000000	 unflanked_rf_freq_3_amplitude_0.2167_rep_5_b_D.png	 D	 b	 b	 n.a.	 4.048600e-01
5	 2	 398	 unflanked	 rf	 4	 0.061700	 0.000000	 unflanked_rf_freq_4_amplitude_0.0617_rep_7_r_D.png	 D	 r	 l	 n.a.	 5.450681e-01
5	 2	 399	 unflanked	 rf	 12	 0.165000	 0.000000	 unflanked_rf_freq_12_amplitude_0.165_rep_4_b_H.png	 H	 b	 b	 n.a.	 2.690484e-01
5	 2	 400	 unflanked	 rf	 8	 0.010000	 0.000000	 unflanked_rf_freq_8_amplitude_0.01_rep_4_r_H.png	 H	 r	 t	 n.a.	 1.317920e+00
5	 2	 401	 unflanked	 rf	 4	 0.268300	 0.000000	 unflanked_rf_freq_4_amplitude_0.2683_rep_7_l_D.png	 D	 l	 l	 n.a.	 3.605986e-01
5	 2	 402	 unflanked	 rf	 5	 0.061700	 0.000000	 unflanked_rf_freq_5_amplitude_0.0617_rep_1_b_H.png	 H	 b	 b	 n.a.	 3.795470e-01
5	 2	 403	 unflanked	 rf	 4	 0.320000	 0.000000	 unflanked_rf_freq_4_amplitude_0.32_rep_9_t_H.png	 H	 t	 t	 n.a.	 5.094913e-01
5	 2	 404	 unflanked	 rf	 8	 0.320000	 0.000000	 unflanked_rf_freq_8_amplitude_0.32_rep_8_l_N.png	 N	 l	 l	 n.a.	 3.343953e-01
5	 2	 405	 unflanked	 rf	 12	 0.165000	 0.000000	 unflanked_rf_freq_12_amplitude_0.165_rep_3_r_H.png	 H	 r	 r	 n.a.	 4.295047e-01
5	 2	 406	 unflanked	 rf	 12	 0.061700	 0.000000	 unflanked_rf_freq_12_amplitude_0.0617_rep_2_b_H.png	 H	 b	 b	 n.a.	 6.139930e-01
5	 2	 407	 unflanked	 rf	 12	 0.268300	 0.000000	 unflanked_rf_freq_12_amplitude_0.2683_rep_8_r_D.png	 D	 r	 r	 n.a.	 3.138147e-01
5	 2	 408	 unflanked	 rf	 3	 0.061700	 0.000000	 unflanked_rf_freq_3_amplitude_0.0617_rep_6_t_D.png	 D	 t	 r	 n.a.	 4.096105e-01
5	 2	 409	 unflanked	 rf	 3	 0.165000	 0.000000	 unflanked_rf_freq_3_amplitude_0.165_rep_4_r_N.png	 N	 r	 r	 n.a.	 7.365314e-01
5	 2	 410	 unflanked	 rf	 2	 0.010000	 0.000000	 unflanked_rf_freq_2_amplitude_0.01_rep_5_l_H.png	 H	 l	 t	 n.a.	 6.615891e-01
5	 2	 411	 unflanked	 rf	 12	 0.010000	 0.000000	 unflanked_rf_freq_12_amplitude_0.01_rep_6_r_K.png	 K	 r	 r	 n.a.	 4.441818e-01
5	 2	 412	 unflanked	 rf	 12	 0.010000	 0.000000	 unflanked_rf_freq_12_amplitude_0.01_rep_0_b_K.png	 K	 b	 t	 n.a.	 1.259235e+00
5	 2	 413	 unflanked	 rf	 4	 0.165000	 0.000000	 unflanked_rf_freq_4_amplitude_0.165_rep_3_b_D.png	 D	 b	 b	 n.a.	 2.977571e-01
5	 2	 414	 unflanked	 rf	 4	 0.165000	 0.000000	 unflanked_rf_freq_4_amplitude_0.165_rep_9_t_N.png	 N	 t	 t	 n.a.	 8.387069e-01
5	 2	 415	 unflanked	 rf	 12	 0.320000	 0.000000	 unflanked_rf_freq_12_amplitude_0.32_rep_9_t_N.png	 N	 t	 t	 n.a.	 9.776051e-01
5	 2	 416	 unflanked	 rf	 3	 0.010000	 0.000000	 unflanked_rf_freq_3_amplitude_0.01_rep_7_b_K.png	 K	 b	 l	 n.a.	 5.022023e-01
5	 2	 417	 unflanked	 rf	 5	 0.216700	 0.000000	 unflanked_rf_freq_5_amplitude_0.2167_rep_6_r_H.png	 H	 r	 r	 n.a.	 2.557315e-01
5	 2	 418	 unflanked	 rf	 8	 0.165000	 0.000000	 unflanked_rf_freq_8_amplitude_0.165_rep_7_b_D.png	 D	 b	 b	 n.a.	 3.598152e-01
5	 2	 419	 unflanked	 rf	 12	 0.010000	 0.000000	 unflanked_rf_freq_12_amplitude_0.01_rep_9_t_K.png	 K	 t	 t	 n.a.	 7.689144e-01
5	 2	 420	 unflanked	 rf	 3	 0.268300	 0.000000	 unflanked_rf_freq_3_amplitude_0.2683_rep_2_r_N.png	 N	 r	 r	 n.a.	 3.851088e-01
