subject	 session	 trial	 flanked	 distortion	 freq	 amplitude	 spacing	 im_name	 targ_letter	 targ_pos	 response	 eyemovement	 RT
7	 4	 1	 flanked	 bex	 4	 1.500000	 2.000000	 flanked_bex_freq_4_amplitude_1.5_rep_2_b_K_2.0.png	 K	 b	 t	 n.a.	 4.081925e-01
7	 4	 2	 flanked	 bex	 6	 3.000000	 2.000000	 flanked_bex_freq_6_amplitude_3_rep_7_t_K_2.0.png	 K	 t	 t	 n.a.	 3.477288e-01
7	 4	 3	 flanked	 bex	 6	 0.250000	 2.000000	 flanked_bex_freq_6_amplitude_0.25_rep_1_b_H_2.0.png	 H	 b	 r	 n.a.	 1.006845e+00
7	 4	 4	 flanked	 bex	 4	 3.000000	 2.000000	 flanked_bex_freq_4_amplitude_3_rep_3_r_D_2.0.png	 D	 r	 r	 n.a.	 3.892660e-01
7	 4	 5	 flanked	 bex	 8	 1.000000	 2.000000	 flanked_bex_freq_8_amplitude_1_rep_0_r_H_2.0.png	 H	 r	 r	 n.a.	 7.142022e-01
7	 4	 6	 flanked	 bex	 8	 1.500000	 2.000000	 flanked_bex_freq_8_amplitude_1.5_rep_5_l_N_2.0.png	 N	 l	 b	 n.a.	 6.209698e-01
7	 4	 7	 flanked	 bex	 4	 3.000000	 2.000000	 flanked_bex_freq_4_amplitude_3_rep_5_r_D_2.0.png	 D	 r	 r	 n.a.	 4.380796e-01
7	 4	 8	 flanked	 bex	 16	 1.500000	 2.000000	 flanked_bex_freq_16_amplitude_1.5_rep_9_r_H_2.0.png	 H	 r	 t	 n.a.	 4.502142e-01
7	 4	 9	 flanked	 bex	 32	 2.000000	 2.000000	 flanked_bex_freq_32_amplitude_2_rep_7_b_K_2.0.png	 K	 b	 r	 n.a.	 7.432125e-01
7	 4	 10	 flanked	 bex	 16	 0.250000	 2.000000	 flanked_bex_freq_16_amplitude_0.25_rep_9_b_N_2.0.png	 N	 b	 t	 n.a.	 6.020955e-01
7	 4	 11	 flanked	 bex	 2	 2.500000	 2.000000	 flanked_bex_freq_2_amplitude_2.5_rep_7_l_K_2.0.png	 K	 l	 b	 n.a.	 9.673990e-01
7	 4	 12	 flanked	 bex	 32	 2.500000	 2.000000	 flanked_bex_freq_32_amplitude_2.5_rep_2_b_H_2.0.png	 H	 b	 r	 n.a.	 5.968222e-01
7	 4	 13	 flanked	 bex	 32	 0.500000	 2.000000	 flanked_bex_freq_32_amplitude_0.5_rep_4_t_H_2.0.png	 H	 t	 b	 n.a.	 6.743809e-01
7	 4	 14	 flanked	 bex	 4	 0.250000	 2.000000	 flanked_bex_freq_4_amplitude_0.25_rep_4_l_K_2.0.png	 K	 l	 l	 n.a.	 6.114759e-01
7	 4	 15	 flanked	 bex	 6	 2.500000	 2.000000	 flanked_bex_freq_6_amplitude_2.5_rep_0_r_N_2.0.png	 N	 r	 r	 n.a.	 3.745539e-01
7	 4	 16	 flanked	 bex	 8	 0.500000	 2.000000	 flanked_bex_freq_8_amplitude_0.5_rep_8_l_D_2.0.png	 D	 l	 b	 n.a.	 6.013074e-01
7	 4	 17	 flanked	 bex	 8	 2.000000	 2.000000	 flanked_bex_freq_8_amplitude_2_rep_5_t_D_2.0.png	 D	 t	 t	 n.a.	 3.622067e-01
7	 4	 18	 flanked	 bex	 8	 0.250000	 2.000000	 flanked_bex_freq_8_amplitude_0.25_rep_5_l_H_2.0.png	 H	 l	 r	 n.a.	 5.694283e-01
7	 4	 19	 flanked	 bex	 2	 2.500000	 2.000000	 flanked_bex_freq_2_amplitude_2.5_rep_5_t_N_2.0.png	 N	 t	 b	 n.a.	 7.809014e-01
7	 4	 20	 flanked	 bex	 8	 2.500000	 2.000000	 flanked_bex_freq_8_amplitude_2.5_rep_5_r_K_2.0.png	 K	 r	 r	 n.a.	 4.304695e-01
7	 4	 21	 flanked	 bex	 32	 2.000000	 2.000000	 flanked_bex_freq_32_amplitude_2_rep_8_l_N_2.0.png	 N	 l	 b	 n.a.	 9.152612e-01
7	 4	 22	 flanked	 bex	 2	 0.500000	 2.000000	 flanked_bex_freq_2_amplitude_0.5_rep_0_b_H_2.0.png	 H	 b	 l	 n.a.	 8.181470e-01
7	 4	 23	 flanked	 bex	 16	 1.500000	 2.000000	 flanked_bex_freq_16_amplitude_1.5_rep_4_r_K_2.0.png	 K	 r	 r	 n.a.	 1.529224e+00
7	 4	 24	 flanked	 bex	 8	 3.000000	 2.000000	 flanked_bex_freq_8_amplitude_3_rep_9_l_K_2.0.png	 K	 l	 l	 n.a.	 4.010547e-01
7	 4	 25	 flanked	 bex	 6	 0.500000	 2.000000	 flanked_bex_freq_6_amplitude_0.5_rep_3_t_K_2.0.png	 K	 t	 t	 n.a.	 3.328445e-01
7	 4	 26	 flanked	 bex	 8	 2.500000	 2.000000	 flanked_bex_freq_8_amplitude_2.5_rep_4_b_D_2.0.png	 D	 b	 b	 n.a.	 3.791116e-01
7	 4	 27	 flanked	 bex	 4	 2.500000	 2.000000	 flanked_bex_freq_4_amplitude_2.5_rep_4_l_H_2.0.png	 H	 l	 l	 n.a.	 4.555182e-01
7	 4	 28	 flanked	 bex	 16	 3.000000	 2.000000	 flanked_bex_freq_16_amplitude_3_rep_9_r_K_2.0.png	 K	 r	 r	 n.a.	 3.255228e-01
7	 4	 29	 flanked	 bex	 4	 1.000000	 2.000000	 flanked_bex_freq_4_amplitude_1_rep_2_b_D_2.0.png	 D	 b	 b	 n.a.	 5.447932e-01
7	 4	 30	 flanked	 bex	 4	 0.250000	 2.000000	 flanked_bex_freq_4_amplitude_0.25_rep_2_l_H_2.0.png	 H	 l	 b	 n.a.	 5.794528e-01
7	 4	 31	 flanked	 bex	 32	 1.500000	 2.000000	 flanked_bex_freq_32_amplitude_1.5_rep_5_l_N_2.0.png	 N	 l	 b	 n.a.	 5.212867e-01
7	 4	 32	 flanked	 bex	 4	 1.000000	 2.000000	 flanked_bex_freq_4_amplitude_1_rep_1_r_N_2.0.png	 N	 r	 r	 n.a.	 5.767734e-01
7	 4	 33	 flanked	 bex	 4	 0.250000	 2.000000	 flanked_bex_freq_4_amplitude_0.25_rep_1_l_H_2.0.png	 H	 l	 b	 n.a.	 5.729361e-01
7	 4	 34	 flanked	 bex	 6	 2.000000	 2.000000	 flanked_bex_freq_6_amplitude_2_rep_4_t_D_2.0.png	 D	 t	 l	 n.a.	 6.736515e-01
7	 4	 35	 flanked	 bex	 8	 1.500000	 2.000000	 flanked_bex_freq_8_amplitude_1.5_rep_8_b_H_2.0.png	 H	 b	 t	 n.a.	 5.812751e-01
7	 4	 36	 flanked	 bex	 6	 3.000000	 2.000000	 flanked_bex_freq_6_amplitude_3_rep_6_l_D_2.0.png	 D	 l	 l	 n.a.	 4.116469e-01
7	 4	 37	 flanked	 bex	 16	 2.500000	 2.000000	 flanked_bex_freq_16_amplitude_2.5_rep_7_r_D_2.0.png	 D	 r	 r	 n.a.	 3.938054e-01
7	 4	 38	 flanked	 bex	 32	 2.500000	 2.000000	 flanked_bex_freq_32_amplitude_2.5_rep_5_r_N_2.0.png	 N	 r	 r	 n.a.	 4.699448e-01
7	 4	 39	 flanked	 bex	 16	 0.500000	 2.000000	 flanked_bex_freq_16_amplitude_0.5_rep_8_t_H_2.0.png	 H	 t	 b	 n.a.	 1.117141e+00
7	 4	 40	 flanked	 bex	 2	 3.000000	 2.000000	 flanked_bex_freq_2_amplitude_3_rep_6_b_N_2.0.png	 N	 b	 b	 n.a.	 6.366368e-01
7	 4	 41	 flanked	 bex	 6	 0.250000	 2.000000	 flanked_bex_freq_6_amplitude_0.25_rep_6_l_H_2.0.png	 H	 l	 t	 n.a.	 6.619287e-01
7	 4	 42	 flanked	 bex	 32	 1.500000	 2.000000	 flanked_bex_freq_32_amplitude_1.5_rep_3_r_D_2.0.png	 D	 r	 r	 n.a.	 4.180848e-01
7	 4	 43	 flanked	 bex	 2	 2.500000	 2.000000	 flanked_bex_freq_2_amplitude_2.5_rep_4_b_N_2.0.png	 N	 b	 b	 n.a.	 4.304619e-01
7	 4	 44	 flanked	 bex	 2	 1.500000	 2.000000	 flanked_bex_freq_2_amplitude_1.5_rep_3_b_N_2.0.png	 N	 b	 r	 n.a.	 7.375238e-01
7	 4	 45	 flanked	 bex	 6	 1.500000	 2.000000	 flanked_bex_freq_6_amplitude_1.5_rep_0_b_N_2.0.png	 N	 b	 b	 n.a.	 4.907554e-01
7	 4	 46	 flanked	 bex	 6	 0.500000	 2.000000	 flanked_bex_freq_6_amplitude_0.5_rep_6_r_K_2.0.png	 K	 r	 b	 n.a.	 8.835290e-01
7	 4	 47	 flanked	 bex	 6	 0.500000	 2.000000	 flanked_bex_freq_6_amplitude_0.5_rep_7_r_K_2.0.png	 K	 r	 b	 n.a.	 8.259140e-01
7	 4	 48	 flanked	 bex	 2	 2.500000	 2.000000	 flanked_bex_freq_2_amplitude_2.5_rep_8_r_H_2.0.png	 H	 r	 t	 n.a.	 1.009849e+00
7	 4	 49	 flanked	 bex	 16	 2.500000	 2.000000	 flanked_bex_freq_16_amplitude_2.5_rep_4_t_H_2.0.png	 H	 t	 t	 n.a.	 6.594116e-01
7	 4	 50	 flanked	 bex	 16	 2.000000	 2.000000	 flanked_bex_freq_16_amplitude_2_rep_6_t_D_2.0.png	 D	 t	 r	 n.a.	 5.475336e-01
7	 4	 51	 flanked	 bex	 32	 3.000000	 2.000000	 flanked_bex_freq_32_amplitude_3_rep_8_b_K_2.0.png	 K	 b	 b	 n.a.	 7.954213e-01
7	 4	 52	 flanked	 bex	 16	 2.000000	 2.000000	 flanked_bex_freq_16_amplitude_2_rep_0_r_N_2.0.png	 N	 r	 r	 n.a.	 5.709443e-01
7	 4	 53	 flanked	 bex	 8	 1.500000	 2.000000	 flanked_bex_freq_8_amplitude_1.5_rep_1_b_H_2.0.png	 H	 b	 b	 n.a.	 4.940696e-01
7	 4	 54	 flanked	 bex	 32	 2.000000	 2.000000	 flanked_bex_freq_32_amplitude_2_rep_9_l_N_2.0.png	 N	 l	 t	 n.a.	 6.040707e-01
7	 4	 55	 flanked	 bex	 4	 0.250000	 2.000000	 flanked_bex_freq_4_amplitude_0.25_rep_6_l_D_2.0.png	 D	 l	 t	 n.a.	 7.418219e-01
7	 4	 56	 flanked	 bex	 16	 2.500000	 2.000000	 flanked_bex_freq_16_amplitude_2.5_rep_3_l_N_2.0.png	 N	 l	 l	 n.a.	 4.638868e-01
7	 4	 57	 flanked	 bex	 8	 3.000000	 2.000000	 flanked_bex_freq_8_amplitude_3_rep_0_b_K_2.0.png	 K	 b	 b	 n.a.	 4.340681e-01
7	 4	 58	 flanked	 bex	 8	 1.000000	 2.000000	 flanked_bex_freq_8_amplitude_1_rep_4_t_N_2.0.png	 N	 t	 t	 n.a.	 4.008859e-01
7	 4	 59	 flanked	 bex	 2	 0.250000	 2.000000	 flanked_bex_freq_2_amplitude_0.25_rep_9_t_D_2.0.png	 D	 t	 l	 n.a.	 9.619793e-01
7	 4	 60	 flanked	 bex	 16	 0.500000	 2.000000	 flanked_bex_freq_16_amplitude_0.5_rep_1_l_D_2.0.png	 D	 l	 t	 n.a.	 7.689935e-01
7	 4	 61	 flanked	 bex	 4	 1.500000	 2.000000	 flanked_bex_freq_4_amplitude_1.5_rep_8_r_N_2.0.png	 N	 r	 l	 n.a.	 4.949572e-01
7	 4	 62	 flanked	 bex	 16	 2.500000	 2.000000	 flanked_bex_freq_16_amplitude_2.5_rep_2_r_H_2.0.png	 H	 r	 r	 n.a.	 3.044944e-01
7	 4	 63	 flanked	 bex	 4	 0.500000	 2.000000	 flanked_bex_freq_4_amplitude_0.5_rep_8_l_H_2.0.png	 H	 l	 t	 n.a.	 4.901745e-01
7	 4	 64	 flanked	 bex	 8	 0.250000	 2.000000	 flanked_bex_freq_8_amplitude_0.25_rep_7_l_H_2.0.png	 H	 l	 b	 n.a.	 3.842024e-01
7	 4	 65	 flanked	 bex	 16	 1.000000	 2.000000	 flanked_bex_freq_16_amplitude_1_rep_3_l_K_2.0.png	 K	 l	 l	 n.a.	 3.999337e-01
7	 4	 66	 flanked	 bex	 2	 2.000000	 2.000000	 flanked_bex_freq_2_amplitude_2_rep_5_t_D_2.0.png	 D	 t	 r	 n.a.	 7.275021e-01
7	 4	 67	 flanked	 bex	 32	 2.500000	 2.000000	 flanked_bex_freq_32_amplitude_2.5_rep_0_l_D_2.0.png	 D	 l	 l	 n.a.	 3.982917e-01
7	 4	 68	 flanked	 bex	 32	 2.500000	 2.000000	 flanked_bex_freq_32_amplitude_2.5_rep_8_b_H_2.0.png	 H	 b	 b	 n.a.	 8.155013e-01
7	 4	 69	 flanked	 bex	 16	 0.500000	 2.000000	 flanked_bex_freq_16_amplitude_0.5_rep_7_l_N_2.0.png	 N	 l	 r	 n.a.	 6.374092e-01
7	 4	 70	 flanked	 bex	 16	 0.500000	 2.000000	 flanked_bex_freq_16_amplitude_0.5_rep_9_b_N_2.0.png	 N	 b	 l	 n.a.	 4.367194e-01
7	 4	 71	 flanked	 bex	 2	 2.500000	 2.000000	 flanked_bex_freq_2_amplitude_2.5_rep_0_r_K_2.0.png	 K	 r	 r	 n.a.	 4.763887e-01
7	 4	 72	 flanked	 bex	 16	 2.500000	 2.000000	 flanked_bex_freq_16_amplitude_2.5_rep_9_r_N_2.0.png	 N	 r	 r	 n.a.	 3.924508e-01
7	 4	 73	 flanked	 bex	 8	 0.500000	 2.000000	 flanked_bex_freq_8_amplitude_0.5_rep_6_t_N_2.0.png	 N	 t	 b	 n.a.	 5.756423e-01
7	 4	 74	 flanked	 bex	 16	 0.250000	 2.000000	 flanked_bex_freq_16_amplitude_0.25_rep_0_b_K_2.0.png	 K	 b	 r	 n.a.	 5.210545e-01
7	 4	 75	 flanked	 bex	 4	 0.250000	 2.000000	 flanked_bex_freq_4_amplitude_0.25_rep_3_r_K_2.0.png	 K	 r	 r	 n.a.	 5.599889e-01
7	 4	 76	 flanked	 bex	 16	 0.250000	 2.000000	 flanked_bex_freq_16_amplitude_0.25_rep_2_l_H_2.0.png	 H	 l	 b	 n.a.	 8.112144e-01
7	 4	 77	 flanked	 bex	 32	 0.500000	 2.000000	 flanked_bex_freq_32_amplitude_0.5_rep_5_r_K_2.0.png	 K	 r	 t	 n.a.	 3.946708e-01
7	 4	 78	 flanked	 bex	 8	 1.000000	 2.000000	 flanked_bex_freq_8_amplitude_1_rep_7_t_D_2.0.png	 D	 t	 r	 n.a.	 8.364664e-01
7	 4	 79	 flanked	 bex	 32	 2.000000	 2.000000	 flanked_bex_freq_32_amplitude_2_rep_6_l_D_2.0.png	 D	 l	 l	 n.a.	 5.624997e-01
7	 4	 80	 flanked	 bex	 4	 3.000000	 2.000000	 flanked_bex_freq_4_amplitude_3_rep_8_b_N_2.0.png	 N	 b	 b	 n.a.	 4.805496e-01
7	 4	 81	 flanked	 bex	 16	 3.000000	 2.000000	 flanked_bex_freq_16_amplitude_3_rep_3_r_N_2.0.png	 N	 r	 r	 n.a.	 3.914111e-01
7	 4	 82	 flanked	 bex	 6	 3.000000	 2.000000	 flanked_bex_freq_6_amplitude_3_rep_1_b_N_2.0.png	 N	 b	 b	 n.a.	 4.874045e-01
7	 4	 83	 flanked	 bex	 16	 1.000000	 2.000000	 flanked_bex_freq_16_amplitude_1_rep_8_l_K_2.0.png	 K	 l	 l	 n.a.	 4.678301e-01
7	 4	 84	 flanked	 bex	 4	 2.500000	 2.000000	 flanked_bex_freq_4_amplitude_2.5_rep_5_r_H_2.0.png	 H	 r	 r	 n.a.	 3.710067e-01
7	 4	 85	 flanked	 bex	 16	 1.000000	 2.000000	 flanked_bex_freq_16_amplitude_1_rep_6_l_N_2.0.png	 N	 l	 l	 n.a.	 4.346803e-01
7	 4	 86	 flanked	 bex	 2	 1.500000	 2.000000	 flanked_bex_freq_2_amplitude_1.5_rep_8_l_D_2.0.png	 D	 l	 t	 n.a.	 4.295528e-01
7	 4	 87	 flanked	 bex	 4	 1.000000	 2.000000	 flanked_bex_freq_4_amplitude_1_rep_0_b_D_2.0.png	 D	 b	 r	 n.a.	 3.953674e-01
7	 4	 88	 flanked	 bex	 6	 1.000000	 2.000000	 flanked_bex_freq_6_amplitude_1_rep_4_r_H_2.0.png	 H	 r	 r	 n.a.	 4.195602e-01
7	 4	 89	 flanked	 bex	 4	 3.000000	 2.000000	 flanked_bex_freq_4_amplitude_3_rep_2_t_N_2.0.png	 N	 t	 t	 n.a.	 4.495275e-01
7	 4	 90	 flanked	 bex	 16	 1.500000	 2.000000	 flanked_bex_freq_16_amplitude_1.5_rep_8_l_N_2.0.png	 N	 l	 l	 n.a.	 5.633691e-01
7	 4	 91	 flanked	 bex	 16	 0.250000	 2.000000	 flanked_bex_freq_16_amplitude_0.25_rep_8_t_N_2.0.png	 N	 t	 t	 n.a.	 4.785914e-01
7	 4	 92	 flanked	 bex	 32	 2.500000	 2.000000	 flanked_bex_freq_32_amplitude_2.5_rep_6_r_K_2.0.png	 K	 r	 r	 n.a.	 4.520134e-01
7	 4	 93	 flanked	 bex	 8	 0.500000	 2.000000	 flanked_bex_freq_8_amplitude_0.5_rep_9_t_D_2.0.png	 D	 t	 r	 n.a.	 6.216618e-01
7	 4	 94	 flanked	 bex	 6	 2.000000	 2.000000	 flanked_bex_freq_6_amplitude_2_rep_5_t_D_2.0.png	 D	 t	 t	 n.a.	 4.035775e-01
7	 4	 95	 flanked	 bex	 2	 0.250000	 2.000000	 flanked_bex_freq_2_amplitude_0.25_rep_1_t_D_2.0.png	 D	 t	 b	 n.a.	 8.358099e-01
7	 4	 96	 flanked	 bex	 4	 3.000000	 2.000000	 flanked_bex_freq_4_amplitude_3_rep_0_l_K_2.0.png	 K	 l	 l	 n.a.	 4.335440e-01
7	 4	 97	 flanked	 bex	 4	 2.000000	 2.000000	 flanked_bex_freq_4_amplitude_2_rep_3_r_H_2.0.png	 H	 r	 r	 n.a.	 3.947455e-01
7	 4	 98	 flanked	 bex	 4	 3.000000	 2.000000	 flanked_bex_freq_4_amplitude_3_rep_7_b_D_2.0.png	 D	 b	 b	 n.a.	 7.234147e-01
7	 4	 99	 flanked	 bex	 2	 1.000000	 2.000000	 flanked_bex_freq_2_amplitude_1_rep_0_t_K_2.0.png	 K	 t	 b	 n.a.	 6.869686e-01
7	 4	 100	 flanked	 bex	 8	 3.000000	 2.000000	 flanked_bex_freq_8_amplitude_3_rep_5_t_H_2.0.png	 H	 t	 t	 n.a.	 4.335469e-01
7	 4	 101	 flanked	 bex	 8	 0.250000	 2.000000	 flanked_bex_freq_8_amplitude_0.25_rep_9_b_D_2.0.png	 D	 b	 t	 n.a.	 6.278410e-01
7	 4	 102	 flanked	 bex	 8	 0.250000	 2.000000	 flanked_bex_freq_8_amplitude_0.25_rep_4_l_K_2.0.png	 K	 l	 l	 n.a.	 6.928716e-01
7	 4	 103	 flanked	 bex	 6	 1.000000	 2.000000	 flanked_bex_freq_6_amplitude_1_rep_9_t_K_2.0.png	 K	 t	 b	 n.a.	 1.633673e+00
7	 4	 104	 flanked	 bex	 4	 0.500000	 2.000000	 flanked_bex_freq_4_amplitude_0.5_rep_6_l_H_2.0.png	 H	 l	 t	 n.a.	 8.470560e-01
7	 4	 105	 flanked	 bex	 6	 1.000000	 2.000000	 flanked_bex_freq_6_amplitude_1_rep_6_b_K_2.0.png	 K	 b	 b	 n.a.	 8.374977e-01
7	 4	 106	 flanked	 bex	 6	 2.000000	 2.000000	 flanked_bex_freq_6_amplitude_2_rep_9_t_H_2.0.png	 H	 t	 t	 n.a.	 5.431935e-01
7	 4	 107	 flanked	 bex	 2	 2.000000	 2.000000	 flanked_bex_freq_2_amplitude_2_rep_9_l_H_2.0.png	 H	 l	 l	 n.a.	 5.990479e-01
7	 4	 108	 flanked	 bex	 2	 2.000000	 2.000000	 flanked_bex_freq_2_amplitude_2_rep_4_b_N_2.0.png	 N	 b	 b	 n.a.	 5.452983e-01
7	 4	 109	 flanked	 bex	 2	 3.000000	 2.000000	 flanked_bex_freq_2_amplitude_3_rep_5_r_D_2.0.png	 D	 r	 r	 n.a.	 5.266533e-01
7	 4	 110	 flanked	 bex	 32	 0.250000	 2.000000	 flanked_bex_freq_32_amplitude_0.25_rep_6_t_N_2.0.png	 N	 t	 t	 n.a.	 4.862744e-01
7	 4	 111	 flanked	 bex	 8	 0.250000	 2.000000	 flanked_bex_freq_8_amplitude_0.25_rep_8_r_H_2.0.png	 H	 r	 b	 n.a.	 6.029204e-01
7	 4	 112	 flanked	 bex	 8	 2.500000	 2.000000	 flanked_bex_freq_8_amplitude_2.5_rep_3_l_N_2.0.png	 N	 l	 l	 n.a.	 3.382038e-01
7	 4	 113	 flanked	 bex	 2	 1.000000	 2.000000	 flanked_bex_freq_2_amplitude_1_rep_1_b_D_2.0.png	 D	 b	 t	 n.a.	 4.797405e-01
7	 4	 114	 flanked	 bex	 8	 2.000000	 2.000000	 flanked_bex_freq_8_amplitude_2_rep_8_l_D_2.0.png	 D	 l	 l	 n.a.	 3.145089e-01
7	 4	 115	 flanked	 bex	 4	 2.000000	 2.000000	 flanked_bex_freq_4_amplitude_2_rep_8_t_H_2.0.png	 H	 t	 l	 n.a.	 6.500420e-01
7	 4	 116	 flanked	 bex	 32	 2.500000	 2.000000	 flanked_bex_freq_32_amplitude_2.5_rep_7_l_H_2.0.png	 H	 l	 l	 n.a.	 4.720523e-01
7	 4	 117	 flanked	 bex	 16	 0.250000	 2.000000	 flanked_bex_freq_16_amplitude_0.25_rep_3_b_D_2.0.png	 D	 b	 t	 n.a.	 4.784318e-01
7	 4	 118	 flanked	 bex	 2	 2.000000	 2.000000	 flanked_bex_freq_2_amplitude_2_rep_1_b_D_2.0.png	 D	 b	 l	 n.a.	 4.511689e-01
7	 4	 119	 flanked	 bex	 6	 2.500000	 2.000000	 flanked_bex_freq_6_amplitude_2.5_rep_1_l_H_2.0.png	 H	 l	 l	 n.a.	 3.675573e-01
7	 4	 120	 flanked	 bex	 32	 3.000000	 2.000000	 flanked_bex_freq_32_amplitude_3_rep_1_t_K_2.0.png	 K	 t	 t	 n.a.	 3.502916e-01
7	 4	 121	 flanked	 bex	 4	 1.500000	 2.000000	 flanked_bex_freq_4_amplitude_1.5_rep_7_b_H_2.0.png	 H	 b	 b	 n.a.	 4.382086e-01
7	 4	 122	 flanked	 bex	 8	 2.000000	 2.000000	 flanked_bex_freq_8_amplitude_2_rep_3_b_D_2.0.png	 D	 b	 t	 n.a.	 4.565389e-01
7	 4	 123	 flanked	 bex	 32	 0.250000	 2.000000	 flanked_bex_freq_32_amplitude_0.25_rep_4_b_D_2.0.png	 D	 b	 t	 n.a.	 5.003512e-01
7	 4	 124	 flanked	 bex	 4	 0.500000	 2.000000	 flanked_bex_freq_4_amplitude_0.5_rep_2_r_N_2.0.png	 N	 r	 t	 n.a.	 5.453500e-01
7	 4	 125	 flanked	 bex	 6	 2.000000	 2.000000	 flanked_bex_freq_6_amplitude_2_rep_7_t_N_2.0.png	 N	 t	 t	 n.a.	 4.821780e-01
7	 4	 126	 flanked	 bex	 16	 2.500000	 2.000000	 flanked_bex_freq_16_amplitude_2.5_rep_1_r_H_2.0.png	 H	 r	 r	 n.a.	 3.673686e-01
7	 4	 127	 flanked	 bex	 16	 0.250000	 2.000000	 flanked_bex_freq_16_amplitude_0.25_rep_6_b_H_2.0.png	 H	 b	 t	 n.a.	 5.617834e-01
7	 4	 128	 flanked	 bex	 4	 0.500000	 2.000000	 flanked_bex_freq_4_amplitude_0.5_rep_3_l_K_2.0.png	 K	 l	 l	 n.a.	 5.145499e-01
7	 4	 129	 flanked	 bex	 6	 0.500000	 2.000000	 flanked_bex_freq_6_amplitude_0.5_rep_5_r_D_2.0.png	 D	 r	 t	 n.a.	 5.284827e-01
7	 4	 130	 flanked	 bex	 32	 2.500000	 2.000000	 flanked_bex_freq_32_amplitude_2.5_rep_9_l_N_2.0.png	 N	 l	 l	 n.a.	 3.881697e-01
7	 4	 131	 flanked	 bex	 8	 1.000000	 2.000000	 flanked_bex_freq_8_amplitude_1_rep_8_r_K_2.0.png	 K	 r	 b	 n.a.	 5.306142e-01
7	 4	 132	 flanked	 bex	 6	 1.500000	 2.000000	 flanked_bex_freq_6_amplitude_1.5_rep_3_t_N_2.0.png	 N	 t	 t	 n.a.	 3.516924e-01
7	 4	 133	 flanked	 bex	 16	 2.000000	 2.000000	 flanked_bex_freq_16_amplitude_2_rep_5_b_N_2.0.png	 N	 b	 r	 n.a.	 4.444139e-01
7	 4	 134	 flanked	 bex	 16	 0.500000	 2.000000	 flanked_bex_freq_16_amplitude_0.5_rep_4_r_K_2.0.png	 K	 r	 t	 n.a.	 4.238825e-01
7	 4	 135	 flanked	 bex	 4	 2.000000	 2.000000	 flanked_bex_freq_4_amplitude_2_rep_5_t_D_2.0.png	 D	 t	 b	 n.a.	 4.402333e-01
7	 4	 136	 flanked	 bex	 2	 0.500000	 2.000000	 flanked_bex_freq_2_amplitude_0.5_rep_6_b_H_2.0.png	 H	 b	 t	 n.a.	 5.499309e-01
7	 4	 137	 flanked	 bex	 32	 1.000000	 2.000000	 flanked_bex_freq_32_amplitude_1_rep_9_t_K_2.0.png	 K	 t	 t	 n.a.	 3.999569e-01
7	 4	 138	 flanked	 bex	 2	 2.000000	 2.000000	 flanked_bex_freq_2_amplitude_2_rep_3_l_H_2.0.png	 H	 l	 b	 n.a.	 7.912753e-01
7	 4	 139	 flanked	 bex	 2	 0.500000	 2.000000	 flanked_bex_freq_2_amplitude_0.5_rep_1_l_D_2.0.png	 D	 l	 b	 n.a.	 1.223882e+00
7	 4	 140	 flanked	 bex	 4	 2.000000	 2.000000	 flanked_bex_freq_4_amplitude_2_rep_4_l_N_2.0.png	 N	 l	 l	 n.a.	 4.855382e-01
7	 4	 141	 flanked	 bex	 4	 1.500000	 2.000000	 flanked_bex_freq_4_amplitude_1.5_rep_5_l_H_2.0.png	 H	 l	 r	 n.a.	 5.880098e-01
7	 4	 142	 flanked	 bex	 16	 0.250000	 2.000000	 flanked_bex_freq_16_amplitude_0.25_rep_5_t_H_2.0.png	 H	 t	 b	 n.a.	 4.232655e-01
7	 4	 143	 flanked	 bex	 4	 2.000000	 2.000000	 flanked_bex_freq_4_amplitude_2_rep_2_l_K_2.0.png	 K	 l	 l	 n.a.	 3.320776e-01
7	 4	 144	 flanked	 bex	 32	 1.000000	 2.000000	 flanked_bex_freq_32_amplitude_1_rep_8_t_K_2.0.png	 K	 t	 t	 n.a.	 3.640198e-01
7	 4	 145	 flanked	 bex	 6	 3.000000	 2.000000	 flanked_bex_freq_6_amplitude_3_rep_4_t_D_2.0.png	 D	 t	 t	 n.a.	 3.303895e-01
7	 4	 146	 flanked	 bex	 8	 2.000000	 2.000000	 flanked_bex_freq_8_amplitude_2_rep_7_l_D_2.0.png	 D	 l	 l	 n.a.	 3.034847e-01
7	 4	 147	 flanked	 bex	 6	 1.000000	 2.000000	 flanked_bex_freq_6_amplitude_1_rep_3_r_D_2.0.png	 D	 r	 t	 n.a.	 5.497398e-01
7	 4	 148	 flanked	 bex	 32	 1.000000	 2.000000	 flanked_bex_freq_32_amplitude_1_rep_2_l_H_2.0.png	 H	 l	 r	 n.a.	 6.454510e-01
7	 4	 149	 flanked	 bex	 8	 3.000000	 2.000000	 flanked_bex_freq_8_amplitude_3_rep_8_t_N_2.0.png	 N	 t	 t	 n.a.	 3.556135e-01
7	 4	 150	 flanked	 bex	 4	 0.500000	 2.000000	 flanked_bex_freq_4_amplitude_0.5_rep_0_b_H_2.0.png	 H	 b	 l	 n.a.	 6.373502e-01
7	 4	 151	 flanked	 bex	 2	 0.500000	 2.000000	 flanked_bex_freq_2_amplitude_0.5_rep_3_t_N_2.0.png	 N	 t	 b	 n.a.	 4.537499e-01
7	 4	 152	 flanked	 bex	 8	 1.500000	 2.000000	 flanked_bex_freq_8_amplitude_1.5_rep_2_b_D_2.0.png	 D	 b	 r	 n.a.	 4.559521e-01
7	 4	 153	 flanked	 bex	 2	 0.250000	 2.000000	 flanked_bex_freq_2_amplitude_0.25_rep_7_r_H_2.0.png	 H	 r	 b	 n.a.	 5.365136e-01
7	 4	 154	 flanked	 bex	 16	 2.000000	 2.000000	 flanked_bex_freq_16_amplitude_2_rep_7_t_D_2.0.png	 D	 t	 t	 n.a.	 5.745845e-01
7	 4	 155	 flanked	 bex	 8	 2.000000	 2.000000	 flanked_bex_freq_8_amplitude_2_rep_6_t_K_2.0.png	 K	 t	 t	 n.a.	 4.043672e-01
7	 4	 156	 flanked	 bex	 16	 2.000000	 2.000000	 flanked_bex_freq_16_amplitude_2_rep_3_b_H_2.0.png	 H	 b	 t	 n.a.	 4.413225e-01
7	 4	 157	 flanked	 bex	 2	 1.500000	 2.000000	 flanked_bex_freq_2_amplitude_1.5_rep_1_b_K_2.0.png	 K	 b	 r	 n.a.	 6.635625e-01
7	 4	 158	 flanked	 bex	 6	 2.500000	 2.000000	 flanked_bex_freq_6_amplitude_2.5_rep_9_l_K_2.0.png	 K	 l	 l	 n.a.	 3.557088e-01
7	 4	 159	 flanked	 bex	 4	 3.000000	 2.000000	 flanked_bex_freq_4_amplitude_3_rep_6_l_H_2.0.png	 H	 l	 l	 n.a.	 3.145534e-01
7	 4	 160	 flanked	 bex	 8	 3.000000	 2.000000	 flanked_bex_freq_8_amplitude_3_rep_4_r_D_2.0.png	 D	 r	 r	 n.a.	 3.375195e-01
7	 4	 161	 flanked	 bex	 8	 1.500000	 2.000000	 flanked_bex_freq_8_amplitude_1.5_rep_3_t_K_2.0.png	 K	 t	 t	 n.a.	 3.671105e-01
7	 4	 162	 flanked	 bex	 32	 1.000000	 2.000000	 flanked_bex_freq_32_amplitude_1_rep_3_l_H_2.0.png	 H	 l	 l	 n.a.	 4.778186e-01
7	 4	 163	 flanked	 bex	 16	 0.500000	 2.000000	 flanked_bex_freq_16_amplitude_0.5_rep_3_l_D_2.0.png	 D	 l	 t	 n.a.	 6.234841e-01
7	 4	 164	 flanked	 bex	 6	 1.000000	 2.000000	 flanked_bex_freq_6_amplitude_1_rep_2_l_H_2.0.png	 H	 l	 l	 n.a.	 4.174684e-01
7	 4	 165	 flanked	 bex	 4	 2.500000	 2.000000	 flanked_bex_freq_4_amplitude_2.5_rep_7_t_D_2.0.png	 D	 t	 t	 n.a.	 3.964755e-01
7	 4	 166	 flanked	 bex	 8	 2.500000	 2.000000	 flanked_bex_freq_8_amplitude_2.5_rep_9_b_K_2.0.png	 K	 b	 b	 n.a.	 3.887884e-01
7	 4	 167	 flanked	 bex	 6	 1.500000	 2.000000	 flanked_bex_freq_6_amplitude_1.5_rep_1_l_D_2.0.png	 D	 l	 l	 n.a.	 3.889122e-01
7	 4	 168	 flanked	 bex	 16	 3.000000	 2.000000	 flanked_bex_freq_16_amplitude_3_rep_7_r_H_2.0.png	 H	 r	 r	 n.a.	 3.436271e-01
7	 4	 169	 flanked	 bex	 4	 1.500000	 2.000000	 flanked_bex_freq_4_amplitude_1.5_rep_0_b_H_2.0.png	 H	 b	 l	 n.a.	 5.066344e-01
7	 4	 170	 flanked	 bex	 8	 2.500000	 2.000000	 flanked_bex_freq_8_amplitude_2.5_rep_7_b_N_2.0.png	 N	 b	 b	 n.a.	 5.064278e-01
7	 4	 171	 flanked	 bex	 2	 2.500000	 2.000000	 flanked_bex_freq_2_amplitude_2.5_rep_1_t_H_2.0.png	 H	 t	 t	 n.a.	 8.453668e-01
7	 4	 172	 flanked	 bex	 6	 1.000000	 2.000000	 flanked_bex_freq_6_amplitude_1_rep_8_b_D_2.0.png	 D	 b	 b	 n.a.	 4.868960e-01
7	 4	 173	 flanked	 bex	 6	 1.500000	 2.000000	 flanked_bex_freq_6_amplitude_1.5_rep_6_b_N_2.0.png	 N	 b	 b	 n.a.	 6.778212e-01
7	 4	 174	 flanked	 bex	 2	 0.250000	 2.000000	 flanked_bex_freq_2_amplitude_0.25_rep_2_r_N_2.0.png	 N	 r	 b	 n.a.	 6.067850e-01
7	 4	 175	 flanked	 bex	 6	 0.500000	 2.000000	 flanked_bex_freq_6_amplitude_0.5_rep_4_t_D_2.0.png	 D	 t	 b	 n.a.	 5.601901e-01
7	 4	 176	 flanked	 bex	 32	 1.000000	 2.000000	 flanked_bex_freq_32_amplitude_1_rep_4_r_N_2.0.png	 N	 r	 t	 n.a.	 4.051341e-01
7	 4	 177	 flanked	 bex	 6	 1.500000	 2.000000	 flanked_bex_freq_6_amplitude_1.5_rep_5_b_K_2.0.png	 K	 b	 b	 n.a.	 5.520989e-01
7	 4	 178	 flanked	 bex	 32	 0.500000	 2.000000	 flanked_bex_freq_32_amplitude_0.5_rep_0_b_K_2.0.png	 K	 b	 l	 n.a.	 4.794597e-01
7	 4	 179	 flanked	 bex	 6	 1.000000	 2.000000	 flanked_bex_freq_6_amplitude_1_rep_5_b_K_2.0.png	 K	 b	 b	 n.a.	 5.042873e-01
7	 4	 180	 flanked	 bex	 32	 0.250000	 2.000000	 flanked_bex_freq_32_amplitude_0.25_rep_2_l_N_2.0.png	 N	 l	 b	 n.a.	 1.138601e+00
7	 4	 181	 flanked	 bex	 8	 2.500000	 2.000000	 flanked_bex_freq_8_amplitude_2.5_rep_0_l_N_2.0.png	 N	 l	 l	 n.a.	 3.509640e-01
7	 4	 182	 flanked	 bex	 32	 0.500000	 2.000000	 flanked_bex_freq_32_amplitude_0.5_rep_8_b_N_2.0.png	 N	 b	 b	 n.a.	 1.108973e+00
7	 4	 183	 flanked	 bex	 32	 1.500000	 2.000000	 flanked_bex_freq_32_amplitude_1.5_rep_4_b_H_2.0.png	 H	 b	 r	 n.a.	 5.933783e-01
7	 4	 184	 flanked	 bex	 2	 1.500000	 2.000000	 flanked_bex_freq_2_amplitude_1.5_rep_2_b_H_2.0.png	 H	 b	 r	 n.a.	 5.493107e-01
7	 4	 185	 flanked	 bex	 32	 0.500000	 2.000000	 flanked_bex_freq_32_amplitude_0.5_rep_1_r_N_2.0.png	 N	 r	 t	 n.a.	 5.489495e-01
7	 4	 186	 flanked	 bex	 6	 3.000000	 2.000000	 flanked_bex_freq_6_amplitude_3_rep_0_b_K_2.0.png	 K	 b	 b	 n.a.	 3.666251e-01
7	 4	 187	 flanked	 bex	 32	 2.000000	 2.000000	 flanked_bex_freq_32_amplitude_2_rep_3_b_K_2.0.png	 K	 b	 b	 n.a.	 5.964792e-01
7	 4	 188	 flanked	 bex	 8	 2.000000	 2.000000	 flanked_bex_freq_8_amplitude_2_rep_4_l_N_2.0.png	 N	 l	 l	 n.a.	 3.344012e-01
7	 4	 189	 flanked	 bex	 6	 1.000000	 2.000000	 flanked_bex_freq_6_amplitude_1_rep_7_l_D_2.0.png	 D	 l	 b	 n.a.	 5.545704e-01
7	 4	 190	 flanked	 bex	 16	 0.250000	 2.000000	 flanked_bex_freq_16_amplitude_0.25_rep_7_t_N_2.0.png	 N	 t	 r	 n.a.	 4.415980e-01
7	 4	 191	 flanked	 bex	 16	 0.250000	 2.000000	 flanked_bex_freq_16_amplitude_0.25_rep_4_l_H_2.0.png	 H	 l	 t	 n.a.	 4.245752e-01
7	 4	 192	 flanked	 bex	 16	 2.500000	 2.000000	 flanked_bex_freq_16_amplitude_2.5_rep_6_r_D_2.0.png	 D	 r	 r	 n.a.	 3.049749e-01
7	 4	 193	 flanked	 bex	 32	 1.000000	 2.000000	 flanked_bex_freq_32_amplitude_1_rep_6_t_D_2.0.png	 D	 t	 b	 n.a.	 6.037652e-01
7	 4	 194	 flanked	 bex	 4	 1.000000	 2.000000	 flanked_bex_freq_4_amplitude_1_rep_8_t_H_2.0.png	 H	 t	 r	 n.a.	 4.134200e-01
7	 4	 195	 flanked	 bex	 32	 2.000000	 2.000000	 flanked_bex_freq_32_amplitude_2_rep_2_b_N_2.0.png	 N	 b	 r	 n.a.	 5.354543e-01
7	 4	 196	 flanked	 bex	 32	 2.500000	 2.000000	 flanked_bex_freq_32_amplitude_2.5_rep_3_t_N_2.0.png	 N	 t	 t	 n.a.	 6.156711e-01
7	 4	 197	 flanked	 bex	 2	 2.500000	 2.000000	 flanked_bex_freq_2_amplitude_2.5_rep_2_l_K_2.0.png	 K	 l	 l	 n.a.	 4.159971e-01
7	 4	 198	 flanked	 bex	 2	 1.000000	 2.000000	 flanked_bex_freq_2_amplitude_1_rep_6_b_D_2.0.png	 D	 b	 t	 n.a.	 4.862674e-01
7	 4	 199	 flanked	 bex	 16	 1.500000	 2.000000	 flanked_bex_freq_16_amplitude_1.5_rep_2_l_N_2.0.png	 N	 l	 l	 n.a.	 6.446583e-01
7	 4	 200	 flanked	 bex	 2	 1.000000	 2.000000	 flanked_bex_freq_2_amplitude_1_rep_8_l_K_2.0.png	 K	 l	 b	 n.a.	 5.735723e-01
7	 4	 201	 flanked	 bex	 2	 1.000000	 2.000000	 flanked_bex_freq_2_amplitude_1_rep_4_l_K_2.0.png	 K	 l	 r	 n.a.	 3.251156e-01
7	 4	 202	 flanked	 bex	 6	 2.000000	 2.000000	 flanked_bex_freq_6_amplitude_2_rep_1_t_K_2.0.png	 K	 t	 t	 n.a.	 3.533018e-01
7	 4	 203	 flanked	 bex	 2	 3.000000	 2.000000	 flanked_bex_freq_2_amplitude_3_rep_4_r_D_2.0.png	 D	 r	 r	 n.a.	 3.971269e-01
7	 4	 204	 flanked	 bex	 8	 1.000000	 2.000000	 flanked_bex_freq_8_amplitude_1_rep_5_r_N_2.0.png	 N	 r	 b	 n.a.	 4.883410e-01
7	 4	 205	 flanked	 bex	 2	 1.000000	 2.000000	 flanked_bex_freq_2_amplitude_1_rep_9_t_D_2.0.png	 D	 t	 t	 n.a.	 5.418155e-01
7	 4	 206	 flanked	 bex	 4	 0.500000	 2.000000	 flanked_bex_freq_4_amplitude_0.5_rep_5_r_K_2.0.png	 K	 r	 r	 n.a.	 3.791460e-01
7	 4	 207	 flanked	 bex	 6	 1.500000	 2.000000	 flanked_bex_freq_6_amplitude_1.5_rep_2_t_N_2.0.png	 N	 t	 t	 n.a.	 3.824661e-01
7	 4	 208	 flanked	 bex	 16	 1.500000	 2.000000	 flanked_bex_freq_16_amplitude_1.5_rep_5_t_H_2.0.png	 H	 t	 t	 n.a.	 4.886278e-01
7	 4	 209	 flanked	 bex	 16	 1.000000	 2.000000	 flanked_bex_freq_16_amplitude_1_rep_2_l_K_2.0.png	 K	 l	 l	 n.a.	 5.579818e-01
7	 4	 210	 flanked	 bex	 16	 3.000000	 2.000000	 flanked_bex_freq_16_amplitude_3_rep_1_b_H_2.0.png	 H	 b	 l	 n.a.	 4.923864e-01
7	 4	 211	 flanked	 bex	 2	 3.000000	 2.000000	 flanked_bex_freq_2_amplitude_3_rep_0_l_H_2.0.png	 H	 l	 l	 n.a.	 4.256232e-01
7	 4	 212	 flanked	 bex	 6	 0.250000	 2.000000	 flanked_bex_freq_6_amplitude_0.25_rep_7_l_K_2.0.png	 K	 l	 l	 n.a.	 5.323859e-01
7	 4	 213	 flanked	 bex	 16	 1.500000	 2.000000	 flanked_bex_freq_16_amplitude_1.5_rep_1_l_N_2.0.png	 N	 l	 l	 n.a.	 5.147613e-01
7	 4	 214	 flanked	 bex	 6	 0.500000	 2.000000	 flanked_bex_freq_6_amplitude_0.5_rep_9_r_N_2.0.png	 N	 r	 r	 n.a.	 1.056559e+00
7	 4	 215	 flanked	 bex	 8	 0.250000	 2.000000	 flanked_bex_freq_8_amplitude_0.25_rep_3_b_D_2.0.png	 D	 b	 r	 n.a.	 5.884082e-01
7	 4	 216	 flanked	 bex	 16	 3.000000	 2.000000	 flanked_bex_freq_16_amplitude_3_rep_5_r_K_2.0.png	 K	 r	 r	 n.a.	 3.178884e-01
7	 4	 217	 flanked	 bex	 2	 0.250000	 2.000000	 flanked_bex_freq_2_amplitude_0.25_rep_0_l_K_2.0.png	 K	 l	 b	 n.a.	 6.048304e-01
7	 4	 218	 flanked	 bex	 6	 2.500000	 2.000000	 flanked_bex_freq_6_amplitude_2.5_rep_7_b_N_2.0.png	 N	 b	 b	 n.a.	 4.131663e-01
7	 4	 219	 flanked	 bex	 2	 2.000000	 2.000000	 flanked_bex_freq_2_amplitude_2_rep_7_t_H_2.0.png	 H	 t	 b	 n.a.	 6.156083e-01
7	 4	 220	 flanked	 bex	 8	 3.000000	 2.000000	 flanked_bex_freq_8_amplitude_3_rep_1_b_K_2.0.png	 K	 b	 b	 n.a.	 3.132356e-01
7	 4	 221	 flanked	 bex	 8	 0.500000	 2.000000	 flanked_bex_freq_8_amplitude_0.5_rep_1_l_H_2.0.png	 H	 l	 b	 n.a.	 5.005139e-01
7	 4	 222	 flanked	 bex	 16	 2.500000	 2.000000	 flanked_bex_freq_16_amplitude_2.5_rep_0_l_K_2.0.png	 K	 l	 l	 n.a.	 2.921347e-01
7	 4	 223	 flanked	 bex	 2	 3.000000	 2.000000	 flanked_bex_freq_2_amplitude_3_rep_1_b_K_2.0.png	 K	 b	 l	 n.a.	 9.328304e-01
7	 4	 224	 flanked	 bex	 32	 1.500000	 2.000000	 flanked_bex_freq_32_amplitude_1.5_rep_1_r_K_2.0.png	 K	 r	 r	 n.a.	 4.264904e-01
7	 4	 225	 flanked	 bex	 6	 3.000000	 2.000000	 flanked_bex_freq_6_amplitude_3_rep_3_l_H_2.0.png	 H	 l	 l	 n.a.	 3.107911e-01
7	 4	 226	 flanked	 bex	 8	 0.500000	 2.000000	 flanked_bex_freq_8_amplitude_0.5_rep_0_b_D_2.0.png	 D	 b	 t	 n.a.	 4.207113e-01
7	 4	 227	 flanked	 bex	 2	 0.250000	 2.000000	 flanked_bex_freq_2_amplitude_0.25_rep_4_t_D_2.0.png	 D	 t	 l	 n.a.	 3.787297e-01
7	 4	 228	 flanked	 bex	 16	 3.000000	 2.000000	 flanked_bex_freq_16_amplitude_3_rep_2_r_N_2.0.png	 N	 r	 r	 n.a.	 2.828502e-01
7	 4	 229	 flanked	 bex	 32	 3.000000	 2.000000	 flanked_bex_freq_32_amplitude_3_rep_3_t_D_2.0.png	 D	 t	 b	 n.a.	 7.570778e-01
7	 4	 230	 flanked	 bex	 8	 1.500000	 2.000000	 flanked_bex_freq_8_amplitude_1.5_rep_0_r_H_2.0.png	 H	 r	 r	 n.a.	 3.037326e-01
7	 4	 231	 flanked	 bex	 4	 3.000000	 2.000000	 flanked_bex_freq_4_amplitude_3_rep_1_l_H_2.0.png	 H	 l	 l	 n.a.	 3.814019e-01
7	 4	 232	 flanked	 bex	 32	 3.000000	 2.000000	 flanked_bex_freq_32_amplitude_3_rep_4_b_N_2.0.png	 N	 b	 t	 n.a.	 3.692546e-01
7	 4	 233	 flanked	 bex	 6	 2.000000	 2.000000	 flanked_bex_freq_6_amplitude_2_rep_2_l_D_2.0.png	 D	 l	 l	 n.a.	 2.992199e-01
7	 4	 234	 flanked	 bex	 6	 2.500000	 2.000000	 flanked_bex_freq_6_amplitude_2.5_rep_2_r_D_2.0.png	 D	 r	 r	 n.a.	 3.006673e-01
7	 4	 235	 flanked	 bex	 4	 1.500000	 2.000000	 flanked_bex_freq_4_amplitude_1.5_rep_6_l_N_2.0.png	 N	 l	 l	 n.a.	 3.369731e-01
7	 4	 236	 flanked	 bex	 6	 2.500000	 2.000000	 flanked_bex_freq_6_amplitude_2.5_rep_6_t_D_2.0.png	 D	 t	 t	 n.a.	 3.911460e-01
7	 4	 237	 flanked	 bex	 16	 2.000000	 2.000000	 flanked_bex_freq_16_amplitude_2_rep_8_b_K_2.0.png	 K	 b	 b	 n.a.	 4.090695e-01
7	 4	 238	 flanked	 bex	 2	 1.500000	 2.000000	 flanked_bex_freq_2_amplitude_1.5_rep_5_r_H_2.0.png	 H	 r	 r	 n.a.	 4.545115e-01
7	 4	 239	 flanked	 bex	 4	 0.250000	 2.000000	 flanked_bex_freq_4_amplitude_0.25_rep_9_b_N_2.0.png	 N	 b	 r	 n.a.	 6.272445e-01
7	 4	 240	 flanked	 bex	 8	 1.000000	 2.000000	 flanked_bex_freq_8_amplitude_1_rep_6_r_D_2.0.png	 D	 r	 r	 n.a.	 3.403538e-01
7	 4	 241	 flanked	 bex	 4	 1.500000	 2.000000	 flanked_bex_freq_4_amplitude_1.5_rep_4_l_N_2.0.png	 N	 l	 l	 n.a.	 4.862641e-01
7	 4	 242	 flanked	 bex	 16	 3.000000	 2.000000	 flanked_bex_freq_16_amplitude_3_rep_6_b_N_2.0.png	 N	 b	 b	 n.a.	 3.913611e-01
7	 4	 243	 flanked	 bex	 8	 1.000000	 2.000000	 flanked_bex_freq_8_amplitude_1_rep_3_t_K_2.0.png	 K	 t	 t	 n.a.	 3.977363e-01
7	 4	 244	 flanked	 bex	 16	 0.250000	 2.000000	 flanked_bex_freq_16_amplitude_0.25_rep_1_t_D_2.0.png	 D	 t	 b	 n.a.	 5.428269e-01
7	 4	 245	 flanked	 bex	 8	 1.500000	 2.000000	 flanked_bex_freq_8_amplitude_1.5_rep_4_l_D_2.0.png	 D	 l	 l	 n.a.	 3.463587e-01
7	 4	 246	 flanked	 bex	 8	 1.500000	 2.000000	 flanked_bex_freq_8_amplitude_1.5_rep_6_r_N_2.0.png	 N	 r	 r	 n.a.	 3.151050e-01
7	 4	 247	 flanked	 bex	 8	 0.250000	 2.000000	 flanked_bex_freq_8_amplitude_0.25_rep_0_r_D_2.0.png	 D	 r	 r	 n.a.	 3.791145e-01
7	 4	 248	 flanked	 bex	 32	 0.250000	 2.000000	 flanked_bex_freq_32_amplitude_0.25_rep_0_r_N_2.0.png	 N	 r	 t	 n.a.	 3.924472e-01
7	 4	 249	 flanked	 bex	 4	 2.500000	 2.000000	 flanked_bex_freq_4_amplitude_2.5_rep_3_t_D_2.0.png	 D	 t	 t	 n.a.	 6.400788e-01
7	 4	 250	 flanked	 bex	 6	 3.000000	 2.000000	 flanked_bex_freq_6_amplitude_3_rep_8_b_D_2.0.png	 D	 b	 b	 n.a.	 4.196923e-01
7	 4	 251	 flanked	 bex	 32	 0.500000	 2.000000	 flanked_bex_freq_32_amplitude_0.5_rep_2_b_H_2.0.png	 H	 b	 r	 n.a.	 4.726466e-01
7	 4	 252	 flanked	 bex	 2	 0.500000	 2.000000	 flanked_bex_freq_2_amplitude_0.5_rep_5_l_D_2.0.png	 D	 l	 b	 n.a.	 6.205087e-01
7	 4	 253	 flanked	 bex	 4	 2.000000	 2.000000	 flanked_bex_freq_4_amplitude_2_rep_9_r_D_2.0.png	 D	 r	 r	 n.a.	 3.519049e-01
7	 4	 254	 flanked	 bex	 32	 0.250000	 2.000000	 flanked_bex_freq_32_amplitude_0.25_rep_5_r_K_2.0.png	 K	 r	 b	 n.a.	 7.966609e-01
7	 4	 255	 flanked	 bex	 8	 2.000000	 2.000000	 flanked_bex_freq_8_amplitude_2_rep_1_l_K_2.0.png	 K	 l	 l	 n.a.	 3.581643e-01
7	 4	 256	 flanked	 bex	 2	 0.250000	 2.000000	 flanked_bex_freq_2_amplitude_0.25_rep_5_t_N_2.0.png	 N	 t	 b	 n.a.	 4.713765e-01
7	 4	 257	 flanked	 bex	 6	 2.000000	 2.000000	 flanked_bex_freq_6_amplitude_2_rep_6_b_D_2.0.png	 D	 b	 b	 n.a.	 3.617589e-01
7	 4	 258	 flanked	 bex	 16	 1.500000	 2.000000	 flanked_bex_freq_16_amplitude_1.5_rep_6_b_K_2.0.png	 K	 b	 b	 n.a.	 4.320714e-01
7	 4	 259	 flanked	 bex	 32	 2.500000	 2.000000	 flanked_bex_freq_32_amplitude_2.5_rep_1_r_D_2.0.png	 D	 r	 r	 n.a.	 3.542121e-01
7	 4	 260	 flanked	 bex	 16	 1.000000	 2.000000	 flanked_bex_freq_16_amplitude_1_rep_0_t_K_2.0.png	 K	 t	 l	 n.a.	 4.472609e-01
7	 4	 261	 flanked	 bex	 2	 2.500000	 2.000000	 flanked_bex_freq_2_amplitude_2.5_rep_6_t_K_2.0.png	 K	 t	 t	 n.a.	 3.259700e-01
7	 4	 262	 flanked	 bex	 6	 2.000000	 2.000000	 flanked_bex_freq_6_amplitude_2_rep_3_r_K_2.0.png	 K	 r	 r	 n.a.	 3.540976e-01
7	 4	 263	 flanked	 bex	 16	 2.000000	 2.000000	 flanked_bex_freq_16_amplitude_2_rep_9_l_H_2.0.png	 H	 l	 l	 n.a.	 3.047210e-01
7	 4	 264	 flanked	 bex	 4	 0.250000	 2.000000	 flanked_bex_freq_4_amplitude_0.25_rep_7_b_D_2.0.png	 D	 b	 b	 n.a.	 3.933654e-01
7	 4	 265	 flanked	 bex	 8	 0.250000	 2.000000	 flanked_bex_freq_8_amplitude_0.25_rep_2_r_N_2.0.png	 N	 r	 t	 n.a.	 4.886398e-01
7	 4	 266	 flanked	 bex	 6	 0.250000	 2.000000	 flanked_bex_freq_6_amplitude_0.25_rep_9_l_K_2.0.png	 K	 l	 r	 n.a.	 5.962210e-01
7	 4	 267	 flanked	 bex	 8	 2.500000	 2.000000	 flanked_bex_freq_8_amplitude_2.5_rep_6_t_H_2.0.png	 H	 t	 t	 n.a.	 4.338477e-01
7	 4	 268	 flanked	 bex	 4	 0.250000	 2.000000	 flanked_bex_freq_4_amplitude_0.25_rep_0_r_K_2.0.png	 K	 r	 l	 n.a.	 5.483674e-01
7	 4	 269	 flanked	 bex	 2	 1.500000	 2.000000	 flanked_bex_freq_2_amplitude_1.5_rep_6_l_H_2.0.png	 H	 l	 b	 n.a.	 4.279015e-01
7	 4	 270	 flanked	 bex	 32	 0.250000	 2.000000	 flanked_bex_freq_32_amplitude_0.25_rep_3_l_N_2.0.png	 N	 l	 l	 n.a.	 6.119404e-01
7	 4	 271	 flanked	 bex	 16	 0.500000	 2.000000	 flanked_bex_freq_16_amplitude_0.5_rep_0_t_N_2.0.png	 N	 t	 t	 n.a.	 5.143311e-01
7	 4	 272	 flanked	 bex	 6	 3.000000	 2.000000	 flanked_bex_freq_6_amplitude_3_rep_9_l_D_2.0.png	 D	 l	 l	 n.a.	 3.587644e-01
7	 4	 273	 flanked	 bex	 32	 1.500000	 2.000000	 flanked_bex_freq_32_amplitude_1.5_rep_9_l_K_2.0.png	 K	 l	 b	 n.a.	 5.800459e-01
7	 4	 274	 flanked	 bex	 8	 3.000000	 2.000000	 flanked_bex_freq_8_amplitude_3_rep_3_b_D_2.0.png	 D	 b	 b	 n.a.	 3.842846e-01
7	 4	 275	 flanked	 bex	 4	 2.500000	 2.000000	 flanked_bex_freq_4_amplitude_2.5_rep_8_b_D_2.0.png	 D	 b	 r	 n.a.	 7.309833e-01
7	 4	 276	 flanked	 bex	 4	 3.000000	 2.000000	 flanked_bex_freq_4_amplitude_3_rep_9_r_H_2.0.png	 H	 r	 r	 n.a.	 3.123778e-01
7	 4	 277	 flanked	 bex	 32	 1.500000	 2.000000	 flanked_bex_freq_32_amplitude_1.5_rep_6_l_N_2.0.png	 N	 l	 l	 n.a.	 3.849261e-01
7	 4	 278	 flanked	 bex	 2	 2.000000	 2.000000	 flanked_bex_freq_2_amplitude_2_rep_6_t_N_2.0.png	 N	 t	 b	 n.a.	 5.762272e-01
7	 4	 279	 flanked	 bex	 4	 1.500000	 2.000000	 flanked_bex_freq_4_amplitude_1.5_rep_9_b_K_2.0.png	 K	 b	 b	 n.a.	 7.225632e-01
7	 4	 280	 flanked	 bex	 2	 0.250000	 2.000000	 flanked_bex_freq_2_amplitude_0.25_rep_3_t_H_2.0.png	 H	 t	 l	 n.a.	 5.184355e-01
7	 4	 281	 flanked	 bex	 8	 1.000000	 2.000000	 flanked_bex_freq_8_amplitude_1_rep_1_t_H_2.0.png	 H	 t	 r	 n.a.	 4.147728e-01
7	 4	 282	 flanked	 bex	 32	 1.000000	 2.000000	 flanked_bex_freq_32_amplitude_1_rep_1_b_K_2.0.png	 K	 b	 t	 n.a.	 5.478276e-01
7	 4	 283	 flanked	 bex	 32	 2.500000	 2.000000	 flanked_bex_freq_32_amplitude_2.5_rep_4_l_N_2.0.png	 N	 l	 l	 n.a.	 5.019328e-01
7	 4	 284	 flanked	 bex	 32	 1.000000	 2.000000	 flanked_bex_freq_32_amplitude_1_rep_5_b_N_2.0.png	 N	 b	 b	 n.a.	 5.380901e-01
7	 4	 285	 flanked	 bex	 4	 2.000000	 2.000000	 flanked_bex_freq_4_amplitude_2_rep_0_t_H_2.0.png	 H	 t	 t	 n.a.	 4.322056e-01
7	 4	 286	 flanked	 bex	 6	 1.500000	 2.000000	 flanked_bex_freq_6_amplitude_1.5_rep_4_r_H_2.0.png	 H	 r	 r	 n.a.	 3.351492e-01
7	 4	 287	 flanked	 bex	 6	 2.500000	 2.000000	 flanked_bex_freq_6_amplitude_2.5_rep_4_t_K_2.0.png	 K	 t	 t	 n.a.	 3.047351e-01
7	 4	 288	 flanked	 bex	 32	 2.000000	 2.000000	 flanked_bex_freq_32_amplitude_2_rep_0_t_K_2.0.png	 K	 t	 t	 n.a.	 4.278865e-01
7	 4	 289	 flanked	 bex	 2	 2.500000	 2.000000	 flanked_bex_freq_2_amplitude_2.5_rep_9_r_N_2.0.png	 N	 r	 r	 n.a.	 3.568459e-01
7	 4	 290	 flanked	 bex	 16	 2.500000	 2.000000	 flanked_bex_freq_16_amplitude_2.5_rep_8_l_N_2.0.png	 N	 l	 l	 n.a.	 2.920230e-01
7	 4	 291	 flanked	 bex	 6	 3.000000	 2.000000	 flanked_bex_freq_6_amplitude_3_rep_5_b_K_2.0.png	 K	 b	 b	 n.a.	 2.993733e-01
7	 4	 292	 flanked	 bex	 2	 1.000000	 2.000000	 flanked_bex_freq_2_amplitude_1_rep_3_b_K_2.0.png	 K	 b	 b	 n.a.	 7.712052e-01
7	 4	 293	 flanked	 bex	 32	 1.500000	 2.000000	 flanked_bex_freq_32_amplitude_1.5_rep_7_t_H_2.0.png	 H	 t	 t	 n.a.	 4.937009e-01
7	 4	 294	 flanked	 bex	 16	 2.500000	 2.000000	 flanked_bex_freq_16_amplitude_2.5_rep_5_t_K_2.0.png	 K	 t	 t	 n.a.	 3.497983e-01
7	 4	 295	 flanked	 bex	 16	 1.000000	 2.000000	 flanked_bex_freq_16_amplitude_1_rep_4_r_H_2.0.png	 H	 r	 r	 n.a.	 3.800130e-01
7	 4	 296	 flanked	 bex	 8	 1.000000	 2.000000	 flanked_bex_freq_8_amplitude_1_rep_9_b_D_2.0.png	 D	 b	 l	 n.a.	 3.665262e-01
7	 4	 297	 flanked	 bex	 6	 2.500000	 2.000000	 flanked_bex_freq_6_amplitude_2.5_rep_5_b_H_2.0.png	 H	 b	 b	 n.a.	 4.032935e-01
7	 4	 298	 flanked	 bex	 8	 2.000000	 2.000000	 flanked_bex_freq_8_amplitude_2_rep_2_r_H_2.0.png	 H	 r	 r	 n.a.	 3.570222e-01
7	 4	 299	 flanked	 bex	 16	 3.000000	 2.000000	 flanked_bex_freq_16_amplitude_3_rep_8_b_H_2.0.png	 H	 b	 r	 n.a.	 7.134210e-01
7	 4	 300	 flanked	 bex	 4	 0.250000	 2.000000	 flanked_bex_freq_4_amplitude_0.25_rep_5_b_D_2.0.png	 D	 b	 b	 n.a.	 6.675957e-01
7	 4	 301	 flanked	 bex	 2	 2.000000	 2.000000	 flanked_bex_freq_2_amplitude_2_rep_2_r_N_2.0.png	 N	 r	 r	 n.a.	 3.828305e-01
7	 4	 302	 flanked	 bex	 32	 3.000000	 2.000000	 flanked_bex_freq_32_amplitude_3_rep_5_l_K_2.0.png	 K	 l	 l	 n.a.	 3.853453e-01
7	 4	 303	 flanked	 bex	 8	 0.250000	 2.000000	 flanked_bex_freq_8_amplitude_0.25_rep_6_b_K_2.0.png	 K	 b	 r	 n.a.	 5.425695e-01
7	 4	 304	 flanked	 bex	 8	 1.500000	 2.000000	 flanked_bex_freq_8_amplitude_1.5_rep_9_t_D_2.0.png	 D	 t	 t	 n.a.	 3.499374e-01
7	 4	 305	 flanked	 bex	 4	 0.500000	 2.000000	 flanked_bex_freq_4_amplitude_0.5_rep_7_t_K_2.0.png	 K	 t	 t	 n.a.	 4.506933e-01
7	 4	 306	 flanked	 bex	 16	 1.500000	 2.000000	 flanked_bex_freq_16_amplitude_1.5_rep_7_l_H_2.0.png	 H	 l	 l	 n.a.	 4.365647e-01
7	 4	 307	 flanked	 bex	 4	 1.000000	 2.000000	 flanked_bex_freq_4_amplitude_1_rep_5_r_K_2.0.png	 K	 r	 r	 n.a.	 4.137759e-01
7	 4	 308	 flanked	 bex	 16	 0.500000	 2.000000	 flanked_bex_freq_16_amplitude_0.5_rep_5_r_N_2.0.png	 N	 r	 t	 n.a.	 3.601464e-01
7	 4	 309	 flanked	 bex	 16	 0.500000	 2.000000	 flanked_bex_freq_16_amplitude_0.5_rep_6_t_N_2.0.png	 N	 t	 l	 n.a.	 1.068892e+00
7	 4	 310	 flanked	 bex	 6	 0.250000	 2.000000	 flanked_bex_freq_6_amplitude_0.25_rep_2_l_D_2.0.png	 D	 l	 r	 n.a.	 7.113404e-01
7	 4	 311	 flanked	 bex	 2	 0.250000	 2.000000	 flanked_bex_freq_2_amplitude_0.25_rep_8_b_K_2.0.png	 K	 b	 b	 n.a.	 8.127844e-01
7	 4	 312	 flanked	 bex	 32	 1.500000	 2.000000	 flanked_bex_freq_32_amplitude_1.5_rep_2_l_K_2.0.png	 K	 l	 b	 n.a.	 1.018323e+00
7	 4	 313	 flanked	 bex	 6	 1.500000	 2.000000	 flanked_bex_freq_6_amplitude_1.5_rep_9_b_H_2.0.png	 H	 b	 t	 n.a.	 8.459216e-01
7	 4	 314	 flanked	 bex	 4	 2.000000	 2.000000	 flanked_bex_freq_4_amplitude_2_rep_7_t_D_2.0.png	 D	 t	 b	 n.a.	 7.130070e-01
7	 4	 315	 flanked	 bex	 6	 3.000000	 2.000000	 flanked_bex_freq_6_amplitude_3_rep_2_t_D_2.0.png	 D	 t	 t	 n.a.	 3.644483e-01
7	 4	 316	 flanked	 bex	 4	 1.000000	 2.000000	 flanked_bex_freq_4_amplitude_1_rep_6_r_D_2.0.png	 D	 r	 r	 n.a.	 4.011764e-01
7	 4	 317	 flanked	 bex	 2	 1.500000	 2.000000	 flanked_bex_freq_2_amplitude_1.5_rep_4_r_N_2.0.png	 N	 r	 t	 n.a.	 4.744608e-01
7	 4	 318	 flanked	 bex	 4	 2.500000	 2.000000	 flanked_bex_freq_4_amplitude_2.5_rep_0_t_K_2.0.png	 K	 t	 r	 n.a.	 5.928989e-01
7	 4	 319	 flanked	 bex	 4	 3.000000	 2.000000	 flanked_bex_freq_4_amplitude_3_rep_4_t_D_2.0.png	 D	 t	 t	 n.a.	 5.123517e-01
7	 4	 320	 flanked	 bex	 6	 2.000000	 2.000000	 flanked_bex_freq_6_amplitude_2_rep_8_r_D_2.0.png	 D	 r	 r	 n.a.	 3.604013e-01
7	 4	 321	 flanked	 bex	 2	 1.500000	 2.000000	 flanked_bex_freq_2_amplitude_1.5_rep_0_b_D_2.0.png	 D	 b	 t	 n.a.	 7.274773e-01
7	 4	 322	 flanked	 bex	 16	 2.000000	 2.000000	 flanked_bex_freq_16_amplitude_2_rep_1_b_K_2.0.png	 K	 b	 b	 n.a.	 3.948251e-01
7	 4	 323	 flanked	 bex	 4	 1.000000	 2.000000	 flanked_bex_freq_4_amplitude_1_rep_3_b_H_2.0.png	 H	 b	 b	 n.a.	 6.010086e-01
7	 4	 324	 flanked	 bex	 32	 3.000000	 2.000000	 flanked_bex_freq_32_amplitude_3_rep_6_t_N_2.0.png	 N	 t	 r	 n.a.	 4.963231e-01
7	 4	 325	 flanked	 bex	 32	 3.000000	 2.000000	 flanked_bex_freq_32_amplitude_3_rep_2_r_N_2.0.png	 N	 r	 r	 n.a.	 2.929596e-01
7	 4	 326	 flanked	 bex	 2	 1.000000	 2.000000	 flanked_bex_freq_2_amplitude_1_rep_2_l_N_2.0.png	 N	 l	 r	 n.a.	 4.844300e-01
7	 4	 327	 flanked	 bex	 4	 2.500000	 2.000000	 flanked_bex_freq_4_amplitude_2.5_rep_9_l_H_2.0.png	 H	 l	 l	 n.a.	 3.035084e-01
7	 4	 328	 flanked	 bex	 16	 3.000000	 2.000000	 flanked_bex_freq_16_amplitude_3_rep_4_r_H_2.0.png	 H	 r	 r	 n.a.	 3.366638e-01
7	 4	 329	 flanked	 bex	 4	 0.500000	 2.000000	 flanked_bex_freq_4_amplitude_0.5_rep_4_b_N_2.0.png	 N	 b	 l	 n.a.	 5.956308e-01
7	 4	 330	 flanked	 bex	 2	 2.500000	 2.000000	 flanked_bex_freq_2_amplitude_2.5_rep_3_b_K_2.0.png	 K	 b	 r	 n.a.	 3.234109e-01
7	 4	 331	 flanked	 bex	 4	 1.000000	 2.000000	 flanked_bex_freq_4_amplitude_1_rep_9_b_D_2.0.png	 D	 b	 r	 n.a.	 4.465909e-01
7	 4	 332	 flanked	 bex	 8	 0.500000	 2.000000	 flanked_bex_freq_8_amplitude_0.5_rep_4_l_D_2.0.png	 D	 l	 r	 n.a.	 6.949938e-01
7	 4	 333	 flanked	 bex	 8	 0.500000	 2.000000	 flanked_bex_freq_8_amplitude_0.5_rep_2_t_D_2.0.png	 D	 t	 t	 n.a.	 8.507190e-01
7	 4	 334	 flanked	 bex	 6	 2.000000	 2.000000	 flanked_bex_freq_6_amplitude_2_rep_0_r_H_2.0.png	 H	 r	 r	 n.a.	 4.982962e-01
7	 4	 335	 flanked	 bex	 4	 0.250000	 2.000000	 flanked_bex_freq_4_amplitude_0.25_rep_8_l_D_2.0.png	 D	 l	 r	 n.a.	 7.623815e-01
7	 4	 336	 flanked	 bex	 8	 2.500000	 2.000000	 flanked_bex_freq_8_amplitude_2.5_rep_2_l_D_2.0.png	 D	 l	 l	 n.a.	 3.183382e-01
7	 4	 337	 flanked	 bex	 4	 2.000000	 2.000000	 flanked_bex_freq_4_amplitude_2_rep_1_t_D_2.0.png	 D	 t	 b	 n.a.	 5.356131e-01
7	 4	 338	 flanked	 bex	 6	 1.500000	 2.000000	 flanked_bex_freq_6_amplitude_1.5_rep_7_b_H_2.0.png	 H	 b	 t	 n.a.	 3.888575e-01
7	 4	 339	 flanked	 bex	 2	 3.000000	 2.000000	 flanked_bex_freq_2_amplitude_3_rep_3_b_H_2.0.png	 H	 b	 b	 n.a.	 3.911204e-01
7	 4	 340	 flanked	 bex	 32	 3.000000	 2.000000	 flanked_bex_freq_32_amplitude_3_rep_9_l_D_2.0.png	 D	 l	 l	 n.a.	 3.980272e-01
7	 4	 341	 flanked	 bex	 32	 0.250000	 2.000000	 flanked_bex_freq_32_amplitude_0.25_rep_8_l_N_2.0.png	 N	 l	 b	 n.a.	 7.756064e-01
7	 4	 342	 flanked	 bex	 2	 1.500000	 2.000000	 flanked_bex_freq_2_amplitude_1.5_rep_7_t_K_2.0.png	 K	 t	 r	 n.a.	 5.111424e-01
7	 4	 343	 flanked	 bex	 32	 0.250000	 2.000000	 flanked_bex_freq_32_amplitude_0.25_rep_7_t_H_2.0.png	 H	 t	 t	 n.a.	 3.553733e-01
7	 4	 344	 flanked	 bex	 6	 0.250000	 2.000000	 flanked_bex_freq_6_amplitude_0.25_rep_3_t_K_2.0.png	 K	 t	 r	 n.a.	 5.301853e-01
7	 4	 345	 flanked	 bex	 32	 3.000000	 2.000000	 flanked_bex_freq_32_amplitude_3_rep_0_t_H_2.0.png	 H	 t	 b	 n.a.	 5.886885e-01
7	 4	 346	 flanked	 bex	 16	 0.500000	 2.000000	 flanked_bex_freq_16_amplitude_0.5_rep_2_l_H_2.0.png	 H	 l	 t	 n.a.	 5.281486e-01
7	 4	 347	 flanked	 bex	 16	 3.000000	 2.000000	 flanked_bex_freq_16_amplitude_3_rep_0_b_N_2.0.png	 N	 b	 b	 n.a.	 4.146662e-01
7	 4	 348	 flanked	 bex	 6	 0.500000	 2.000000	 flanked_bex_freq_6_amplitude_0.5_rep_8_t_K_2.0.png	 K	 t	 t	 n.a.	 4.955354e-01
7	 4	 349	 flanked	 bex	 32	 2.000000	 2.000000	 flanked_bex_freq_32_amplitude_2_rep_4_r_K_2.0.png	 K	 r	 r	 n.a.	 3.918967e-01
7	 4	 350	 flanked	 bex	 8	 2.500000	 2.000000	 flanked_bex_freq_8_amplitude_2.5_rep_1_l_D_2.0.png	 D	 l	 l	 n.a.	 2.971819e-01
7	 4	 351	 flanked	 bex	 2	 3.000000	 2.000000	 flanked_bex_freq_2_amplitude_3_rep_2_l_K_2.0.png	 K	 l	 l	 n.a.	 3.415912e-01
7	 4	 352	 flanked	 bex	 32	 0.500000	 2.000000	 flanked_bex_freq_32_amplitude_0.5_rep_9_b_D_2.0.png	 D	 b	 r	 n.a.	 6.100331e-01
7	 4	 353	 flanked	 bex	 6	 1.500000	 2.000000	 flanked_bex_freq_6_amplitude_1.5_rep_8_b_K_2.0.png	 K	 b	 b	 n.a.	 3.696610e-01
7	 4	 354	 flanked	 bex	 8	 2.000000	 2.000000	 flanked_bex_freq_8_amplitude_2_rep_9_l_D_2.0.png	 D	 l	 l	 n.a.	 3.368241e-01
7	 4	 355	 flanked	 bex	 2	 0.500000	 2.000000	 flanked_bex_freq_2_amplitude_0.5_rep_2_b_K_2.0.png	 K	 b	 r	 n.a.	 6.333145e-01
7	 4	 356	 flanked	 bex	 4	 1.000000	 2.000000	 flanked_bex_freq_4_amplitude_1_rep_4_l_K_2.0.png	 K	 l	 l	 n.a.	 4.492657e-01
7	 4	 357	 flanked	 bex	 4	 0.500000	 2.000000	 flanked_bex_freq_4_amplitude_0.5_rep_1_r_H_2.0.png	 H	 r	 r	 n.a.	 9.021762e-01
7	 4	 358	 flanked	 bex	 6	 0.250000	 2.000000	 flanked_bex_freq_6_amplitude_0.25_rep_8_l_D_2.0.png	 D	 l	 r	 n.a.	 7.203636e-01
7	 4	 359	 flanked	 bex	 32	 2.000000	 2.000000	 flanked_bex_freq_32_amplitude_2_rep_5_t_K_2.0.png	 K	 t	 t	 n.a.	 4.567042e-01
7	 4	 360	 flanked	 bex	 2	 2.000000	 2.000000	 flanked_bex_freq_2_amplitude_2_rep_8_b_K_2.0.png	 K	 b	 r	 n.a.	 7.254834e-01
7	 4	 361	 flanked	 bex	 16	 1.000000	 2.000000	 flanked_bex_freq_16_amplitude_1_rep_9_t_D_2.0.png	 D	 t	 l	 n.a.	 6.451257e-01
7	 4	 362	 flanked	 bex	 16	 1.000000	 2.000000	 flanked_bex_freq_16_amplitude_1_rep_1_l_K_2.0.png	 K	 l	 l	 n.a.	 5.655851e-01
7	 4	 363	 flanked	 bex	 32	 0.500000	 2.000000	 flanked_bex_freq_32_amplitude_0.5_rep_3_t_N_2.0.png	 N	 t	 r	 n.a.	 5.058994e-01
7	 4	 364	 flanked	 bex	 4	 2.500000	 2.000000	 flanked_bex_freq_4_amplitude_2.5_rep_1_l_N_2.0.png	 N	 l	 l	 n.a.	 3.464601e-01
7	 4	 365	 flanked	 bex	 8	 3.000000	 2.000000	 flanked_bex_freq_8_amplitude_3_rep_6_r_H_2.0.png	 H	 r	 r	 n.a.	 3.240610e-01
7	 4	 366	 flanked	 bex	 2	 0.500000	 2.000000	 flanked_bex_freq_2_amplitude_0.5_rep_9_r_K_2.0.png	 K	 r	 r	 n.a.	 5.017379e-01
7	 4	 367	 flanked	 bex	 32	 2.000000	 2.000000	 flanked_bex_freq_32_amplitude_2_rep_1_b_H_2.0.png	 H	 b	 b	 n.a.	 5.829321e-01
7	 4	 368	 flanked	 bex	 2	 1.500000	 2.000000	 flanked_bex_freq_2_amplitude_1.5_rep_9_t_D_2.0.png	 D	 t	 r	 n.a.	 5.635331e-01
7	 4	 369	 flanked	 bex	 16	 1.500000	 2.000000	 flanked_bex_freq_16_amplitude_1.5_rep_0_b_K_2.0.png	 K	 b	 b	 n.a.	 5.690218e-01
7	 4	 370	 flanked	 bex	 32	 0.250000	 2.000000	 flanked_bex_freq_32_amplitude_0.25_rep_1_t_K_2.0.png	 K	 t	 r	 n.a.	 7.239699e-01
7	 4	 371	 flanked	 bex	 2	 0.250000	 2.000000	 flanked_bex_freq_2_amplitude_0.25_rep_6_t_H_2.0.png	 H	 t	 b	 n.a.	 4.652377e-01
7	 4	 372	 flanked	 bex	 4	 2.500000	 2.000000	 flanked_bex_freq_4_amplitude_2.5_rep_6_l_N_2.0.png	 N	 l	 l	 n.a.	 3.319478e-01
7	 4	 373	 flanked	 bex	 8	 0.500000	 2.000000	 flanked_bex_freq_8_amplitude_0.5_rep_3_t_H_2.0.png	 H	 t	 r	 n.a.	 5.647260e-01
7	 4	 374	 flanked	 bex	 16	 1.000000	 2.000000	 flanked_bex_freq_16_amplitude_1_rep_7_t_H_2.0.png	 H	 t	 r	 n.a.	 4.295232e-01
7	 4	 375	 flanked	 bex	 6	 2.500000	 2.000000	 flanked_bex_freq_6_amplitude_2.5_rep_8_l_D_2.0.png	 D	 l	 l	 n.a.	 2.654137e-01
7	 4	 376	 flanked	 bex	 2	 3.000000	 2.000000	 flanked_bex_freq_2_amplitude_3_rep_7_r_H_2.0.png	 H	 r	 r	 n.a.	 3.525976e-01
7	 4	 377	 flanked	 bex	 16	 1.500000	 2.000000	 flanked_bex_freq_16_amplitude_1.5_rep_3_t_H_2.0.png	 H	 t	 l	 n.a.	 4.688887e-01
7	 4	 378	 flanked	 bex	 32	 1.500000	 2.000000	 flanked_bex_freq_32_amplitude_1.5_rep_0_b_H_2.0.png	 H	 b	 r	 n.a.	 3.585998e-01
7	 4	 379	 flanked	 bex	 2	 0.500000	 2.000000	 flanked_bex_freq_2_amplitude_0.5_rep_8_r_N_2.0.png	 N	 r	 l	 n.a.	 3.912969e-01
7	 4	 380	 flanked	 bex	 32	 3.000000	 2.000000	 flanked_bex_freq_32_amplitude_3_rep_7_b_D_2.0.png	 D	 b	 t	 n.a.	 3.228366e-01
7	 4	 381	 flanked	 bex	 4	 2.500000	 2.000000	 flanked_bex_freq_4_amplitude_2.5_rep_2_t_N_2.0.png	 N	 t	 t	 n.a.	 3.875259e-01
7	 4	 382	 flanked	 bex	 2	 2.000000	 2.000000	 flanked_bex_freq_2_amplitude_2_rep_0_t_N_2.0.png	 N	 t	 r	 n.a.	 4.149494e-01
7	 4	 383	 flanked	 bex	 8	 1.000000	 2.000000	 flanked_bex_freq_8_amplitude_1_rep_2_r_N_2.0.png	 N	 r	 b	 n.a.	 4.162272e-01
7	 4	 384	 flanked	 bex	 8	 2.500000	 2.000000	 flanked_bex_freq_8_amplitude_2.5_rep_8_r_N_2.0.png	 N	 r	 r	 n.a.	 2.848375e-01
7	 4	 385	 flanked	 bex	 16	 1.000000	 2.000000	 flanked_bex_freq_16_amplitude_1_rep_5_l_D_2.0.png	 D	 l	 l	 n.a.	 5.398792e-01
7	 4	 386	 flanked	 bex	 6	 0.250000	 2.000000	 flanked_bex_freq_6_amplitude_0.25_rep_4_r_N_2.0.png	 N	 r	 r	 n.a.	 6.081045e-01
7	 4	 387	 flanked	 bex	 8	 0.250000	 2.000000	 flanked_bex_freq_8_amplitude_0.25_rep_1_t_N_2.0.png	 N	 t	 r	 n.a.	 6.399389e-01
7	 4	 388	 flanked	 bex	 6	 0.250000	 2.000000	 flanked_bex_freq_6_amplitude_0.25_rep_0_r_H_2.0.png	 H	 r	 r	 n.a.	 4.359398e-01
7	 4	 389	 flanked	 bex	 32	 1.500000	 2.000000	 flanked_bex_freq_32_amplitude_1.5_rep_8_l_D_2.0.png	 D	 l	 l	 n.a.	 3.726924e-01
7	 4	 390	 flanked	 bex	 4	 0.500000	 2.000000	 flanked_bex_freq_4_amplitude_0.5_rep_9_t_K_2.0.png	 K	 t	 r	 n.a.	 1.018793e+00
7	 4	 391	 flanked	 bex	 4	 2.000000	 2.000000	 flanked_bex_freq_4_amplitude_2_rep_6_l_D_2.0.png	 D	 l	 b	 n.a.	 7.416560e-01
7	 4	 392	 flanked	 bex	 2	 0.500000	 2.000000	 flanked_bex_freq_2_amplitude_0.5_rep_7_r_D_2.0.png	 D	 r	 t	 n.a.	 6.547920e-01
7	 4	 393	 flanked	 bex	 32	 1.000000	 2.000000	 flanked_bex_freq_32_amplitude_1_rep_0_r_D_2.0.png	 D	 r	 l	 n.a.	 5.994435e-01
7	 4	 394	 flanked	 bex	 8	 0.500000	 2.000000	 flanked_bex_freq_8_amplitude_0.5_rep_7_t_K_2.0.png	 K	 t	 t	 n.a.	 4.955773e-01
7	 4	 395	 flanked	 bex	 8	 1.500000	 2.000000	 flanked_bex_freq_8_amplitude_1.5_rep_7_b_N_2.0.png	 N	 b	 b	 n.a.	 4.994231e-01
7	 4	 396	 flanked	 bex	 8	 3.000000	 2.000000	 flanked_bex_freq_8_amplitude_3_rep_2_r_D_2.0.png	 D	 r	 r	 n.a.	 3.384103e-01
7	 4	 397	 flanked	 bex	 2	 3.000000	 2.000000	 flanked_bex_freq_2_amplitude_3_rep_9_r_N_2.0.png	 N	 r	 b	 n.a.	 6.693111e-01
7	 4	 398	 flanked	 bex	 32	 0.500000	 2.000000	 flanked_bex_freq_32_amplitude_0.5_rep_6_r_K_2.0.png	 K	 r	 b	 n.a.	 7.120827e-01
7	 4	 399	 flanked	 bex	 4	 1.500000	 2.000000	 flanked_bex_freq_4_amplitude_1.5_rep_1_l_N_2.0.png	 N	 l	 t	 n.a.	 5.418239e-01
7	 4	 400	 flanked	 bex	 6	 1.000000	 2.000000	 flanked_bex_freq_6_amplitude_1_rep_0_t_K_2.0.png	 K	 t	 t	 n.a.	 4.668999e-01
7	 4	 401	 flanked	 bex	 8	 3.000000	 2.000000	 flanked_bex_freq_8_amplitude_3_rep_7_l_K_2.0.png	 K	 l	 l	 n.a.	 3.023196e-01
7	 4	 402	 flanked	 bex	 6	 0.500000	 2.000000	 flanked_bex_freq_6_amplitude_0.5_rep_1_t_D_2.0.png	 D	 t	 t	 n.a.	 4.817114e-01
7	 4	 403	 flanked	 bex	 32	 0.500000	 2.000000	 flanked_bex_freq_32_amplitude_0.5_rep_7_t_D_2.0.png	 D	 t	 b	 n.a.	 5.704749e-01
7	 4	 404	 flanked	 bex	 32	 1.000000	 2.000000	 flanked_bex_freq_32_amplitude_1_rep_7_t_D_2.0.png	 D	 t	 t	 n.a.	 6.533750e-01
7	 4	 405	 flanked	 bex	 6	 0.500000	 2.000000	 flanked_bex_freq_6_amplitude_0.5_rep_0_r_N_2.0.png	 N	 r	 l	 n.a.	 1.003653e+00
7	 4	 406	 flanked	 bex	 32	 0.250000	 2.000000	 flanked_bex_freq_32_amplitude_0.25_rep_9_t_H_2.0.png	 H	 t	 b	 n.a.	 8.671791e-01
7	 4	 407	 flanked	 bex	 4	 1.000000	 2.000000	 flanked_bex_freq_4_amplitude_1_rep_7_l_D_2.0.png	 D	 l	 l	 n.a.	 9.726428e-01
7	 4	 408	 flanked	 bex	 6	 0.500000	 2.000000	 flanked_bex_freq_6_amplitude_0.5_rep_2_t_K_2.0.png	 K	 t	 t	 n.a.	 9.880890e-01
7	 4	 409	 flanked	 bex	 2	 1.000000	 2.000000	 flanked_bex_freq_2_amplitude_1_rep_5_r_N_2.0.png	 N	 r	 l	 n.a.	 7.882259e-01
7	 4	 410	 flanked	 bex	 6	 2.500000	 2.000000	 flanked_bex_freq_6_amplitude_2.5_rep_3_l_H_2.0.png	 H	 l	 l	 n.a.	 5.815370e-01
7	 4	 411	 flanked	 bex	 8	 0.500000	 2.000000	 flanked_bex_freq_8_amplitude_0.5_rep_5_r_K_2.0.png	 K	 r	 r	 n.a.	 6.580086e-01
7	 4	 412	 flanked	 bex	 16	 2.000000	 2.000000	 flanked_bex_freq_16_amplitude_2_rep_2_l_N_2.0.png	 N	 l	 l	 n.a.	 4.073811e-01
7	 4	 413	 flanked	 bex	 2	 3.000000	 2.000000	 flanked_bex_freq_2_amplitude_3_rep_8_b_D_2.0.png	 D	 b	 t	 n.a.	 4.763127e-01
7	 4	 414	 flanked	 bex	 8	 2.000000	 2.000000	 flanked_bex_freq_8_amplitude_2_rep_0_t_D_2.0.png	 D	 t	 t	 n.a.	 4.099956e-01
7	 4	 415	 flanked	 bex	 2	 0.500000	 2.000000	 flanked_bex_freq_2_amplitude_0.5_rep_4_b_H_2.0.png	 H	 b	 t	 n.a.	 4.392624e-01
7	 4	 416	 flanked	 bex	 6	 0.250000	 2.000000	 flanked_bex_freq_6_amplitude_0.25_rep_5_r_D_2.0.png	 D	 r	 b	 n.a.	 3.861602e-01
7	 4	 417	 flanked	 bex	 4	 1.500000	 2.000000	 flanked_bex_freq_4_amplitude_1.5_rep_3_l_D_2.0.png	 D	 l	 t	 n.a.	 3.457295e-01
7	 4	 418	 flanked	 bex	 6	 1.000000	 2.000000	 flanked_bex_freq_6_amplitude_1_rep_1_b_K_2.0.png	 K	 b	 l	 n.a.	 4.365931e-01
7	 4	 419	 flanked	 bex	 16	 2.000000	 2.000000	 flanked_bex_freq_16_amplitude_2_rep_4_l_K_2.0.png	 K	 l	 l	 n.a.	 3.392630e-01
7	 4	 420	 flanked	 bex	 2	 1.000000	 2.000000	 flanked_bex_freq_2_amplitude_1_rep_7_b_N_2.0.png	 N	 b	 t	 n.a.	 5.608420e-01
