subject	 session	 trial	 flanked	 distortion	 freq	 amplitude	 spacing	 im_name	 targ_letter	 targ_pos	 response	 eyemovement	 RT
5	 1	 1	 flanked	 bex	 32	 5.000000	 2.000000	 flanked_bex_freq_32_amplitude_5_rep_2_r_D_2.0.png	 D	 r	 r	 n.a.	 2.853468e-01
5	 1	 2	 flanked	 bex	 2	 1.000000	 2.000000	 flanked_bex_freq_2_amplitude_1_rep_4_l_K_2.0.png	 K	 l	 t	 n.a.	 5.615553e-01
5	 1	 3	 flanked	 bex	 8	 0.500000	 2.000000	 flanked_bex_freq_8_amplitude_0.5_rep_0_b_D_2.0.png	 D	 b	 r	 n.a.	 2.872831e-01
5	 1	 4	 flanked	 bex	 16	 5.000000	 2.000000	 flanked_bex_freq_16_amplitude_5_rep_3_b_N_2.0.png	 N	 b	 b	 n.a.	 3.383825e-01
5	 1	 5	 flanked	 bex	 2	 2.000000	 2.000000	 flanked_bex_freq_2_amplitude_2_rep_1_b_D_2.0.png	 D	 b	 t	 n.a.	 6.307143e-01
5	 1	 6	 flanked	 bex	 4	 1.000000	 2.000000	 flanked_bex_freq_4_amplitude_1_rep_2_b_D_2.0.png	 D	 b	 r	 n.a.	 3.278870e-01
5	 1	 7	 flanked	 bex	 2	 0.500000	 2.000000	 flanked_bex_freq_2_amplitude_0.5_rep_0_b_H_2.0.png	 H	 b	 b	 n.a.	 4.671603e-01
5	 1	 8	 flanked	 bex	 16	 1.500000	 2.000000	 flanked_bex_freq_16_amplitude_1.5_rep_3_t_H_2.0.png	 H	 t	 r	 n.a.	 4.675215e-01
5	 1	 9	 flanked	 bex	 2	 1.500000	 2.000000	 flanked_bex_freq_2_amplitude_1.5_rep_9_t_D_2.0.png	 D	 t	 r	 n.a.	 3.794230e-01
5	 1	 10	 flanked	 bex	 32	 0.500000	 2.000000	 flanked_bex_freq_32_amplitude_0.5_rep_1_r_N_2.0.png	 N	 r	 t	 n.a.	 5.636636e-01
5	 1	 11	 flanked	 bex	 16	 0.500000	 2.000000	 flanked_bex_freq_16_amplitude_0.5_rep_4_r_K_2.0.png	 K	 r	 b	 n.a.	 6.316677e-01
5	 1	 12	 flanked	 bex	 16	 1.500000	 2.000000	 flanked_bex_freq_16_amplitude_1.5_rep_9_r_H_2.0.png	 H	 r	 r	 n.a.	 5.577587e-01
5	 1	 13	 flanked	 bex	 4	 1.500000	 2.000000	 flanked_bex_freq_4_amplitude_1.5_rep_2_b_K_2.0.png	 K	 b	 b	 n.a.	 1.000580e+00
5	 1	 14	 flanked	 bex	 32	 2.000000	 2.000000	 flanked_bex_freq_32_amplitude_2_rep_9_l_N_2.0.png	 N	 l	 l	 n.a.	 5.131335e-01
5	 1	 15	 flanked	 bex	 16	 1.000000	 2.000000	 flanked_bex_freq_16_amplitude_1_rep_5_l_D_2.0.png	 D	 l	 t	 n.a.	 1.054109e+00
5	 1	 16	 flanked	 bex	 6	 2.500000	 2.000000	 flanked_bex_freq_6_amplitude_2.5_rep_9_l_K_2.0.png	 K	 l	 l	 n.a.	 3.241431e-01
5	 1	 17	 flanked	 bex	 4	 1.000000	 2.000000	 flanked_bex_freq_4_amplitude_1_rep_6_r_D_2.0.png	 D	 r	 r	 n.a.	 6.318668e-01
5	 1	 18	 flanked	 bex	 8	 2.000000	 2.000000	 flanked_bex_freq_8_amplitude_2_rep_4_l_N_2.0.png	 N	 l	 l	 n.a.	 3.733346e-01
5	 1	 19	 flanked	 bex	 4	 5.000000	 2.000000	 flanked_bex_freq_4_amplitude_5_rep_1_t_K_2.0.png	 K	 t	 t	 n.a.	 4.953619e-01
5	 1	 20	 flanked	 bex	 4	 2.000000	 2.000000	 flanked_bex_freq_4_amplitude_2_rep_1_t_D_2.0.png	 D	 t	 r	 n.a.	 7.298566e-01
5	 1	 21	 flanked	 bex	 6	 1.000000	 2.000000	 flanked_bex_freq_6_amplitude_1_rep_2_l_H_2.0.png	 H	 l	 b	 n.a.	 5.082346e-01
5	 1	 22	 flanked	 bex	 6	 1.500000	 2.000000	 flanked_bex_freq_6_amplitude_1.5_rep_2_t_N_2.0.png	 N	 t	 t	 n.a.	 5.150389e-01
5	 1	 23	 flanked	 bex	 16	 1.500000	 2.000000	 flanked_bex_freq_16_amplitude_1.5_rep_7_l_H_2.0.png	 H	 l	 l	 n.a.	 7.161381e-01
5	 1	 24	 flanked	 bex	 8	 1.000000	 2.000000	 flanked_bex_freq_8_amplitude_1_rep_1_t_H_2.0.png	 H	 t	 t	 n.a.	 8.495469e-01
5	 1	 25	 flanked	 bex	 6	 3.000000	 2.000000	 flanked_bex_freq_6_amplitude_3_rep_1_b_N_2.0.png	 N	 b	 b	 n.a.	 5.284796e-01
5	 1	 26	 flanked	 bex	 32	 5.000000	 2.000000	 flanked_bex_freq_32_amplitude_5_rep_9_l_D_2.0.png	 D	 l	 l	 n.a.	 3.456877e-01
5	 1	 27	 flanked	 bex	 8	 2.500000	 2.000000	 flanked_bex_freq_8_amplitude_2.5_rep_9_b_K_2.0.png	 K	 b	 b	 n.a.	 4.899913e-01
5	 1	 28	 flanked	 bex	 32	 1.000000	 2.000000	 flanked_bex_freq_32_amplitude_1_rep_4_r_N_2.0.png	 N	 r	 t	 n.a.	 6.603361e-01
5	 1	 29	 flanked	 bex	 16	 1.000000	 2.000000	 flanked_bex_freq_16_amplitude_1_rep_4_r_H_2.0.png	 H	 r	 r	 n.a.	 4.902419e-01
5	 1	 30	 flanked	 bex	 32	 2.500000	 2.000000	 flanked_bex_freq_32_amplitude_2.5_rep_8_b_H_2.0.png	 H	 b	 r	 n.a.	 5.773190e-01
5	 1	 31	 flanked	 bex	 4	 5.000000	 2.000000	 flanked_bex_freq_4_amplitude_5_rep_3_t_H_2.0.png	 H	 t	 t	 n.a.	 5.971774e-01
5	 1	 32	 flanked	 bex	 8	 2.500000	 2.000000	 flanked_bex_freq_8_amplitude_2.5_rep_4_b_D_2.0.png	 D	 b	 b	 n.a.	 7.361460e-01
5	 1	 33	 flanked	 bex	 16	 2.000000	 2.000000	 flanked_bex_freq_16_amplitude_2_rep_7_t_D_2.0.png	 D	 t	 r	 n.a.	 4.178679e-01
5	 1	 34	 flanked	 bex	 8	 1.500000	 2.000000	 flanked_bex_freq_8_amplitude_1.5_rep_1_b_H_2.0.png	 H	 b	 t	 n.a.	 5.624401e-01
5	 1	 35	 flanked	 bex	 4	 5.000000	 2.000000	 flanked_bex_freq_4_amplitude_5_rep_6_b_N_2.0.png	 N	 b	 b	 n.a.	 4.714182e-01
5	 1	 36	 flanked	 bex	 2	 3.000000	 2.000000	 flanked_bex_freq_2_amplitude_3_rep_6_b_N_2.0.png	 N	 b	 t	 n.a.	 6.169164e-01
5	 1	 37	 flanked	 bex	 16	 3.000000	 2.000000	 flanked_bex_freq_16_amplitude_3_rep_5_r_K_2.0.png	 K	 r	 r	 n.a.	 3.034827e-01
5	 1	 38	 flanked	 bex	 2	 5.000000	 2.000000	 flanked_bex_freq_2_amplitude_5_rep_4_b_H_2.0.png	 H	 b	 b	 n.a.	 4.789550e-01
5	 1	 39	 flanked	 bex	 8	 5.000000	 2.000000	 flanked_bex_freq_8_amplitude_5_rep_6_t_N_2.0.png	 N	 t	 t	 n.a.	 5.209755e-01
5	 1	 40	 flanked	 bex	 8	 5.000000	 2.000000	 flanked_bex_freq_8_amplitude_5_rep_7_b_H_2.0.png	 H	 b	 b	 n.a.	 6.133187e-01
5	 1	 41	 flanked	 bex	 8	 0.500000	 2.000000	 flanked_bex_freq_8_amplitude_0.5_rep_6_t_N_2.0.png	 N	 t	 l	 n.a.	 6.992533e-01
5	 1	 42	 flanked	 bex	 8	 2.500000	 2.000000	 flanked_bex_freq_8_amplitude_2.5_rep_3_l_N_2.0.png	 N	 l	 l	 n.a.	 3.459803e-01
5	 1	 43	 flanked	 bex	 8	 1.500000	 2.000000	 flanked_bex_freq_8_amplitude_1.5_rep_5_l_N_2.0.png	 N	 l	 l	 n.a.	 4.046952e-01
5	 1	 44	 flanked	 bex	 32	 2.500000	 2.000000	 flanked_bex_freq_32_amplitude_2.5_rep_0_l_D_2.0.png	 D	 l	 l	 n.a.	 3.794991e-01
5	 1	 45	 flanked	 bex	 4	 2.000000	 2.000000	 flanked_bex_freq_4_amplitude_2_rep_6_l_D_2.0.png	 D	 l	 b	 n.a.	 4.147131e-01
5	 1	 46	 flanked	 bex	 32	 2.000000	 2.000000	 flanked_bex_freq_32_amplitude_2_rep_2_b_N_2.0.png	 N	 b	 l	 n.a.	 5.776009e-01
5	 1	 47	 flanked	 bex	 2	 1.000000	 2.000000	 flanked_bex_freq_2_amplitude_1_rep_0_t_K_2.0.png	 K	 t	 l	 n.a.	 1.125010e+00
5	 1	 48	 flanked	 bex	 8	 2.500000	 2.000000	 flanked_bex_freq_8_amplitude_2.5_rep_7_b_N_2.0.png	 N	 b	 b	 n.a.	 3.115877e-01
5	 1	 49	 flanked	 bex	 8	 2.500000	 2.000000	 flanked_bex_freq_8_amplitude_2.5_rep_6_t_H_2.0.png	 H	 t	 b	 n.a.	 3.861732e-01
5	 1	 50	 flanked	 bex	 2	 0.500000	 2.000000	 flanked_bex_freq_2_amplitude_0.5_rep_8_r_N_2.0.png	 N	 r	 t	 n.a.	 5.172235e-01
5	 1	 51	 flanked	 bex	 8	 2.500000	 2.000000	 flanked_bex_freq_8_amplitude_2.5_rep_8_r_N_2.0.png	 N	 r	 r	 n.a.	 2.664460e-01
5	 1	 52	 flanked	 bex	 4	 2.000000	 2.000000	 flanked_bex_freq_4_amplitude_2_rep_3_r_H_2.0.png	 H	 r	 r	 n.a.	 4.307854e-01
5	 1	 53	 flanked	 bex	 6	 5.000000	 2.000000	 flanked_bex_freq_6_amplitude_5_rep_5_t_K_2.0.png	 K	 t	 t	 n.a.	 5.239509e-01
5	 1	 54	 flanked	 bex	 16	 3.000000	 2.000000	 flanked_bex_freq_16_amplitude_3_rep_6_b_N_2.0.png	 N	 b	 t	 n.a.	 4.779522e-01
5	 1	 55	 flanked	 bex	 16	 3.000000	 2.000000	 flanked_bex_freq_16_amplitude_3_rep_3_r_N_2.0.png	 N	 r	 r	 n.a.	 2.378907e-01
5	 1	 56	 flanked	 bex	 4	 1.500000	 2.000000	 flanked_bex_freq_4_amplitude_1.5_rep_5_l_H_2.0.png	 H	 l	 b	 n.a.	 4.902784e-01
5	 1	 57	 flanked	 bex	 8	 1.000000	 2.000000	 flanked_bex_freq_8_amplitude_1_rep_9_b_D_2.0.png	 D	 b	 t	 n.a.	 6.221983e-01
5	 1	 58	 flanked	 bex	 32	 0.500000	 2.000000	 flanked_bex_freq_32_amplitude_0.5_rep_2_b_H_2.0.png	 H	 b	 b	 n.a.	 4.863669e-01
5	 1	 59	 flanked	 bex	 2	 0.500000	 2.000000	 flanked_bex_freq_2_amplitude_0.5_rep_4_b_H_2.0.png	 H	 b	 r	 n.a.	 7.293223e-01
5	 1	 60	 flanked	 bex	 2	 1.500000	 2.000000	 flanked_bex_freq_2_amplitude_1.5_rep_1_b_K_2.0.png	 K	 b	 b	 n.a.	 5.933016e-01
5	 1	 61	 flanked	 bex	 16	 1.000000	 2.000000	 flanked_bex_freq_16_amplitude_1_rep_8_l_K_2.0.png	 K	 l	 b	 n.a.	 6.979173e-01
5	 1	 62	 flanked	 bex	 32	 1.000000	 2.000000	 flanked_bex_freq_32_amplitude_1_rep_9_t_K_2.0.png	 K	 t	 t	 n.a.	 4.905430e-01
5	 1	 63	 flanked	 bex	 32	 0.500000	 2.000000	 flanked_bex_freq_32_amplitude_0.5_rep_4_t_H_2.0.png	 H	 t	 l	 n.a.	 6.695126e-01
5	 1	 64	 flanked	 bex	 4	 0.500000	 2.000000	 flanked_bex_freq_4_amplitude_0.5_rep_0_b_H_2.0.png	 H	 b	 b	 n.a.	 3.446271e-01
5	 1	 65	 flanked	 bex	 4	 0.500000	 2.000000	 flanked_bex_freq_4_amplitude_0.5_rep_3_l_K_2.0.png	 K	 l	 l	 n.a.	 6.122985e-01
5	 1	 66	 flanked	 bex	 4	 1.000000	 2.000000	 flanked_bex_freq_4_amplitude_1_rep_9_b_D_2.0.png	 D	 b	 t	 n.a.	 5.181315e-01
5	 1	 67	 flanked	 bex	 32	 1.000000	 2.000000	 flanked_bex_freq_32_amplitude_1_rep_2_l_H_2.0.png	 H	 l	 r	 n.a.	 6.749527e-01
5	 1	 68	 flanked	 bex	 4	 1.500000	 2.000000	 flanked_bex_freq_4_amplitude_1.5_rep_9_b_K_2.0.png	 K	 b	 b	 n.a.	 3.902275e-01
5	 1	 69	 flanked	 bex	 6	 2.500000	 2.000000	 flanked_bex_freq_6_amplitude_2.5_rep_2_r_D_2.0.png	 D	 r	 r	 n.a.	 3.811572e-01
5	 1	 70	 flanked	 bex	 2	 3.000000	 2.000000	 flanked_bex_freq_2_amplitude_3_rep_4_r_D_2.0.png	 D	 r	 r	 n.a.	 3.324566e-01
5	 1	 71	 flanked	 bex	 8	 2.000000	 2.000000	 flanked_bex_freq_8_amplitude_2_rep_9_l_D_2.0.png	 D	 l	 l	 n.a.	 3.161456e-01
5	 1	 72	 flanked	 bex	 16	 2.000000	 2.000000	 flanked_bex_freq_16_amplitude_2_rep_4_l_K_2.0.png	 K	 l	 l	 n.a.	 3.673015e-01
5	 1	 73	 flanked	 bex	 2	 1.500000	 2.000000	 flanked_bex_freq_2_amplitude_1.5_rep_8_l_D_2.0.png	 D	 l	 l	 n.a.	 4.496865e-01
5	 1	 74	 flanked	 bex	 32	 1.000000	 2.000000	 flanked_bex_freq_32_amplitude_1_rep_6_t_D_2.0.png	 D	 t	 t	 n.a.	 9.902243e-01
5	 1	 75	 flanked	 bex	 16	 2.500000	 2.000000	 flanked_bex_freq_16_amplitude_2.5_rep_4_t_H_2.0.png	 H	 t	 t	 n.a.	 5.308249e-01
5	 1	 76	 flanked	 bex	 4	 2.500000	 2.000000	 flanked_bex_freq_4_amplitude_2.5_rep_5_r_H_2.0.png	 H	 r	 r	 n.a.	 2.968750e-01
5	 1	 77	 flanked	 bex	 16	 1.000000	 2.000000	 flanked_bex_freq_16_amplitude_1_rep_3_l_K_2.0.png	 K	 l	 r	 n.a.	 1.124799e+00
5	 1	 78	 flanked	 bex	 16	 0.500000	 2.000000	 flanked_bex_freq_16_amplitude_0.5_rep_9_b_N_2.0.png	 N	 b	 r	 n.a.	 6.914196e-01
5	 1	 79	 flanked	 bex	 32	 0.500000	 2.000000	 flanked_bex_freq_32_amplitude_0.5_rep_0_b_K_2.0.png	 K	 b	 b	 n.a.	 4.912519e-01
5	 1	 80	 flanked	 bex	 6	 3.000000	 2.000000	 flanked_bex_freq_6_amplitude_3_rep_5_b_K_2.0.png	 K	 b	 b	 n.a.	 3.512716e-01
5	 1	 81	 flanked	 bex	 32	 2.500000	 2.000000	 flanked_bex_freq_32_amplitude_2.5_rep_7_l_H_2.0.png	 H	 l	 l	 n.a.	 8.457891e-01
5	 1	 82	 flanked	 bex	 4	 1.000000	 2.000000	 flanked_bex_freq_4_amplitude_1_rep_8_t_H_2.0.png	 H	 t	 t	 n.a.	 6.671782e-01
5	 1	 83	 flanked	 bex	 8	 5.000000	 2.000000	 flanked_bex_freq_8_amplitude_5_rep_2_l_N_2.0.png	 N	 l	 l	 n.a.	 2.789680e-01
5	 1	 84	 flanked	 bex	 6	 1.500000	 2.000000	 flanked_bex_freq_6_amplitude_1.5_rep_4_r_H_2.0.png	 H	 r	 r	 n.a.	 3.001660e-01
5	 1	 85	 flanked	 bex	 8	 1.000000	 2.000000	 flanked_bex_freq_8_amplitude_1_rep_3_t_K_2.0.png	 K	 t	 t	 n.a.	 4.840497e-01
5	 1	 86	 flanked	 bex	 8	 5.000000	 2.000000	 flanked_bex_freq_8_amplitude_5_rep_1_l_D_2.0.png	 D	 l	 l	 n.a.	 2.297046e-01
5	 1	 87	 flanked	 bex	 4	 2.500000	 2.000000	 flanked_bex_freq_4_amplitude_2.5_rep_3_t_D_2.0.png	 D	 t	 t	 n.a.	 6.288271e-01
5	 1	 88	 flanked	 bex	 16	 2.500000	 2.000000	 flanked_bex_freq_16_amplitude_2.5_rep_0_l_K_2.0.png	 K	 l	 l	 n.a.	 3.373774e-01
5	 1	 89	 flanked	 bex	 32	 1.000000	 2.000000	 flanked_bex_freq_32_amplitude_1_rep_7_t_D_2.0.png	 D	 t	 b	 n.a.	 4.597326e-01
5	 1	 90	 flanked	 bex	 2	 2.000000	 2.000000	 flanked_bex_freq_2_amplitude_2_rep_4_b_N_2.0.png	 N	 b	 r	 n.a.	 4.769078e-01
5	 1	 91	 flanked	 bex	 6	 5.000000	 2.000000	 flanked_bex_freq_6_amplitude_5_rep_2_b_H_2.0.png	 H	 b	 b	 n.a.	 4.109648e-01
5	 1	 92	 flanked	 bex	 16	 5.000000	 2.000000	 flanked_bex_freq_16_amplitude_5_rep_8_t_N_2.0.png	 N	 t	 t	 n.a.	 4.209590e-01
5	 1	 93	 flanked	 bex	 32	 0.500000	 2.000000	 flanked_bex_freq_32_amplitude_0.5_rep_3_t_N_2.0.png	 N	 t	 r	 n.a.	 3.655975e-01
5	 1	 94	 flanked	 bex	 32	 3.000000	 2.000000	 flanked_bex_freq_32_amplitude_3_rep_6_t_N_2.0.png	 N	 t	 b	 n.a.	 3.745967e-01
5	 1	 95	 flanked	 bex	 6	 2.500000	 2.000000	 flanked_bex_freq_6_amplitude_2.5_rep_6_t_D_2.0.png	 D	 t	 t	 n.a.	 4.127350e-01
5	 1	 96	 flanked	 bex	 16	 2.000000	 2.000000	 flanked_bex_freq_16_amplitude_2_rep_9_l_H_2.0.png	 H	 l	 l	 n.a.	 3.003154e-01
5	 1	 97	 flanked	 bex	 6	 1.500000	 2.000000	 flanked_bex_freq_6_amplitude_1.5_rep_6_b_N_2.0.png	 N	 b	 l	 n.a.	 3.308603e-01
5	 1	 98	 flanked	 bex	 16	 5.000000	 2.000000	 flanked_bex_freq_16_amplitude_5_rep_7_t_H_2.0.png	 H	 t	 t	 n.a.	 4.853014e-01
5	 1	 99	 flanked	 bex	 2	 1.000000	 2.000000	 flanked_bex_freq_2_amplitude_1_rep_3_b_K_2.0.png	 K	 b	 r	 n.a.	 5.540627e-01
5	 1	 100	 flanked	 bex	 4	 0.500000	 2.000000	 flanked_bex_freq_4_amplitude_0.5_rep_8_l_H_2.0.png	 H	 l	 t	 n.a.	 5.481309e-01
5	 1	 101	 flanked	 bex	 6	 1.000000	 2.000000	 flanked_bex_freq_6_amplitude_1_rep_1_b_K_2.0.png	 K	 b	 l	 n.a.	 3.361638e-01
5	 1	 102	 flanked	 bex	 8	 2.000000	 2.000000	 flanked_bex_freq_8_amplitude_2_rep_6_t_K_2.0.png	 K	 t	 t	 n.a.	 5.146795e-01
5	 1	 103	 flanked	 bex	 16	 2.500000	 2.000000	 flanked_bex_freq_16_amplitude_2.5_rep_7_r_D_2.0.png	 D	 r	 r	 n.a.	 3.014406e-01
5	 1	 104	 flanked	 bex	 8	 5.000000	 2.000000	 flanked_bex_freq_8_amplitude_5_rep_8_t_D_2.0.png	 D	 t	 t	 n.a.	 4.597566e-01
5	 1	 105	 flanked	 bex	 32	 2.000000	 2.000000	 flanked_bex_freq_32_amplitude_2_rep_0_t_K_2.0.png	 K	 t	 r	 n.a.	 9.126784e-01
5	 1	 106	 flanked	 bex	 4	 2.000000	 2.000000	 flanked_bex_freq_4_amplitude_2_rep_4_l_N_2.0.png	 N	 l	 l	 n.a.	 3.198849e-01
5	 1	 107	 flanked	 bex	 32	 5.000000	 2.000000	 flanked_bex_freq_32_amplitude_5_rep_8_l_K_2.0.png	 K	 l	 l	 n.a.	 3.442857e-01
5	 1	 108	 flanked	 bex	 8	 0.500000	 2.000000	 flanked_bex_freq_8_amplitude_0.5_rep_5_r_K_2.0.png	 K	 r	 t	 n.a.	 5.912887e-01
5	 1	 109	 flanked	 bex	 6	 5.000000	 2.000000	 flanked_bex_freq_6_amplitude_5_rep_4_b_D_2.0.png	 D	 b	 b	 n.a.	 2.353053e-01
5	 1	 110	 flanked	 bex	 4	 0.500000	 2.000000	 flanked_bex_freq_4_amplitude_0.5_rep_4_b_N_2.0.png	 N	 b	 r	 n.a.	 7.989050e-01
5	 1	 111	 flanked	 bex	 32	 5.000000	 2.000000	 flanked_bex_freq_32_amplitude_5_rep_0_b_N_2.0.png	 N	 b	 b	 n.a.	 5.139332e-01
5	 1	 112	 flanked	 bex	 32	 5.000000	 2.000000	 flanked_bex_freq_32_amplitude_5_rep_5_l_H_2.0.png	 H	 l	 l	 n.a.	 3.369555e-01
5	 1	 113	 flanked	 bex	 8	 3.000000	 2.000000	 flanked_bex_freq_8_amplitude_3_rep_9_l_K_2.0.png	 K	 l	 l	 n.a.	 2.746819e-01
5	 1	 114	 flanked	 bex	 4	 3.000000	 2.000000	 flanked_bex_freq_4_amplitude_3_rep_1_l_H_2.0.png	 H	 l	 l	 n.a.	 2.811557e-01
5	 1	 115	 flanked	 bex	 8	 1.000000	 2.000000	 flanked_bex_freq_8_amplitude_1_rep_4_t_N_2.0.png	 N	 t	 t	 n.a.	 5.500870e-01
5	 1	 116	 flanked	 bex	 8	 0.500000	 2.000000	 flanked_bex_freq_8_amplitude_0.5_rep_3_t_H_2.0.png	 H	 t	 b	 n.a.	 4.420633e-01
5	 1	 117	 flanked	 bex	 4	 1.500000	 2.000000	 flanked_bex_freq_4_amplitude_1.5_rep_7_b_H_2.0.png	 H	 b	 b	 n.a.	 2.926144e-01
5	 1	 118	 flanked	 bex	 16	 0.500000	 2.000000	 flanked_bex_freq_16_amplitude_0.5_rep_7_l_N_2.0.png	 N	 l	 r	 n.a.	 6.179040e-01
5	 1	 119	 flanked	 bex	 6	 0.500000	 2.000000	 flanked_bex_freq_6_amplitude_0.5_rep_9_r_N_2.0.png	 N	 r	 b	 n.a.	 3.440187e-01
5	 1	 120	 flanked	 bex	 2	 3.000000	 2.000000	 flanked_bex_freq_2_amplitude_3_rep_5_r_D_2.0.png	 D	 r	 r	 n.a.	 3.358893e-01
5	 1	 121	 flanked	 bex	 8	 2.500000	 2.000000	 flanked_bex_freq_8_amplitude_2.5_rep_1_l_D_2.0.png	 D	 l	 l	 n.a.	 3.771465e-01
5	 1	 122	 flanked	 bex	 6	 1.000000	 2.000000	 flanked_bex_freq_6_amplitude_1_rep_6_b_K_2.0.png	 K	 b	 b	 n.a.	 4.791557e-01
5	 1	 123	 flanked	 bex	 4	 1.500000	 2.000000	 flanked_bex_freq_4_amplitude_1.5_rep_8_r_N_2.0.png	 N	 r	 t	 n.a.	 5.491574e-01
5	 1	 124	 flanked	 bex	 2	 3.000000	 2.000000	 flanked_bex_freq_2_amplitude_3_rep_8_b_D_2.0.png	 D	 b	 t	 n.a.	 5.133016e-01
5	 1	 125	 flanked	 bex	 2	 0.500000	 2.000000	 flanked_bex_freq_2_amplitude_0.5_rep_3_t_N_2.0.png	 N	 t	 r	 n.a.	 5.732692e-01
5	 1	 126	 flanked	 bex	 2	 5.000000	 2.000000	 flanked_bex_freq_2_amplitude_5_rep_7_r_D_2.0.png	 D	 r	 r	 n.a.	 3.217526e-01
5	 1	 127	 flanked	 bex	 8	 1.000000	 2.000000	 flanked_bex_freq_8_amplitude_1_rep_2_r_N_2.0.png	 N	 r	 r	 n.a.	 5.929799e-01
5	 1	 128	 flanked	 bex	 2	 1.000000	 2.000000	 flanked_bex_freq_2_amplitude_1_rep_2_l_N_2.0.png	 N	 l	 l	 n.a.	 5.662939e-01
5	 1	 129	 flanked	 bex	 6	 2.500000	 2.000000	 flanked_bex_freq_6_amplitude_2.5_rep_3_l_H_2.0.png	 H	 l	 l	 n.a.	 3.725555e-01
5	 1	 130	 flanked	 bex	 32	 1.000000	 2.000000	 flanked_bex_freq_32_amplitude_1_rep_8_t_K_2.0.png	 K	 t	 l	 n.a.	 8.783666e-01
5	 1	 131	 flanked	 bex	 2	 3.000000	 2.000000	 flanked_bex_freq_2_amplitude_3_rep_9_r_N_2.0.png	 N	 r	 b	 n.a.	 5.904300e-01
5	 1	 132	 flanked	 bex	 2	 5.000000	 2.000000	 flanked_bex_freq_2_amplitude_5_rep_6_r_D_2.0.png	 D	 r	 r	 n.a.	 4.910760e-01
5	 1	 133	 flanked	 bex	 6	 5.000000	 2.000000	 flanked_bex_freq_6_amplitude_5_rep_1_t_H_2.0.png	 H	 t	 t	 n.a.	 5.352600e-01
5	 1	 134	 flanked	 bex	 6	 5.000000	 2.000000	 flanked_bex_freq_6_amplitude_5_rep_0_b_N_2.0.png	 N	 b	 b	 n.a.	 5.034184e-01
5	 1	 135	 flanked	 bex	 16	 3.000000	 2.000000	 flanked_bex_freq_16_amplitude_3_rep_7_r_H_2.0.png	 H	 r	 r	 n.a.	 3.183850e-01
5	 1	 136	 flanked	 bex	 2	 0.500000	 2.000000	 flanked_bex_freq_2_amplitude_0.5_rep_9_r_K_2.0.png	 K	 r	 r	 n.a.	 4.839716e-01
5	 1	 137	 flanked	 bex	 4	 1.000000	 2.000000	 flanked_bex_freq_4_amplitude_1_rep_7_l_D_2.0.png	 D	 l	 r	 n.a.	 5.277991e-01
5	 1	 138	 flanked	 bex	 6	 5.000000	 2.000000	 flanked_bex_freq_6_amplitude_5_rep_6_b_K_2.0.png	 K	 b	 b	 n.a.	 4.162243e-01
5	 1	 139	 flanked	 bex	 6	 2.000000	 2.000000	 flanked_bex_freq_6_amplitude_2_rep_6_b_D_2.0.png	 D	 b	 t	 n.a.	 9.068752e-01
5	 1	 140	 flanked	 bex	 6	 2.000000	 2.000000	 flanked_bex_freq_6_amplitude_2_rep_8_r_D_2.0.png	 D	 r	 r	 n.a.	 2.725166e-01
5	 1	 141	 flanked	 bex	 8	 0.500000	 2.000000	 flanked_bex_freq_8_amplitude_0.5_rep_1_l_H_2.0.png	 H	 l	 t	 n.a.	 5.846044e-01
5	 1	 142	 flanked	 bex	 4	 1.500000	 2.000000	 flanked_bex_freq_4_amplitude_1.5_rep_3_l_D_2.0.png	 D	 l	 t	 n.a.	 5.295088e-01
5	 1	 143	 flanked	 bex	 2	 3.000000	 2.000000	 flanked_bex_freq_2_amplitude_3_rep_7_r_H_2.0.png	 H	 r	 r	 n.a.	 2.799997e-01
5	 1	 144	 flanked	 bex	 16	 2.000000	 2.000000	 flanked_bex_freq_16_amplitude_2_rep_8_b_K_2.0.png	 K	 b	 b	 n.a.	 4.508266e-01
5	 1	 145	 flanked	 bex	 2	 2.500000	 2.000000	 flanked_bex_freq_2_amplitude_2.5_rep_0_r_K_2.0.png	 K	 r	 r	 n.a.	 3.204823e-01
5	 1	 146	 flanked	 bex	 16	 2.000000	 2.000000	 flanked_bex_freq_16_amplitude_2_rep_6_t_D_2.0.png	 D	 t	 b	 n.a.	 6.261272e-01
5	 1	 147	 flanked	 bex	 6	 2.000000	 2.000000	 flanked_bex_freq_6_amplitude_2_rep_4_t_D_2.0.png	 D	 t	 r	 n.a.	 2.639070e-01
5	 1	 148	 flanked	 bex	 4	 1.000000	 2.000000	 flanked_bex_freq_4_amplitude_1_rep_5_r_K_2.0.png	 K	 r	 r	 n.a.	 3.521176e-01
5	 1	 149	 flanked	 bex	 32	 2.000000	 2.000000	 flanked_bex_freq_32_amplitude_2_rep_6_l_D_2.0.png	 D	 l	 t	 n.a.	 4.984224e-01
5	 1	 150	 flanked	 bex	 32	 2.500000	 2.000000	 flanked_bex_freq_32_amplitude_2.5_rep_9_l_N_2.0.png	 N	 l	 l	 n.a.	 3.720471e-01
5	 1	 151	 flanked	 bex	 16	 3.000000	 2.000000	 flanked_bex_freq_16_amplitude_3_rep_2_r_N_2.0.png	 N	 r	 r	 n.a.	 3.559973e-01
5	 1	 152	 flanked	 bex	 2	 2.000000	 2.000000	 flanked_bex_freq_2_amplitude_2_rep_5_t_D_2.0.png	 D	 t	 r	 n.a.	 4.680628e-01
5	 1	 153	 flanked	 bex	 8	 0.500000	 2.000000	 flanked_bex_freq_8_amplitude_0.5_rep_7_t_K_2.0.png	 K	 t	 t	 n.a.	 5.982604e-01
5	 1	 154	 flanked	 bex	 2	 2.500000	 2.000000	 flanked_bex_freq_2_amplitude_2.5_rep_9_r_N_2.0.png	 N	 r	 r	 n.a.	 3.395366e-01
5	 1	 155	 flanked	 bex	 4	 1.500000	 2.000000	 flanked_bex_freq_4_amplitude_1.5_rep_1_l_N_2.0.png	 N	 l	 l	 n.a.	 4.797260e-01
5	 1	 156	 flanked	 bex	 32	 1.500000	 2.000000	 flanked_bex_freq_32_amplitude_1.5_rep_2_l_K_2.0.png	 K	 l	 b	 n.a.	 4.259500e-01
5	 1	 157	 flanked	 bex	 6	 1.500000	 2.000000	 flanked_bex_freq_6_amplitude_1.5_rep_5_b_K_2.0.png	 K	 b	 t	 n.a.	 5.179936e-01
5	 1	 158	 flanked	 bex	 16	 0.500000	 2.000000	 flanked_bex_freq_16_amplitude_0.5_rep_3_l_D_2.0.png	 D	 l	 b	 n.a.	 7.712343e-01
5	 1	 159	 flanked	 bex	 32	 3.000000	 2.000000	 flanked_bex_freq_32_amplitude_3_rep_4_b_N_2.0.png	 N	 b	 r	 n.a.	 3.551900e-01
5	 1	 160	 flanked	 bex	 32	 1.500000	 2.000000	 flanked_bex_freq_32_amplitude_1.5_rep_6_l_N_2.0.png	 N	 l	 t	 n.a.	 6.080885e-01
5	 1	 161	 flanked	 bex	 4	 5.000000	 2.000000	 flanked_bex_freq_4_amplitude_5_rep_5_b_N_2.0.png	 N	 b	 b	 n.a.	 3.713663e-01
5	 1	 162	 flanked	 bex	 32	 5.000000	 2.000000	 flanked_bex_freq_32_amplitude_5_rep_4_l_K_2.0.png	 K	 l	 l	 n.a.	 3.387637e-01
5	 1	 163	 flanked	 bex	 4	 2.500000	 2.000000	 flanked_bex_freq_4_amplitude_2.5_rep_2_t_N_2.0.png	 N	 t	 b	 n.a.	 5.094704e-01
5	 1	 164	 flanked	 bex	 6	 2.000000	 2.000000	 flanked_bex_freq_6_amplitude_2_rep_7_t_N_2.0.png	 N	 t	 t	 n.a.	 4.353212e-01
5	 1	 165	 flanked	 bex	 16	 0.500000	 2.000000	 flanked_bex_freq_16_amplitude_0.5_rep_0_t_N_2.0.png	 N	 t	 r	 n.a.	 7.753455e-01
5	 1	 166	 flanked	 bex	 32	 2.500000	 2.000000	 flanked_bex_freq_32_amplitude_2.5_rep_3_t_N_2.0.png	 N	 t	 l	 n.a.	 4.852704e-01
5	 1	 167	 flanked	 bex	 4	 1.000000	 2.000000	 flanked_bex_freq_4_amplitude_1_rep_1_r_N_2.0.png	 N	 r	 r	 n.a.	 2.660018e-01
5	 1	 168	 flanked	 bex	 16	 2.500000	 2.000000	 flanked_bex_freq_16_amplitude_2.5_rep_3_l_N_2.0.png	 N	 l	 l	 n.a.	 3.791461e-01
5	 1	 169	 flanked	 bex	 32	 2.500000	 2.000000	 flanked_bex_freq_32_amplitude_2.5_rep_2_b_H_2.0.png	 H	 b	 b	 n.a.	 6.813661e-01
5	 1	 170	 flanked	 bex	 16	 1.500000	 2.000000	 flanked_bex_freq_16_amplitude_1.5_rep_4_r_K_2.0.png	 K	 r	 r	 n.a.	 3.490329e-01
5	 1	 171	 flanked	 bex	 2	 3.000000	 2.000000	 flanked_bex_freq_2_amplitude_3_rep_3_b_H_2.0.png	 H	 b	 r	 n.a.	 8.540901e-01
5	 1	 172	 flanked	 bex	 2	 2.000000	 2.000000	 flanked_bex_freq_2_amplitude_2_rep_6_t_N_2.0.png	 N	 t	 b	 n.a.	 4.788226e-01
5	 1	 173	 flanked	 bex	 6	 3.000000	 2.000000	 flanked_bex_freq_6_amplitude_3_rep_0_b_K_2.0.png	 K	 b	 b	 n.a.	 3.532952e-01
5	 1	 174	 flanked	 bex	 8	 1.500000	 2.000000	 flanked_bex_freq_8_amplitude_1.5_rep_6_r_N_2.0.png	 N	 r	 r	 n.a.	 2.844960e-01
5	 1	 175	 flanked	 bex	 2	 2.000000	 2.000000	 flanked_bex_freq_2_amplitude_2_rep_0_t_N_2.0.png	 N	 t	 t	 n.a.	 5.842479e-01
5	 1	 176	 flanked	 bex	 2	 2.500000	 2.000000	 flanked_bex_freq_2_amplitude_2.5_rep_7_l_K_2.0.png	 K	 l	 r	 n.a.	 4.481578e-01
5	 1	 177	 flanked	 bex	 2	 2.000000	 2.000000	 flanked_bex_freq_2_amplitude_2_rep_9_l_H_2.0.png	 H	 l	 r	 n.a.	 2.372877e-01
5	 1	 178	 flanked	 bex	 8	 3.000000	 2.000000	 flanked_bex_freq_8_amplitude_3_rep_0_b_K_2.0.png	 K	 b	 b	 n.a.	 4.131211e-01
5	 1	 179	 flanked	 bex	 6	 3.000000	 2.000000	 flanked_bex_freq_6_amplitude_3_rep_7_t_K_2.0.png	 K	 t	 t	 n.a.	 4.464676e-01
5	 1	 180	 flanked	 bex	 32	 5.000000	 2.000000	 flanked_bex_freq_32_amplitude_5_rep_7_l_K_2.0.png	 K	 l	 l	 n.a.	 3.564718e-01
5	 1	 181	 flanked	 bex	 6	 1.000000	 2.000000	 flanked_bex_freq_6_amplitude_1_rep_9_t_K_2.0.png	 K	 t	 r	 n.a.	 4.234277e-01
5	 1	 182	 flanked	 bex	 8	 5.000000	 2.000000	 flanked_bex_freq_8_amplitude_5_rep_3_l_N_2.0.png	 N	 l	 l	 n.a.	 2.783335e-01
5	 1	 183	 flanked	 bex	 6	 2.000000	 2.000000	 flanked_bex_freq_6_amplitude_2_rep_9_t_H_2.0.png	 H	 t	 b	 n.a.	 4.676607e-01
5	 1	 184	 flanked	 bex	 4	 3.000000	 2.000000	 flanked_bex_freq_4_amplitude_3_rep_0_l_K_2.0.png	 K	 l	 l	 n.a.	 4.358455e-01
5	 1	 185	 flanked	 bex	 8	 3.000000	 2.000000	 flanked_bex_freq_8_amplitude_3_rep_5_t_H_2.0.png	 H	 t	 t	 n.a.	 5.056559e-01
5	 1	 186	 flanked	 bex	 6	 0.500000	 2.000000	 flanked_bex_freq_6_amplitude_0.5_rep_7_r_K_2.0.png	 K	 r	 r	 n.a.	 4.221988e-01
5	 1	 187	 flanked	 bex	 2	 2.000000	 2.000000	 flanked_bex_freq_2_amplitude_2_rep_2_r_N_2.0.png	 N	 r	 r	 n.a.	 4.461934e-01
5	 1	 188	 flanked	 bex	 16	 5.000000	 2.000000	 flanked_bex_freq_16_amplitude_5_rep_6_l_N_2.0.png	 N	 l	 l	 n.a.	 3.685650e-01
5	 1	 189	 flanked	 bex	 8	 2.000000	 2.000000	 flanked_bex_freq_8_amplitude_2_rep_7_l_D_2.0.png	 D	 l	 l	 n.a.	 8.072634e-01
5	 1	 190	 flanked	 bex	 16	 5.000000	 2.000000	 flanked_bex_freq_16_amplitude_5_rep_9_b_D_2.0.png	 D	 b	 b	 n.a.	 5.683549e-01
5	 1	 191	 flanked	 bex	 16	 1.000000	 2.000000	 flanked_bex_freq_16_amplitude_1_rep_1_l_K_2.0.png	 K	 l	 l	 n.a.	 5.332710e-01
5	 1	 192	 flanked	 bex	 6	 2.500000	 2.000000	 flanked_bex_freq_6_amplitude_2.5_rep_5_b_H_2.0.png	 H	 b	 b	 n.a.	 6.106511e-01
5	 1	 193	 flanked	 bex	 16	 2.000000	 2.000000	 flanked_bex_freq_16_amplitude_2_rep_2_l_N_2.0.png	 N	 l	 l	 n.a.	 4.144819e-01
5	 1	 194	 flanked	 bex	 16	 1.500000	 2.000000	 flanked_bex_freq_16_amplitude_1.5_rep_5_t_H_2.0.png	 H	 t	 b	 n.a.	 8.637841e-01
5	 1	 195	 flanked	 bex	 32	 3.000000	 2.000000	 flanked_bex_freq_32_amplitude_3_rep_3_t_D_2.0.png	 D	 t	 t	 n.a.	 5.724822e-01
5	 1	 196	 flanked	 bex	 16	 0.500000	 2.000000	 flanked_bex_freq_16_amplitude_0.5_rep_8_t_H_2.0.png	 H	 t	 b	 n.a.	 6.636932e-01
5	 1	 197	 flanked	 bex	 4	 0.500000	 2.000000	 flanked_bex_freq_4_amplitude_0.5_rep_5_r_K_2.0.png	 K	 r	 l	 n.a.	 7.649799e-01
5	 1	 198	 flanked	 bex	 4	 3.000000	 2.000000	 flanked_bex_freq_4_amplitude_3_rep_9_r_H_2.0.png	 H	 r	 r	 n.a.	 2.676215e-01
5	 1	 199	 flanked	 bex	 2	 1.000000	 2.000000	 flanked_bex_freq_2_amplitude_1_rep_6_b_D_2.0.png	 D	 b	 b	 n.a.	 6.155292e-01
5	 1	 200	 flanked	 bex	 32	 3.000000	 2.000000	 flanked_bex_freq_32_amplitude_3_rep_0_t_H_2.0.png	 H	 t	 t	 n.a.	 6.726927e-01
5	 1	 201	 flanked	 bex	 2	 0.500000	 2.000000	 flanked_bex_freq_2_amplitude_0.5_rep_2_b_K_2.0.png	 K	 b	 r	 n.a.	 6.191342e-01
5	 1	 202	 flanked	 bex	 4	 0.500000	 2.000000	 flanked_bex_freq_4_amplitude_0.5_rep_7_t_K_2.0.png	 K	 t	 r	 n.a.	 4.011015e-01
5	 1	 203	 flanked	 bex	 6	 2.500000	 2.000000	 flanked_bex_freq_6_amplitude_2.5_rep_0_r_N_2.0.png	 N	 r	 r	 n.a.	 2.186993e-01
5	 1	 204	 flanked	 bex	 32	 2.000000	 2.000000	 flanked_bex_freq_32_amplitude_2_rep_3_b_K_2.0.png	 K	 b	 b	 n.a.	 5.523309e-01
5	 1	 205	 flanked	 bex	 8	 3.000000	 2.000000	 flanked_bex_freq_8_amplitude_3_rep_8_t_N_2.0.png	 N	 t	 t	 n.a.	 5.772056e-01
5	 1	 206	 flanked	 bex	 4	 1.000000	 2.000000	 flanked_bex_freq_4_amplitude_1_rep_4_l_K_2.0.png	 K	 l	 r	 n.a.	 6.218469e-01
5	 1	 207	 flanked	 bex	 32	 1.500000	 2.000000	 flanked_bex_freq_32_amplitude_1.5_rep_0_b_H_2.0.png	 H	 b	 r	 n.a.	 7.083459e-01
5	 1	 208	 flanked	 bex	 6	 0.500000	 2.000000	 flanked_bex_freq_6_amplitude_0.5_rep_5_r_D_2.0.png	 D	 r	 l	 n.a.	 7.081626e-01
5	 1	 209	 flanked	 bex	 8	 1.500000	 2.000000	 flanked_bex_freq_8_amplitude_1.5_rep_7_b_N_2.0.png	 N	 b	 r	 n.a.	 4.286336e-01
5	 1	 210	 flanked	 bex	 2	 2.500000	 2.000000	 flanked_bex_freq_2_amplitude_2.5_rep_5_t_N_2.0.png	 N	 t	 r	 n.a.	 8.068580e-01
5	 1	 211	 flanked	 bex	 4	 2.000000	 2.000000	 flanked_bex_freq_4_amplitude_2_rep_7_t_D_2.0.png	 D	 t	 b	 n.a.	 4.643504e-01
5	 1	 212	 flanked	 bex	 4	 2.500000	 2.000000	 flanked_bex_freq_4_amplitude_2.5_rep_4_l_H_2.0.png	 H	 l	 l	 n.a.	 3.679824e-01
5	 1	 213	 flanked	 bex	 2	 5.000000	 2.000000	 flanked_bex_freq_2_amplitude_5_rep_2_t_N_2.0.png	 N	 t	 t	 n.a.	 4.767979e-01
5	 1	 214	 flanked	 bex	 16	 2.500000	 2.000000	 flanked_bex_freq_16_amplitude_2.5_rep_2_r_H_2.0.png	 H	 r	 r	 n.a.	 2.995175e-01
5	 1	 215	 flanked	 bex	 2	 3.000000	 2.000000	 flanked_bex_freq_2_amplitude_3_rep_2_l_K_2.0.png	 K	 l	 l	 n.a.	 3.163806e-01
5	 1	 216	 flanked	 bex	 8	 1.500000	 2.000000	 flanked_bex_freq_8_amplitude_1.5_rep_8_b_H_2.0.png	 H	 b	 l	 n.a.	 5.889905e-01
5	 1	 217	 flanked	 bex	 32	 5.000000	 2.000000	 flanked_bex_freq_32_amplitude_5_rep_1_r_H_2.0.png	 H	 r	 r	 n.a.	 2.734280e-01
5	 1	 218	 flanked	 bex	 8	 2.000000	 2.000000	 flanked_bex_freq_8_amplitude_2_rep_2_r_H_2.0.png	 H	 r	 r	 n.a.	 3.323956e-01
5	 1	 219	 flanked	 bex	 2	 5.000000	 2.000000	 flanked_bex_freq_2_amplitude_5_rep_1_r_N_2.0.png	 N	 r	 r	 n.a.	 3.061378e-01
5	 1	 220	 flanked	 bex	 4	 0.500000	 2.000000	 flanked_bex_freq_4_amplitude_0.5_rep_9_t_K_2.0.png	 K	 t	 r	 n.a.	 5.952507e-01
5	 1	 221	 flanked	 bex	 2	 1.000000	 2.000000	 flanked_bex_freq_2_amplitude_1_rep_7_b_N_2.0.png	 N	 b	 b	 n.a.	 1.255108e+00
5	 1	 222	 flanked	 bex	 6	 1.000000	 2.000000	 flanked_bex_freq_6_amplitude_1_rep_8_b_D_2.0.png	 D	 b	 t	 n.a.	 5.359221e-01
5	 1	 223	 flanked	 bex	 6	 3.000000	 2.000000	 flanked_bex_freq_6_amplitude_3_rep_3_l_H_2.0.png	 H	 l	 l	 n.a.	 2.473407e-01
5	 1	 224	 flanked	 bex	 16	 1.000000	 2.000000	 flanked_bex_freq_16_amplitude_1_rep_2_l_K_2.0.png	 K	 l	 r	 n.a.	 3.194745e-01
5	 1	 225	 flanked	 bex	 8	 2.000000	 2.000000	 flanked_bex_freq_8_amplitude_2_rep_5_t_D_2.0.png	 D	 t	 t	 n.a.	 4.806378e-01
5	 1	 226	 flanked	 bex	 4	 5.000000	 2.000000	 flanked_bex_freq_4_amplitude_5_rep_4_r_D_2.0.png	 D	 r	 r	 n.a.	 3.098798e-01
5	 1	 227	 flanked	 bex	 8	 1.000000	 2.000000	 flanked_bex_freq_8_amplitude_1_rep_6_r_D_2.0.png	 D	 r	 r	 n.a.	 4.987161e-01
5	 1	 228	 flanked	 bex	 2	 1.500000	 2.000000	 flanked_bex_freq_2_amplitude_1.5_rep_2_b_H_2.0.png	 H	 b	 t	 n.a.	 4.930457e-01
5	 1	 229	 flanked	 bex	 16	 2.000000	 2.000000	 flanked_bex_freq_16_amplitude_2_rep_0_r_N_2.0.png	 N	 r	 r	 n.a.	 2.867070e-01
5	 1	 230	 flanked	 bex	 6	 3.000000	 2.000000	 flanked_bex_freq_6_amplitude_3_rep_2_t_D_2.0.png	 D	 t	 t	 n.a.	 4.966781e-01
5	 1	 231	 flanked	 bex	 6	 0.500000	 2.000000	 flanked_bex_freq_6_amplitude_0.5_rep_0_r_N_2.0.png	 N	 r	 r	 n.a.	 4.799784e-01
5	 1	 232	 flanked	 bex	 6	 2.000000	 2.000000	 flanked_bex_freq_6_amplitude_2_rep_3_r_K_2.0.png	 K	 r	 r	 n.a.	 2.716371e-01
5	 1	 233	 flanked	 bex	 32	 3.000000	 2.000000	 flanked_bex_freq_32_amplitude_3_rep_1_t_K_2.0.png	 K	 t	 l	 n.a.	 6.653769e-01
5	 1	 234	 flanked	 bex	 16	 0.500000	 2.000000	 flanked_bex_freq_16_amplitude_0.5_rep_5_r_N_2.0.png	 N	 r	 t	 n.a.	 4.045434e-01
5	 1	 235	 flanked	 bex	 6	 2.500000	 2.000000	 flanked_bex_freq_6_amplitude_2.5_rep_4_t_K_2.0.png	 K	 t	 t	 n.a.	 4.108088e-01
5	 1	 236	 flanked	 bex	 4	 1.000000	 2.000000	 flanked_bex_freq_4_amplitude_1_rep_0_b_D_2.0.png	 D	 b	 r	 n.a.	 4.002693e-01
5	 1	 237	 flanked	 bex	 2	 5.000000	 2.000000	 flanked_bex_freq_2_amplitude_5_rep_8_b_K_2.0.png	 K	 b	 b	 n.a.	 5.517929e-01
5	 1	 238	 flanked	 bex	 16	 5.000000	 2.000000	 flanked_bex_freq_16_amplitude_5_rep_2_l_D_2.0.png	 D	 l	 l	 n.a.	 3.562954e-01
5	 1	 239	 flanked	 bex	 2	 0.500000	 2.000000	 flanked_bex_freq_2_amplitude_0.5_rep_6_b_H_2.0.png	 H	 b	 t	 n.a.	 5.048527e-01
5	 1	 240	 flanked	 bex	 6	 0.500000	 2.000000	 flanked_bex_freq_6_amplitude_0.5_rep_2_t_K_2.0.png	 K	 t	 b	 n.a.	 4.529654e-01
5	 1	 241	 flanked	 bex	 6	 2.500000	 2.000000	 flanked_bex_freq_6_amplitude_2.5_rep_7_b_N_2.0.png	 N	 b	 t	 n.a.	 5.374017e-01
5	 1	 242	 flanked	 bex	 16	 3.000000	 2.000000	 flanked_bex_freq_16_amplitude_3_rep_9_r_K_2.0.png	 K	 r	 r	 n.a.	 2.600356e-01
5	 1	 243	 flanked	 bex	 16	 1.500000	 2.000000	 flanked_bex_freq_16_amplitude_1.5_rep_6_b_K_2.0.png	 K	 b	 b	 n.a.	 5.325641e-01
5	 1	 244	 flanked	 bex	 32	 1.500000	 2.000000	 flanked_bex_freq_32_amplitude_1.5_rep_3_r_D_2.0.png	 D	 r	 l	 n.a.	 7.805256e-01
5	 1	 245	 flanked	 bex	 16	 5.000000	 2.000000	 flanked_bex_freq_16_amplitude_5_rep_0_t_D_2.0.png	 D	 t	 t	 n.a.	 5.121179e-01
5	 1	 246	 flanked	 bex	 6	 3.000000	 2.000000	 flanked_bex_freq_6_amplitude_3_rep_6_l_D_2.0.png	 D	 l	 l	 n.a.	 3.024905e-01
5	 1	 247	 flanked	 bex	 4	 3.000000	 2.000000	 flanked_bex_freq_4_amplitude_3_rep_7_b_D_2.0.png	 D	 b	 b	 n.a.	 1.191535e+00
5	 1	 248	 flanked	 bex	 2	 1.500000	 2.000000	 flanked_bex_freq_2_amplitude_1.5_rep_4_r_N_2.0.png	 N	 r	 l	 n.a.	 6.057855e-01
5	 1	 249	 flanked	 bex	 8	 0.500000	 2.000000	 flanked_bex_freq_8_amplitude_0.5_rep_4_l_D_2.0.png	 D	 l	 t	 n.a.	 4.013979e-01
5	 1	 250	 flanked	 bex	 32	 0.500000	 2.000000	 flanked_bex_freq_32_amplitude_0.5_rep_5_r_K_2.0.png	 K	 r	 r	 n.a.	 2.738456e-01
5	 1	 251	 flanked	 bex	 32	 1.500000	 2.000000	 flanked_bex_freq_32_amplitude_1.5_rep_4_b_H_2.0.png	 H	 b	 l	 n.a.	 4.711603e-01
5	 1	 252	 flanked	 bex	 8	 2.500000	 2.000000	 flanked_bex_freq_8_amplitude_2.5_rep_0_l_N_2.0.png	 N	 l	 l	 n.a.	 3.265236e-01
5	 1	 253	 flanked	 bex	 16	 5.000000	 2.000000	 flanked_bex_freq_16_amplitude_5_rep_5_r_N_2.0.png	 N	 r	 r	 n.a.	 2.646231e-01
5	 1	 254	 flanked	 bex	 32	 2.000000	 2.000000	 flanked_bex_freq_32_amplitude_2_rep_4_r_K_2.0.png	 K	 r	 r	 n.a.	 4.159669e-01
5	 1	 255	 flanked	 bex	 4	 5.000000	 2.000000	 flanked_bex_freq_4_amplitude_5_rep_8_l_N_2.0.png	 N	 l	 l	 n.a.	 2.940052e-01
5	 1	 256	 flanked	 bex	 8	 5.000000	 2.000000	 flanked_bex_freq_8_amplitude_5_rep_5_l_D_2.0.png	 D	 l	 l	 n.a.	 2.827955e-01
5	 1	 257	 flanked	 bex	 16	 2.500000	 2.000000	 flanked_bex_freq_16_amplitude_2.5_rep_8_l_N_2.0.png	 N	 l	 l	 n.a.	 2.886056e-01
5	 1	 258	 flanked	 bex	 16	 2.000000	 2.000000	 flanked_bex_freq_16_amplitude_2_rep_3_b_H_2.0.png	 H	 b	 t	 n.a.	 5.985326e-01
5	 1	 259	 flanked	 bex	 8	 5.000000	 2.000000	 flanked_bex_freq_8_amplitude_5_rep_4_t_K_2.0.png	 K	 t	 t	 n.a.	 4.359561e-01
5	 1	 260	 flanked	 bex	 16	 2.500000	 2.000000	 flanked_bex_freq_16_amplitude_2.5_rep_1_r_H_2.0.png	 H	 r	 r	 n.a.	 4.231617e-01
5	 1	 261	 flanked	 bex	 2	 5.000000	 2.000000	 flanked_bex_freq_2_amplitude_5_rep_5_t_H_2.0.png	 H	 t	 t	 n.a.	 5.141821e-01
5	 1	 262	 flanked	 bex	 2	 0.500000	 2.000000	 flanked_bex_freq_2_amplitude_0.5_rep_5_l_D_2.0.png	 D	 l	 r	 n.a.	 5.134075e-01
5	 1	 263	 flanked	 bex	 6	 2.000000	 2.000000	 flanked_bex_freq_6_amplitude_2_rep_5_t_D_2.0.png	 D	 t	 t	 n.a.	 4.079770e-01
5	 1	 264	 flanked	 bex	 16	 2.000000	 2.000000	 flanked_bex_freq_16_amplitude_2_rep_5_b_N_2.0.png	 N	 b	 t	 n.a.	 5.810718e-01
5	 1	 265	 flanked	 bex	 6	 1.500000	 2.000000	 flanked_bex_freq_6_amplitude_1.5_rep_9_b_H_2.0.png	 H	 b	 r	 n.a.	 3.298243e-01
5	 1	 266	 flanked	 bex	 32	 1.000000	 2.000000	 flanked_bex_freq_32_amplitude_1_rep_5_b_N_2.0.png	 N	 b	 r	 n.a.	 4.747273e-01
5	 1	 267	 flanked	 bex	 16	 1.500000	 2.000000	 flanked_bex_freq_16_amplitude_1.5_rep_1_l_N_2.0.png	 N	 l	 t	 n.a.	 4.989105e-01
5	 1	 268	 flanked	 bex	 16	 1.500000	 2.000000	 flanked_bex_freq_16_amplitude_1.5_rep_8_l_N_2.0.png	 N	 l	 b	 n.a.	 9.649249e-01
5	 1	 269	 flanked	 bex	 6	 3.000000	 2.000000	 flanked_bex_freq_6_amplitude_3_rep_9_l_D_2.0.png	 D	 l	 l	 n.a.	 2.906748e-01
5	 1	 270	 flanked	 bex	 4	 2.500000	 2.000000	 flanked_bex_freq_4_amplitude_2.5_rep_7_t_D_2.0.png	 D	 t	 t	 n.a.	 5.776995e-01
5	 1	 271	 flanked	 bex	 32	 3.000000	 2.000000	 flanked_bex_freq_32_amplitude_3_rep_7_b_D_2.0.png	 D	 b	 t	 n.a.	 4.467626e-01
5	 1	 272	 flanked	 bex	 2	 1.500000	 2.000000	 flanked_bex_freq_2_amplitude_1.5_rep_0_b_D_2.0.png	 D	 b	 r	 n.a.	 5.326307e-01
5	 1	 273	 flanked	 bex	 8	 3.000000	 2.000000	 flanked_bex_freq_8_amplitude_3_rep_1_b_K_2.0.png	 K	 b	 b	 n.a.	 4.296416e-01
5	 1	 274	 flanked	 bex	 32	 3.000000	 2.000000	 flanked_bex_freq_32_amplitude_3_rep_9_l_D_2.0.png	 D	 l	 b	 n.a.	 1.233593e+00
5	 1	 275	 flanked	 bex	 4	 0.500000	 2.000000	 flanked_bex_freq_4_amplitude_0.5_rep_1_r_H_2.0.png	 H	 r	 r	 n.a.	 5.583197e-01
5	 1	 276	 flanked	 bex	 8	 2.000000	 2.000000	 flanked_bex_freq_8_amplitude_2_rep_0_t_D_2.0.png	 D	 t	 t	 n.a.	 6.324220e-01
5	 1	 277	 flanked	 bex	 16	 1.500000	 2.000000	 flanked_bex_freq_16_amplitude_1.5_rep_0_b_K_2.0.png	 K	 b	 b	 n.a.	 7.075031e-01
5	 1	 278	 flanked	 bex	 8	 2.000000	 2.000000	 flanked_bex_freq_8_amplitude_2_rep_8_l_D_2.0.png	 D	 l	 l	 n.a.	 3.259590e-01
5	 1	 279	 flanked	 bex	 4	 2.000000	 2.000000	 flanked_bex_freq_4_amplitude_2_rep_5_t_D_2.0.png	 D	 t	 r	 n.a.	 5.123394e-01
5	 1	 280	 flanked	 bex	 4	 3.000000	 2.000000	 flanked_bex_freq_4_amplitude_3_rep_2_t_N_2.0.png	 N	 t	 t	 n.a.	 4.892553e-01
5	 1	 281	 flanked	 bex	 6	 2.000000	 2.000000	 flanked_bex_freq_6_amplitude_2_rep_2_l_D_2.0.png	 D	 l	 l	 n.a.	 2.903866e-01
5	 1	 282	 flanked	 bex	 6	 5.000000	 2.000000	 flanked_bex_freq_6_amplitude_5_rep_9_l_K_2.0.png	 K	 l	 l	 n.a.	 2.486466e-01
5	 1	 283	 flanked	 bex	 4	 1.000000	 2.000000	 flanked_bex_freq_4_amplitude_1_rep_3_b_H_2.0.png	 H	 b	 r	 n.a.	 2.875833e-01
5	 1	 284	 flanked	 bex	 32	 2.000000	 2.000000	 flanked_bex_freq_32_amplitude_2_rep_5_t_K_2.0.png	 K	 t	 b	 n.a.	 6.383203e-01
5	 1	 285	 flanked	 bex	 6	 2.000000	 2.000000	 flanked_bex_freq_6_amplitude_2_rep_0_r_H_2.0.png	 H	 r	 r	 n.a.	 2.445476e-01
5	 1	 286	 flanked	 bex	 6	 5.000000	 2.000000	 flanked_bex_freq_6_amplitude_5_rep_8_l_K_2.0.png	 K	 l	 l	 n.a.	 2.619625e-01
5	 1	 287	 flanked	 bex	 4	 3.000000	 2.000000	 flanked_bex_freq_4_amplitude_3_rep_6_l_H_2.0.png	 H	 l	 l	 n.a.	 3.420258e-01
5	 1	 288	 flanked	 bex	 32	 0.500000	 2.000000	 flanked_bex_freq_32_amplitude_0.5_rep_9_b_D_2.0.png	 D	 b	 t	 n.a.	 6.622008e-01
5	 1	 289	 flanked	 bex	 8	 3.000000	 2.000000	 flanked_bex_freq_8_amplitude_3_rep_6_r_H_2.0.png	 H	 r	 r	 n.a.	 2.666581e-01
5	 1	 290	 flanked	 bex	 6	 1.500000	 2.000000	 flanked_bex_freq_6_amplitude_1.5_rep_3_t_N_2.0.png	 N	 t	 t	 n.a.	 4.485500e-01
5	 1	 291	 flanked	 bex	 16	 2.000000	 2.000000	 flanked_bex_freq_16_amplitude_2_rep_1_b_K_2.0.png	 K	 b	 b	 n.a.	 6.477960e-01
5	 1	 292	 flanked	 bex	 8	 3.000000	 2.000000	 flanked_bex_freq_8_amplitude_3_rep_4_r_D_2.0.png	 D	 r	 r	 n.a.	 2.972791e-01
5	 1	 293	 flanked	 bex	 32	 1.500000	 2.000000	 flanked_bex_freq_32_amplitude_1.5_rep_5_l_N_2.0.png	 N	 l	 l	 n.a.	 4.288797e-01
5	 1	 294	 flanked	 bex	 8	 1.500000	 2.000000	 flanked_bex_freq_8_amplitude_1.5_rep_4_l_D_2.0.png	 D	 l	 l	 n.a.	 3.867725e-01
5	 1	 295	 flanked	 bex	 4	 2.000000	 2.000000	 flanked_bex_freq_4_amplitude_2_rep_8_t_H_2.0.png	 H	 t	 r	 n.a.	 3.582651e-01
5	 1	 296	 flanked	 bex	 2	 1.000000	 2.000000	 flanked_bex_freq_2_amplitude_1_rep_9_t_D_2.0.png	 D	 t	 r	 n.a.	 4.901930e-01
5	 1	 297	 flanked	 bex	 4	 5.000000	 2.000000	 flanked_bex_freq_4_amplitude_5_rep_7_r_H_2.0.png	 H	 r	 r	 n.a.	 2.837741e-01
5	 1	 298	 flanked	 bex	 32	 2.000000	 2.000000	 flanked_bex_freq_32_amplitude_2_rep_7_b_K_2.0.png	 K	 b	 r	 n.a.	 6.802054e-01
5	 1	 299	 flanked	 bex	 8	 1.500000	 2.000000	 flanked_bex_freq_8_amplitude_1.5_rep_3_t_K_2.0.png	 K	 t	 t	 n.a.	 3.515601e-01
5	 1	 300	 flanked	 bex	 4	 2.500000	 2.000000	 flanked_bex_freq_4_amplitude_2.5_rep_0_t_K_2.0.png	 K	 t	 b	 n.a.	 5.057606e-01
5	 1	 301	 flanked	 bex	 8	 5.000000	 2.000000	 flanked_bex_freq_8_amplitude_5_rep_9_t_H_2.0.png	 H	 t	 t	 n.a.	 3.848610e-01
5	 1	 302	 flanked	 bex	 2	 2.500000	 2.000000	 flanked_bex_freq_2_amplitude_2.5_rep_3_b_K_2.0.png	 K	 b	 t	 n.a.	 5.526012e-01
5	 1	 303	 flanked	 bex	 2	 3.000000	 2.000000	 flanked_bex_freq_2_amplitude_3_rep_0_l_H_2.0.png	 H	 l	 t	 n.a.	 3.366385e-01
5	 1	 304	 flanked	 bex	 2	 2.500000	 2.000000	 flanked_bex_freq_2_amplitude_2.5_rep_2_l_K_2.0.png	 K	 l	 l	 n.a.	 5.913646e-01
5	 1	 305	 flanked	 bex	 6	 5.000000	 2.000000	 flanked_bex_freq_6_amplitude_5_rep_7_l_D_2.0.png	 D	 l	 l	 n.a.	 3.581073e-01
5	 1	 306	 flanked	 bex	 8	 1.500000	 2.000000	 flanked_bex_freq_8_amplitude_1.5_rep_2_b_D_2.0.png	 D	 b	 t	 n.a.	 7.356909e-01
5	 1	 307	 flanked	 bex	 16	 0.500000	 2.000000	 flanked_bex_freq_16_amplitude_0.5_rep_6_t_N_2.0.png	 N	 t	 r	 n.a.	 9.018679e-01
5	 1	 308	 flanked	 bex	 8	 1.000000	 2.000000	 flanked_bex_freq_8_amplitude_1_rep_7_t_D_2.0.png	 D	 t	 b	 n.a.	 4.710722e-01
5	 1	 309	 flanked	 bex	 4	 2.500000	 2.000000	 flanked_bex_freq_4_amplitude_2.5_rep_1_l_N_2.0.png	 N	 l	 l	 n.a.	 3.181805e-01
5	 1	 310	 flanked	 bex	 32	 2.500000	 2.000000	 flanked_bex_freq_32_amplitude_2.5_rep_5_r_N_2.0.png	 N	 r	 r	 n.a.	 3.524451e-01
5	 1	 311	 flanked	 bex	 32	 1.500000	 2.000000	 flanked_bex_freq_32_amplitude_1.5_rep_9_l_K_2.0.png	 K	 l	 l	 n.a.	 3.350777e-01
5	 1	 312	 flanked	 bex	 2	 0.500000	 2.000000	 flanked_bex_freq_2_amplitude_0.5_rep_7_r_D_2.0.png	 D	 r	 t	 n.a.	 4.560325e-01
5	 1	 313	 flanked	 bex	 6	 1.000000	 2.000000	 flanked_bex_freq_6_amplitude_1_rep_3_r_D_2.0.png	 D	 r	 r	 n.a.	 5.513091e-01
5	 1	 314	 flanked	 bex	 4	 3.000000	 2.000000	 flanked_bex_freq_4_amplitude_3_rep_8_b_N_2.0.png	 N	 b	 b	 n.a.	 5.595155e-01
5	 1	 315	 flanked	 bex	 4	 2.000000	 2.000000	 flanked_bex_freq_4_amplitude_2_rep_0_t_H_2.0.png	 H	 t	 t	 n.a.	 6.993148e-01
5	 1	 316	 flanked	 bex	 6	 3.000000	 2.000000	 flanked_bex_freq_6_amplitude_3_rep_4_t_D_2.0.png	 D	 t	 r	 n.a.	 1.077458e+00
5	 1	 317	 flanked	 bex	 4	 3.000000	 2.000000	 flanked_bex_freq_4_amplitude_3_rep_4_t_D_2.0.png	 D	 t	 t	 n.a.	 4.682594e-01
5	 1	 318	 flanked	 bex	 16	 1.000000	 2.000000	 flanked_bex_freq_16_amplitude_1_rep_7_t_H_2.0.png	 H	 t	 r	 n.a.	 8.204819e-01
5	 1	 319	 flanked	 bex	 2	 5.000000	 2.000000	 flanked_bex_freq_2_amplitude_5_rep_3_l_H_2.0.png	 H	 l	 l	 n.a.	 3.730077e-01
5	 1	 320	 flanked	 bex	 4	 1.500000	 2.000000	 flanked_bex_freq_4_amplitude_1.5_rep_4_l_N_2.0.png	 N	 l	 l	 n.a.	 5.691228e-01
5	 1	 321	 flanked	 bex	 16	 2.500000	 2.000000	 flanked_bex_freq_16_amplitude_2.5_rep_9_r_N_2.0.png	 N	 r	 r	 n.a.	 3.888407e-01
5	 1	 322	 flanked	 bex	 32	 1.000000	 2.000000	 flanked_bex_freq_32_amplitude_1_rep_1_b_K_2.0.png	 K	 b	 b	 n.a.	 3.695722e-01
5	 1	 323	 flanked	 bex	 4	 5.000000	 2.000000	 flanked_bex_freq_4_amplitude_5_rep_9_r_N_2.0.png	 N	 r	 r	 n.a.	 3.419882e-01
5	 1	 324	 flanked	 bex	 6	 0.500000	 2.000000	 flanked_bex_freq_6_amplitude_0.5_rep_6_r_K_2.0.png	 K	 r	 r	 n.a.	 2.613416e-01
5	 1	 325	 flanked	 bex	 8	 5.000000	 2.000000	 flanked_bex_freq_8_amplitude_5_rep_0_r_D_2.0.png	 D	 r	 r	 n.a.	 2.893081e-01
5	 1	 326	 flanked	 bex	 8	 3.000000	 2.000000	 flanked_bex_freq_8_amplitude_3_rep_3_b_D_2.0.png	 D	 b	 b	 n.a.	 5.627136e-01
5	 1	 327	 flanked	 bex	 2	 2.500000	 2.000000	 flanked_bex_freq_2_amplitude_2.5_rep_6_t_K_2.0.png	 K	 t	 t	 n.a.	 6.817872e-01
5	 1	 328	 flanked	 bex	 4	 2.500000	 2.000000	 flanked_bex_freq_4_amplitude_2.5_rep_9_l_H_2.0.png	 H	 l	 l	 n.a.	 2.936082e-01
5	 1	 329	 flanked	 bex	 16	 3.000000	 2.000000	 flanked_bex_freq_16_amplitude_3_rep_4_r_H_2.0.png	 H	 r	 r	 n.a.	 3.041029e-01
5	 1	 330	 flanked	 bex	 32	 2.000000	 2.000000	 flanked_bex_freq_32_amplitude_2_rep_1_b_H_2.0.png	 H	 b	 r	 n.a.	 3.019588e-01
5	 1	 331	 flanked	 bex	 2	 1.000000	 2.000000	 flanked_bex_freq_2_amplitude_1_rep_5_r_N_2.0.png	 N	 r	 b	 n.a.	 5.534102e-01
5	 1	 332	 flanked	 bex	 32	 0.500000	 2.000000	 flanked_bex_freq_32_amplitude_0.5_rep_8_b_N_2.0.png	 N	 b	 l	 n.a.	 8.125510e-01
5	 1	 333	 flanked	 bex	 6	 1.000000	 2.000000	 flanked_bex_freq_6_amplitude_1_rep_7_l_D_2.0.png	 D	 l	 b	 n.a.	 4.589235e-01
5	 1	 334	 flanked	 bex	 8	 2.000000	 2.000000	 flanked_bex_freq_8_amplitude_2_rep_1_l_K_2.0.png	 K	 l	 l	 n.a.	 3.943492e-01
5	 1	 335	 flanked	 bex	 2	 1.500000	 2.000000	 flanked_bex_freq_2_amplitude_1.5_rep_5_r_H_2.0.png	 H	 r	 r	 n.a.	 5.045731e-01
5	 1	 336	 flanked	 bex	 16	 5.000000	 2.000000	 flanked_bex_freq_16_amplitude_5_rep_4_b_N_2.0.png	 N	 b	 b	 n.a.	 5.353306e-01
5	 1	 337	 flanked	 bex	 32	 0.500000	 2.000000	 flanked_bex_freq_32_amplitude_0.5_rep_7_t_D_2.0.png	 D	 t	 r	 n.a.	 3.933920e-01
5	 1	 338	 flanked	 bex	 6	 0.500000	 2.000000	 flanked_bex_freq_6_amplitude_0.5_rep_1_t_D_2.0.png	 D	 t	 b	 n.a.	 7.687454e-01
5	 1	 339	 flanked	 bex	 4	 1.500000	 2.000000	 flanked_bex_freq_4_amplitude_1.5_rep_0_b_H_2.0.png	 H	 b	 b	 n.a.	 5.279179e-01
5	 1	 340	 flanked	 bex	 4	 2.500000	 2.000000	 flanked_bex_freq_4_amplitude_2.5_rep_8_b_D_2.0.png	 D	 b	 r	 n.a.	 4.115379e-01
5	 1	 341	 flanked	 bex	 2	 5.000000	 2.000000	 flanked_bex_freq_2_amplitude_5_rep_0_t_N_2.0.png	 N	 t	 r	 n.a.	 9.062993e-01
5	 1	 342	 flanked	 bex	 8	 0.500000	 2.000000	 flanked_bex_freq_8_amplitude_0.5_rep_8_l_D_2.0.png	 D	 l	 b	 n.a.	 7.191040e-01
5	 1	 343	 flanked	 bex	 16	 1.000000	 2.000000	 flanked_bex_freq_16_amplitude_1_rep_6_l_N_2.0.png	 N	 l	 b	 n.a.	 1.376563e+00
5	 1	 344	 flanked	 bex	 6	 1.500000	 2.000000	 flanked_bex_freq_6_amplitude_1.5_rep_0_b_N_2.0.png	 N	 b	 b	 n.a.	 3.527355e-01
5	 1	 345	 flanked	 bex	 32	 0.500000	 2.000000	 flanked_bex_freq_32_amplitude_0.5_rep_6_r_K_2.0.png	 K	 r	 r	 n.a.	 1.110089e+00
5	 1	 346	 flanked	 bex	 2	 2.000000	 2.000000	 flanked_bex_freq_2_amplitude_2_rep_8_b_K_2.0.png	 K	 b	 r	 n.a.	 4.459638e-01
5	 1	 347	 flanked	 bex	 6	 0.500000	 2.000000	 flanked_bex_freq_6_amplitude_0.5_rep_8_t_K_2.0.png	 K	 t	 t	 n.a.	 1.777195e+00
5	 1	 348	 flanked	 bex	 16	 0.500000	 2.000000	 flanked_bex_freq_16_amplitude_0.5_rep_1_l_D_2.0.png	 D	 l	 b	 n.a.	 7.115214e-01
5	 1	 349	 flanked	 bex	 4	 3.000000	 2.000000	 flanked_bex_freq_4_amplitude_3_rep_5_r_D_2.0.png	 D	 r	 r	 n.a.	 2.334843e-01
5	 1	 350	 flanked	 bex	 2	 2.000000	 2.000000	 flanked_bex_freq_2_amplitude_2_rep_7_t_H_2.0.png	 H	 t	 t	 n.a.	 7.144548e-01
5	 1	 351	 flanked	 bex	 6	 1.000000	 2.000000	 flanked_bex_freq_6_amplitude_1_rep_4_r_H_2.0.png	 H	 r	 r	 n.a.	 2.967838e-01
5	 1	 352	 flanked	 bex	 8	 3.000000	 2.000000	 flanked_bex_freq_8_amplitude_3_rep_2_r_D_2.0.png	 D	 r	 r	 n.a.	 2.140700e-01
5	 1	 353	 flanked	 bex	 6	 1.500000	 2.000000	 flanked_bex_freq_6_amplitude_1.5_rep_7_b_H_2.0.png	 H	 b	 b	 n.a.	 4.444667e-01
5	 1	 354	 flanked	 bex	 8	 1.000000	 2.000000	 flanked_bex_freq_8_amplitude_1_rep_8_r_K_2.0.png	 K	 r	 r	 n.a.	 2.903995e-01
5	 1	 355	 flanked	 bex	 4	 2.500000	 2.000000	 flanked_bex_freq_4_amplitude_2.5_rep_6_l_N_2.0.png	 N	 l	 l	 n.a.	 2.943894e-01
5	 1	 356	 flanked	 bex	 16	 3.000000	 2.000000	 flanked_bex_freq_16_amplitude_3_rep_8_b_H_2.0.png	 H	 b	 l	 n.a.	 4.239523e-01
5	 1	 357	 flanked	 bex	 2	 2.500000	 2.000000	 flanked_bex_freq_2_amplitude_2.5_rep_8_r_H_2.0.png	 H	 r	 r	 n.a.	 2.163652e-01
5	 1	 358	 flanked	 bex	 2	 1.000000	 2.000000	 flanked_bex_freq_2_amplitude_1_rep_1_b_D_2.0.png	 D	 b	 l	 n.a.	 4.863370e-01
5	 1	 359	 flanked	 bex	 16	 2.500000	 2.000000	 flanked_bex_freq_16_amplitude_2.5_rep_5_t_K_2.0.png	 K	 t	 b	 n.a.	 5.195073e-01
5	 1	 360	 flanked	 bex	 32	 1.500000	 2.000000	 flanked_bex_freq_32_amplitude_1.5_rep_7_t_H_2.0.png	 H	 t	 t	 n.a.	 5.608630e-01
5	 1	 361	 flanked	 bex	 32	 1.000000	 2.000000	 flanked_bex_freq_32_amplitude_1_rep_0_r_D_2.0.png	 D	 r	 r	 n.a.	 4.594294e-01
5	 1	 362	 flanked	 bex	 8	 1.500000	 2.000000	 flanked_bex_freq_8_amplitude_1.5_rep_9_t_D_2.0.png	 D	 t	 l	 n.a.	 4.295007e-01
5	 1	 363	 flanked	 bex	 6	 3.000000	 2.000000	 flanked_bex_freq_6_amplitude_3_rep_8_b_D_2.0.png	 D	 b	 b	 n.a.	 3.425088e-01
5	 1	 364	 flanked	 bex	 16	 2.500000	 2.000000	 flanked_bex_freq_16_amplitude_2.5_rep_6_r_D_2.0.png	 D	 r	 r	 n.a.	 3.447759e-01
5	 1	 365	 flanked	 bex	 8	 1.000000	 2.000000	 flanked_bex_freq_8_amplitude_1_rep_0_r_H_2.0.png	 H	 r	 r	 n.a.	 4.407256e-01
5	 1	 366	 flanked	 bex	 32	 2.500000	 2.000000	 flanked_bex_freq_32_amplitude_2.5_rep_1_r_D_2.0.png	 D	 r	 r	 n.a.	 4.519266e-01
5	 1	 367	 flanked	 bex	 2	 5.000000	 2.000000	 flanked_bex_freq_2_amplitude_5_rep_9_l_N_2.0.png	 N	 l	 l	 n.a.	 4.194299e-01
5	 1	 368	 flanked	 bex	 4	 5.000000	 2.000000	 flanked_bex_freq_4_amplitude_5_rep_0_t_D_2.0.png	 D	 t	 t	 n.a.	 6.092854e-01
5	 1	 369	 flanked	 bex	 2	 1.000000	 2.000000	 flanked_bex_freq_2_amplitude_1_rep_8_l_K_2.0.png	 K	 l	 b	 n.a.	 5.675638e-01
5	 1	 370	 flanked	 bex	 6	 0.500000	 2.000000	 flanked_bex_freq_6_amplitude_0.5_rep_4_t_D_2.0.png	 D	 t	 r	 n.a.	 4.330216e-01
5	 1	 371	 flanked	 bex	 6	 2.500000	 2.000000	 flanked_bex_freq_6_amplitude_2.5_rep_8_l_D_2.0.png	 D	 l	 l	 n.a.	 3.212458e-01
5	 1	 372	 flanked	 bex	 8	 2.500000	 2.000000	 flanked_bex_freq_8_amplitude_2.5_rep_2_l_D_2.0.png	 D	 l	 l	 n.a.	 3.275836e-01
5	 1	 373	 flanked	 bex	 32	 5.000000	 2.000000	 flanked_bex_freq_32_amplitude_5_rep_3_r_H_2.0.png	 H	 r	 r	 n.a.	 3.430354e-01
5	 1	 374	 flanked	 bex	 2	 1.500000	 2.000000	 flanked_bex_freq_2_amplitude_1.5_rep_7_t_K_2.0.png	 K	 t	 r	 n.a.	 4.905936e-01
5	 1	 375	 flanked	 bex	 32	 2.000000	 2.000000	 flanked_bex_freq_32_amplitude_2_rep_8_l_N_2.0.png	 N	 l	 l	 n.a.	 3.618293e-01
5	 1	 376	 flanked	 bex	 4	 0.500000	 2.000000	 flanked_bex_freq_4_amplitude_0.5_rep_6_l_H_2.0.png	 H	 l	 b	 n.a.	 1.184851e+00
5	 1	 377	 flanked	 bex	 16	 1.000000	 2.000000	 flanked_bex_freq_16_amplitude_1_rep_9_t_D_2.0.png	 D	 t	 r	 n.a.	 3.110241e-01
5	 1	 378	 flanked	 bex	 8	 0.500000	 2.000000	 flanked_bex_freq_8_amplitude_0.5_rep_2_t_D_2.0.png	 D	 t	 l	 n.a.	 2.875241e-01
5	 1	 379	 flanked	 bex	 4	 0.500000	 2.000000	 flanked_bex_freq_4_amplitude_0.5_rep_2_r_N_2.0.png	 N	 r	 t	 n.a.	 4.521667e-01
5	 1	 380	 flanked	 bex	 8	 1.500000	 2.000000	 flanked_bex_freq_8_amplitude_1.5_rep_0_r_H_2.0.png	 H	 r	 r	 n.a.	 3.174599e-01
5	 1	 381	 flanked	 bex	 6	 2.500000	 2.000000	 flanked_bex_freq_6_amplitude_2.5_rep_1_l_H_2.0.png	 H	 l	 l	 n.a.	 3.984316e-01
5	 1	 382	 flanked	 bex	 4	 1.500000	 2.000000	 flanked_bex_freq_4_amplitude_1.5_rep_6_l_N_2.0.png	 N	 l	 r	 n.a.	 3.651179e-01
5	 1	 383	 flanked	 bex	 16	 3.000000	 2.000000	 flanked_bex_freq_16_amplitude_3_rep_1_b_H_2.0.png	 H	 b	 r	 n.a.	 5.478503e-01
5	 1	 384	 flanked	 bex	 32	 1.500000	 2.000000	 flanked_bex_freq_32_amplitude_1.5_rep_8_l_D_2.0.png	 D	 l	 b	 n.a.	 5.422532e-01
5	 1	 385	 flanked	 bex	 6	 1.000000	 2.000000	 flanked_bex_freq_6_amplitude_1_rep_5_b_K_2.0.png	 K	 b	 b	 n.a.	 8.159665e-01
5	 1	 386	 flanked	 bex	 16	 5.000000	 2.000000	 flanked_bex_freq_16_amplitude_5_rep_1_t_K_2.0.png	 K	 t	 t	 n.a.	 5.648224e-01
5	 1	 387	 flanked	 bex	 2	 2.500000	 2.000000	 flanked_bex_freq_2_amplitude_2.5_rep_1_t_H_2.0.png	 H	 t	 t	 n.a.	 7.600767e-01
5	 1	 388	 flanked	 bex	 4	 2.000000	 2.000000	 flanked_bex_freq_4_amplitude_2_rep_9_r_D_2.0.png	 D	 r	 r	 n.a.	 3.148652e-01
5	 1	 389	 flanked	 bex	 6	 2.000000	 2.000000	 flanked_bex_freq_6_amplitude_2_rep_1_t_K_2.0.png	 K	 t	 t	 n.a.	 5.628594e-01
5	 1	 390	 flanked	 bex	 16	 0.500000	 2.000000	 flanked_bex_freq_16_amplitude_0.5_rep_2_l_H_2.0.png	 H	 l	 r	 n.a.	 6.237052e-01
5	 1	 391	 flanked	 bex	 16	 1.000000	 2.000000	 flanked_bex_freq_16_amplitude_1_rep_0_t_K_2.0.png	 K	 t	 t	 n.a.	 4.524171e-01
5	 1	 392	 flanked	 bex	 6	 0.500000	 2.000000	 flanked_bex_freq_6_amplitude_0.5_rep_3_t_K_2.0.png	 K	 t	 r	 n.a.	 7.762362e-01
5	 1	 393	 flanked	 bex	 2	 2.500000	 2.000000	 flanked_bex_freq_2_amplitude_2.5_rep_4_b_N_2.0.png	 N	 b	 l	 n.a.	 6.712941e-01
5	 1	 394	 flanked	 bex	 4	 2.000000	 2.000000	 flanked_bex_freq_4_amplitude_2_rep_2_l_K_2.0.png	 K	 l	 l	 n.a.	 4.133971e-01
5	 1	 395	 flanked	 bex	 32	 5.000000	 2.000000	 flanked_bex_freq_32_amplitude_5_rep_6_l_N_2.0.png	 N	 l	 l	 n.a.	 6.498072e-01
5	 1	 396	 flanked	 bex	 32	 1.500000	 2.000000	 flanked_bex_freq_32_amplitude_1.5_rep_1_r_K_2.0.png	 K	 r	 r	 n.a.	 4.416075e-01
5	 1	 397	 flanked	 bex	 2	 2.000000	 2.000000	 flanked_bex_freq_2_amplitude_2_rep_3_l_H_2.0.png	 H	 l	 r	 n.a.	 5.483146e-01
5	 1	 398	 flanked	 bex	 6	 1.500000	 2.000000	 flanked_bex_freq_6_amplitude_1.5_rep_1_l_D_2.0.png	 D	 l	 b	 n.a.	 9.253619e-01
5	 1	 399	 flanked	 bex	 6	 5.000000	 2.000000	 flanked_bex_freq_6_amplitude_5_rep_3_l_K_2.0.png	 K	 l	 l	 n.a.	 3.474572e-01
5	 1	 400	 flanked	 bex	 16	 3.000000	 2.000000	 flanked_bex_freq_16_amplitude_3_rep_0_b_N_2.0.png	 N	 b	 b	 n.a.	 5.856972e-01
5	 1	 401	 flanked	 bex	 8	 2.000000	 2.000000	 flanked_bex_freq_8_amplitude_2_rep_3_b_D_2.0.png	 D	 b	 t	 n.a.	 5.000189e-01
5	 1	 402	 flanked	 bex	 8	 3.000000	 2.000000	 flanked_bex_freq_8_amplitude_3_rep_7_l_K_2.0.png	 K	 l	 l	 n.a.	 2.568423e-01
5	 1	 403	 flanked	 bex	 8	 2.500000	 2.000000	 flanked_bex_freq_8_amplitude_2.5_rep_5_r_K_2.0.png	 K	 r	 r	 n.a.	 2.989414e-01
5	 1	 404	 flanked	 bex	 32	 2.500000	 2.000000	 flanked_bex_freq_32_amplitude_2.5_rep_4_l_N_2.0.png	 N	 l	 l	 n.a.	 6.955299e-01
5	 1	 405	 flanked	 bex	 2	 1.500000	 2.000000	 flanked_bex_freq_2_amplitude_1.5_rep_3_b_N_2.0.png	 N	 b	 r	 n.a.	 3.551791e-01
5	 1	 406	 flanked	 bex	 32	 3.000000	 2.000000	 flanked_bex_freq_32_amplitude_3_rep_8_b_K_2.0.png	 K	 b	 r	 n.a.	 6.129148e-01
5	 1	 407	 flanked	 bex	 4	 5.000000	 2.000000	 flanked_bex_freq_4_amplitude_5_rep_2_r_D_2.0.png	 D	 r	 r	 n.a.	 2.955776e-01
5	 1	 408	 flanked	 bex	 6	 1.000000	 2.000000	 flanked_bex_freq_6_amplitude_1_rep_0_t_K_2.0.png	 K	 t	 r	 n.a.	 6.663915e-01
5	 1	 409	 flanked	 bex	 2	 3.000000	 2.000000	 flanked_bex_freq_2_amplitude_3_rep_1_b_K_2.0.png	 K	 b	 r	 n.a.	 6.672087e-01
5	 1	 410	 flanked	 bex	 32	 3.000000	 2.000000	 flanked_bex_freq_32_amplitude_3_rep_2_r_N_2.0.png	 N	 r	 r	 n.a.	 4.886881e-01
5	 1	 411	 flanked	 bex	 32	 2.500000	 2.000000	 flanked_bex_freq_32_amplitude_2.5_rep_6_r_K_2.0.png	 K	 r	 r	 n.a.	 4.291182e-01
5	 1	 412	 flanked	 bex	 8	 0.500000	 2.000000	 flanked_bex_freq_8_amplitude_0.5_rep_9_t_D_2.0.png	 D	 t	 t	 n.a.	 1.612240e+00
5	 1	 413	 flanked	 bex	 8	 1.000000	 2.000000	 flanked_bex_freq_8_amplitude_1_rep_5_r_N_2.0.png	 N	 r	 r	 n.a.	 4.293897e-01
5	 1	 414	 flanked	 bex	 2	 1.500000	 2.000000	 flanked_bex_freq_2_amplitude_1.5_rep_6_l_H_2.0.png	 H	 l	 b	 n.a.	 3.959838e-01
5	 1	 415	 flanked	 bex	 4	 3.000000	 2.000000	 flanked_bex_freq_4_amplitude_3_rep_3_r_D_2.0.png	 D	 r	 r	 n.a.	 2.863281e-01
5	 1	 416	 flanked	 bex	 16	 1.500000	 2.000000	 flanked_bex_freq_16_amplitude_1.5_rep_2_l_N_2.0.png	 N	 l	 l	 n.a.	 4.834085e-01
5	 1	 417	 flanked	 bex	 2	 0.500000	 2.000000	 flanked_bex_freq_2_amplitude_0.5_rep_1_l_D_2.0.png	 D	 l	 r	 n.a.	 4.781871e-01
5	 1	 418	 flanked	 bex	 32	 1.000000	 2.000000	 flanked_bex_freq_32_amplitude_1_rep_3_l_H_2.0.png	 H	 l	 b	 n.a.	 5.360877e-01
5	 1	 419	 flanked	 bex	 32	 3.000000	 2.000000	 flanked_bex_freq_32_amplitude_3_rep_5_l_K_2.0.png	 K	 l	 t	 n.a.	 4.727627e-01
5	 1	 420	 flanked	 bex	 6	 1.500000	 2.000000	 flanked_bex_freq_6_amplitude_1.5_rep_8_b_K_2.0.png	 K	 b	 r	 n.a.	 8.164526e-01
