subject	 session	 trial	 flanked	 distortion	 freq	 amplitude	 spacing	 im_name	 targ_letter	 targ_pos	 response	 eyemovement	 RT
7	 5	 1	 flanked	 bex	 2	 2.000000	 2.000000	 flanked_bex_freq_2_amplitude_2_rep_7_t_H_2.0.png	 H	 t	 b	 n.a.	 4.247175e-01
7	 5	 2	 flanked	 bex	 6	 0.500000	 2.000000	 flanked_bex_freq_6_amplitude_0.5_rep_2_t_K_2.0.png	 K	 t	 r	 n.a.	 7.456631e-01
7	 5	 3	 flanked	 bex	 4	 0.500000	 2.000000	 flanked_bex_freq_4_amplitude_0.5_rep_6_l_H_2.0.png	 H	 l	 b	 n.a.	 5.607336e-01
7	 5	 4	 flanked	 bex	 4	 0.250000	 2.000000	 flanked_bex_freq_4_amplitude_0.25_rep_8_l_D_2.0.png	 D	 l	 t	 n.a.	 4.244519e-01
7	 5	 5	 flanked	 bex	 32	 1.500000	 2.000000	 flanked_bex_freq_32_amplitude_1.5_rep_5_l_N_2.0.png	 N	 l	 l	 n.a.	 3.737405e-01
7	 5	 6	 flanked	 bex	 6	 1.500000	 2.000000	 flanked_bex_freq_6_amplitude_1.5_rep_5_b_K_2.0.png	 K	 b	 b	 n.a.	 5.353457e-01
7	 5	 7	 flanked	 bex	 32	 2.500000	 2.000000	 flanked_bex_freq_32_amplitude_2.5_rep_4_l_N_2.0.png	 N	 l	 r	 n.a.	 8.247005e-01
7	 5	 8	 flanked	 bex	 32	 1.500000	 2.000000	 flanked_bex_freq_32_amplitude_1.5_rep_1_r_K_2.0.png	 K	 r	 t	 n.a.	 5.424385e-01
7	 5	 9	 flanked	 bex	 6	 2.500000	 2.000000	 flanked_bex_freq_6_amplitude_2.5_rep_0_r_N_2.0.png	 N	 r	 r	 n.a.	 4.208189e-01
7	 5	 10	 flanked	 bex	 4	 0.500000	 2.000000	 flanked_bex_freq_4_amplitude_0.5_rep_0_b_H_2.0.png	 H	 b	 t	 n.a.	 6.087299e-01
7	 5	 11	 flanked	 bex	 8	 2.500000	 2.000000	 flanked_bex_freq_8_amplitude_2.5_rep_4_b_D_2.0.png	 D	 b	 b	 n.a.	 4.501768e-01
7	 5	 12	 flanked	 bex	 16	 3.000000	 2.000000	 flanked_bex_freq_16_amplitude_3_rep_2_r_N_2.0.png	 N	 r	 r	 n.a.	 3.332154e-01
7	 5	 13	 flanked	 bex	 8	 1.000000	 2.000000	 flanked_bex_freq_8_amplitude_1_rep_4_t_N_2.0.png	 N	 t	 t	 n.a.	 6.579628e-01
7	 5	 14	 flanked	 bex	 32	 0.500000	 2.000000	 flanked_bex_freq_32_amplitude_0.5_rep_6_r_K_2.0.png	 K	 r	 r	 n.a.	 7.265317e-01
7	 5	 15	 flanked	 bex	 2	 0.250000	 2.000000	 flanked_bex_freq_2_amplitude_0.25_rep_2_r_N_2.0.png	 N	 r	 b	 n.a.	 5.912426e-01
7	 5	 16	 flanked	 bex	 16	 3.000000	 2.000000	 flanked_bex_freq_16_amplitude_3_rep_7_r_H_2.0.png	 H	 r	 r	 n.a.	 2.866540e-01
7	 5	 17	 flanked	 bex	 16	 1.000000	 2.000000	 flanked_bex_freq_16_amplitude_1_rep_9_t_D_2.0.png	 D	 t	 l	 n.a.	 5.259025e-01
7	 5	 18	 flanked	 bex	 2	 0.500000	 2.000000	 flanked_bex_freq_2_amplitude_0.5_rep_9_r_K_2.0.png	 K	 r	 b	 n.a.	 4.478536e-01
7	 5	 19	 flanked	 bex	 4	 3.000000	 2.000000	 flanked_bex_freq_4_amplitude_3_rep_5_r_D_2.0.png	 D	 r	 r	 n.a.	 3.747430e-01
7	 5	 20	 flanked	 bex	 6	 1.500000	 2.000000	 flanked_bex_freq_6_amplitude_1.5_rep_3_t_N_2.0.png	 N	 t	 t	 n.a.	 3.532189e-01
7	 5	 21	 flanked	 bex	 6	 3.000000	 2.000000	 flanked_bex_freq_6_amplitude_3_rep_0_b_K_2.0.png	 K	 b	 b	 n.a.	 3.701372e-01
7	 5	 22	 flanked	 bex	 6	 1.000000	 2.000000	 flanked_bex_freq_6_amplitude_1_rep_0_t_K_2.0.png	 K	 t	 t	 n.a.	 6.292650e-01
7	 5	 23	 flanked	 bex	 2	 0.250000	 2.000000	 flanked_bex_freq_2_amplitude_0.25_rep_0_l_K_2.0.png	 K	 l	 t	 n.a.	 6.640479e-01
7	 5	 24	 flanked	 bex	 32	 3.000000	 2.000000	 flanked_bex_freq_32_amplitude_3_rep_9_l_D_2.0.png	 D	 l	 b	 n.a.	 5.590369e-01
7	 5	 25	 flanked	 bex	 8	 0.250000	 2.000000	 flanked_bex_freq_8_amplitude_0.25_rep_0_r_D_2.0.png	 D	 r	 r	 n.a.	 7.859815e-01
7	 5	 26	 flanked	 bex	 32	 3.000000	 2.000000	 flanked_bex_freq_32_amplitude_3_rep_2_r_N_2.0.png	 N	 r	 r	 n.a.	 3.680671e-01
7	 5	 27	 flanked	 bex	 16	 3.000000	 2.000000	 flanked_bex_freq_16_amplitude_3_rep_3_r_N_2.0.png	 N	 r	 r	 n.a.	 2.977704e-01
7	 5	 28	 flanked	 bex	 32	 2.000000	 2.000000	 flanked_bex_freq_32_amplitude_2_rep_5_t_K_2.0.png	 K	 t	 t	 n.a.	 4.021036e-01
7	 5	 29	 flanked	 bex	 8	 2.000000	 2.000000	 flanked_bex_freq_8_amplitude_2_rep_9_l_D_2.0.png	 D	 l	 l	 n.a.	 3.814037e-01
7	 5	 30	 flanked	 bex	 8	 0.500000	 2.000000	 flanked_bex_freq_8_amplitude_0.5_rep_4_l_D_2.0.png	 D	 l	 t	 n.a.	 6.233369e-01
7	 5	 31	 flanked	 bex	 4	 1.000000	 2.000000	 flanked_bex_freq_4_amplitude_1_rep_8_t_H_2.0.png	 H	 t	 b	 n.a.	 7.766221e-01
7	 5	 32	 flanked	 bex	 6	 3.000000	 2.000000	 flanked_bex_freq_6_amplitude_3_rep_9_l_D_2.0.png	 D	 l	 l	 n.a.	 3.089463e-01
7	 5	 33	 flanked	 bex	 2	 3.000000	 2.000000	 flanked_bex_freq_2_amplitude_3_rep_9_r_N_2.0.png	 N	 r	 r	 n.a.	 6.478497e-01
7	 5	 34	 flanked	 bex	 16	 0.500000	 2.000000	 flanked_bex_freq_16_amplitude_0.5_rep_4_r_K_2.0.png	 K	 r	 b	 n.a.	 5.006955e-01
7	 5	 35	 flanked	 bex	 2	 1.500000	 2.000000	 flanked_bex_freq_2_amplitude_1.5_rep_7_t_K_2.0.png	 K	 t	 t	 n.a.	 3.248366e-01
7	 5	 36	 flanked	 bex	 2	 0.500000	 2.000000	 flanked_bex_freq_2_amplitude_0.5_rep_7_r_D_2.0.png	 D	 r	 t	 n.a.	 4.197509e-01
7	 5	 37	 flanked	 bex	 16	 2.500000	 2.000000	 flanked_bex_freq_16_amplitude_2.5_rep_0_l_K_2.0.png	 K	 l	 l	 n.a.	 2.803493e-01
7	 5	 38	 flanked	 bex	 2	 1.500000	 2.000000	 flanked_bex_freq_2_amplitude_1.5_rep_6_l_H_2.0.png	 H	 l	 b	 n.a.	 8.555666e-01
7	 5	 39	 flanked	 bex	 2	 0.500000	 2.000000	 flanked_bex_freq_2_amplitude_0.5_rep_6_b_H_2.0.png	 H	 b	 t	 n.a.	 6.209512e-01
7	 5	 40	 flanked	 bex	 32	 2.000000	 2.000000	 flanked_bex_freq_32_amplitude_2_rep_8_l_N_2.0.png	 N	 l	 l	 n.a.	 3.610772e-01
7	 5	 41	 flanked	 bex	 4	 2.500000	 2.000000	 flanked_bex_freq_4_amplitude_2.5_rep_9_l_H_2.0.png	 H	 l	 l	 n.a.	 3.969113e-01
7	 5	 42	 flanked	 bex	 6	 2.500000	 2.000000	 flanked_bex_freq_6_amplitude_2.5_rep_3_l_H_2.0.png	 H	 l	 l	 n.a.	 3.630180e-01
7	 5	 43	 flanked	 bex	 6	 0.500000	 2.000000	 flanked_bex_freq_6_amplitude_0.5_rep_1_t_D_2.0.png	 D	 t	 b	 n.a.	 8.359653e-01
7	 5	 44	 flanked	 bex	 16	 0.250000	 2.000000	 flanked_bex_freq_16_amplitude_0.25_rep_2_l_H_2.0.png	 H	 l	 t	 n.a.	 6.447038e-01
7	 5	 45	 flanked	 bex	 32	 1.500000	 2.000000	 flanked_bex_freq_32_amplitude_1.5_rep_8_l_D_2.0.png	 D	 l	 l	 n.a.	 5.256491e-01
7	 5	 46	 flanked	 bex	 32	 0.250000	 2.000000	 flanked_bex_freq_32_amplitude_0.25_rep_0_r_N_2.0.png	 N	 r	 t	 n.a.	 4.578164e-01
7	 5	 47	 flanked	 bex	 8	 1.500000	 2.000000	 flanked_bex_freq_8_amplitude_1.5_rep_3_t_K_2.0.png	 K	 t	 t	 n.a.	 4.384793e-01
7	 5	 48	 flanked	 bex	 2	 0.500000	 2.000000	 flanked_bex_freq_2_amplitude_0.5_rep_1_l_D_2.0.png	 D	 l	 l	 n.a.	 8.134659e-01
7	 5	 49	 flanked	 bex	 4	 1.000000	 2.000000	 flanked_bex_freq_4_amplitude_1_rep_1_r_N_2.0.png	 N	 r	 r	 n.a.	 5.824576e-01
7	 5	 50	 flanked	 bex	 16	 2.000000	 2.000000	 flanked_bex_freq_16_amplitude_2_rep_8_b_K_2.0.png	 K	 b	 b	 n.a.	 5.117468e-01
7	 5	 51	 flanked	 bex	 32	 0.500000	 2.000000	 flanked_bex_freq_32_amplitude_0.5_rep_7_t_D_2.0.png	 D	 t	 l	 n.a.	 7.641838e-01
7	 5	 52	 flanked	 bex	 32	 0.500000	 2.000000	 flanked_bex_freq_32_amplitude_0.5_rep_9_b_D_2.0.png	 D	 b	 b	 n.a.	 9.241638e-01
7	 5	 53	 flanked	 bex	 4	 2.000000	 2.000000	 flanked_bex_freq_4_amplitude_2_rep_5_t_D_2.0.png	 D	 t	 t	 n.a.	 8.647473e-01
7	 5	 54	 flanked	 bex	 32	 0.500000	 2.000000	 flanked_bex_freq_32_amplitude_0.5_rep_8_b_N_2.0.png	 N	 b	 t	 n.a.	 7.746448e-01
7	 5	 55	 flanked	 bex	 4	 1.500000	 2.000000	 flanked_bex_freq_4_amplitude_1.5_rep_1_l_N_2.0.png	 N	 l	 t	 n.a.	 6.555520e-01
7	 5	 56	 flanked	 bex	 4	 1.500000	 2.000000	 flanked_bex_freq_4_amplitude_1.5_rep_2_b_K_2.0.png	 K	 b	 t	 n.a.	 5.977096e-01
7	 5	 57	 flanked	 bex	 2	 0.250000	 2.000000	 flanked_bex_freq_2_amplitude_0.25_rep_3_t_H_2.0.png	 H	 t	 l	 n.a.	 4.826215e-01
7	 5	 58	 flanked	 bex	 8	 3.000000	 2.000000	 flanked_bex_freq_8_amplitude_3_rep_9_l_K_2.0.png	 K	 l	 l	 n.a.	 3.893962e-01
7	 5	 59	 flanked	 bex	 8	 3.000000	 2.000000	 flanked_bex_freq_8_amplitude_3_rep_1_b_K_2.0.png	 K	 b	 b	 n.a.	 3.197926e-01
7	 5	 60	 flanked	 bex	 32	 0.500000	 2.000000	 flanked_bex_freq_32_amplitude_0.5_rep_3_t_N_2.0.png	 N	 t	 b	 n.a.	 4.937638e-01
7	 5	 61	 flanked	 bex	 8	 2.500000	 2.000000	 flanked_bex_freq_8_amplitude_2.5_rep_5_r_K_2.0.png	 K	 r	 r	 n.a.	 2.650956e-01
7	 5	 62	 flanked	 bex	 6	 2.000000	 2.000000	 flanked_bex_freq_6_amplitude_2_rep_6_b_D_2.0.png	 D	 b	 b	 n.a.	 6.616193e-01
7	 5	 63	 flanked	 bex	 16	 3.000000	 2.000000	 flanked_bex_freq_16_amplitude_3_rep_4_r_H_2.0.png	 H	 r	 r	 n.a.	 3.353506e-01
7	 5	 64	 flanked	 bex	 2	 1.000000	 2.000000	 flanked_bex_freq_2_amplitude_1_rep_1_b_D_2.0.png	 D	 b	 r	 n.a.	 7.091026e-01
7	 5	 65	 flanked	 bex	 32	 2.000000	 2.000000	 flanked_bex_freq_32_amplitude_2_rep_3_b_K_2.0.png	 K	 b	 b	 n.a.	 4.625407e-01
7	 5	 66	 flanked	 bex	 32	 2.500000	 2.000000	 flanked_bex_freq_32_amplitude_2.5_rep_2_b_H_2.0.png	 H	 b	 b	 n.a.	 5.017265e-01
7	 5	 67	 flanked	 bex	 8	 3.000000	 2.000000	 flanked_bex_freq_8_amplitude_3_rep_8_t_N_2.0.png	 N	 t	 t	 n.a.	 2.983483e-01
7	 5	 68	 flanked	 bex	 8	 0.250000	 2.000000	 flanked_bex_freq_8_amplitude_0.25_rep_5_l_H_2.0.png	 H	 l	 l	 n.a.	 6.147005e-01
7	 5	 69	 flanked	 bex	 6	 1.500000	 2.000000	 flanked_bex_freq_6_amplitude_1.5_rep_9_b_H_2.0.png	 H	 b	 b	 n.a.	 5.415206e-01
7	 5	 70	 flanked	 bex	 8	 1.000000	 2.000000	 flanked_bex_freq_8_amplitude_1_rep_6_r_D_2.0.png	 D	 r	 r	 n.a.	 3.504545e-01
7	 5	 71	 flanked	 bex	 2	 2.500000	 2.000000	 flanked_bex_freq_2_amplitude_2.5_rep_3_b_K_2.0.png	 K	 b	 b	 n.a.	 3.416772e-01
7	 5	 72	 flanked	 bex	 8	 3.000000	 2.000000	 flanked_bex_freq_8_amplitude_3_rep_7_l_K_2.0.png	 K	 l	 l	 n.a.	 2.745014e-01
7	 5	 73	 flanked	 bex	 2	 1.500000	 2.000000	 flanked_bex_freq_2_amplitude_1.5_rep_3_b_N_2.0.png	 N	 b	 b	 n.a.	 5.627650e-01
7	 5	 74	 flanked	 bex	 6	 1.000000	 2.000000	 flanked_bex_freq_6_amplitude_1_rep_2_l_H_2.0.png	 H	 l	 l	 n.a.	 5.379791e-01
7	 5	 75	 flanked	 bex	 8	 1.500000	 2.000000	 flanked_bex_freq_8_amplitude_1.5_rep_8_b_H_2.0.png	 H	 b	 r	 n.a.	 6.050303e-01
7	 5	 76	 flanked	 bex	 16	 3.000000	 2.000000	 flanked_bex_freq_16_amplitude_3_rep_5_r_K_2.0.png	 K	 r	 r	 n.a.	 2.637466e-01
7	 5	 77	 flanked	 bex	 32	 0.250000	 2.000000	 flanked_bex_freq_32_amplitude_0.25_rep_3_l_N_2.0.png	 N	 l	 b	 n.a.	 4.038144e-01
7	 5	 78	 flanked	 bex	 8	 1.500000	 2.000000	 flanked_bex_freq_8_amplitude_1.5_rep_2_b_D_2.0.png	 D	 b	 t	 n.a.	 4.507321e-01
7	 5	 79	 flanked	 bex	 8	 1.500000	 2.000000	 flanked_bex_freq_8_amplitude_1.5_rep_4_l_D_2.0.png	 D	 l	 l	 n.a.	 3.003640e-01
7	 5	 80	 flanked	 bex	 16	 0.250000	 2.000000	 flanked_bex_freq_16_amplitude_0.25_rep_4_l_H_2.0.png	 H	 l	 b	 n.a.	 4.081548e-01
7	 5	 81	 flanked	 bex	 6	 1.500000	 2.000000	 flanked_bex_freq_6_amplitude_1.5_rep_1_l_D_2.0.png	 D	 l	 l	 n.a.	 3.339696e-01
7	 5	 82	 flanked	 bex	 8	 0.500000	 2.000000	 flanked_bex_freq_8_amplitude_0.5_rep_5_r_K_2.0.png	 K	 r	 r	 n.a.	 3.971768e-01
7	 5	 83	 flanked	 bex	 2	 0.500000	 2.000000	 flanked_bex_freq_2_amplitude_0.5_rep_8_r_N_2.0.png	 N	 r	 t	 n.a.	 4.994472e-01
7	 5	 84	 flanked	 bex	 8	 0.500000	 2.000000	 flanked_bex_freq_8_amplitude_0.5_rep_7_t_K_2.0.png	 K	 t	 b	 n.a.	 6.595742e-01
7	 5	 85	 flanked	 bex	 16	 1.500000	 2.000000	 flanked_bex_freq_16_amplitude_1.5_rep_0_b_K_2.0.png	 K	 b	 l	 n.a.	 4.089042e-01
7	 5	 86	 flanked	 bex	 32	 1.000000	 2.000000	 flanked_bex_freq_32_amplitude_1_rep_7_t_D_2.0.png	 D	 t	 r	 n.a.	 4.740801e-01
7	 5	 87	 flanked	 bex	 6	 2.000000	 2.000000	 flanked_bex_freq_6_amplitude_2_rep_2_l_D_2.0.png	 D	 l	 l	 n.a.	 2.891008e-01
7	 5	 88	 flanked	 bex	 32	 0.500000	 2.000000	 flanked_bex_freq_32_amplitude_0.5_rep_5_r_K_2.0.png	 K	 r	 b	 n.a.	 5.758594e-01
7	 5	 89	 flanked	 bex	 16	 3.000000	 2.000000	 flanked_bex_freq_16_amplitude_3_rep_1_b_H_2.0.png	 H	 b	 l	 n.a.	 3.911623e-01
7	 5	 90	 flanked	 bex	 4	 0.500000	 2.000000	 flanked_bex_freq_4_amplitude_0.5_rep_3_l_K_2.0.png	 K	 l	 l	 n.a.	 3.853142e-01
7	 5	 91	 flanked	 bex	 16	 0.250000	 2.000000	 flanked_bex_freq_16_amplitude_0.25_rep_8_t_N_2.0.png	 N	 t	 l	 n.a.	 5.223254e-01
7	 5	 92	 flanked	 bex	 6	 0.250000	 2.000000	 flanked_bex_freq_6_amplitude_0.25_rep_6_l_H_2.0.png	 H	 l	 b	 n.a.	 4.823671e-01
7	 5	 93	 flanked	 bex	 8	 2.000000	 2.000000	 flanked_bex_freq_8_amplitude_2_rep_3_b_D_2.0.png	 D	 b	 b	 n.a.	 5.019958e-01
7	 5	 94	 flanked	 bex	 32	 2.500000	 2.000000	 flanked_bex_freq_32_amplitude_2.5_rep_8_b_H_2.0.png	 H	 b	 b	 n.a.	 5.465831e-01
7	 5	 95	 flanked	 bex	 4	 0.250000	 2.000000	 flanked_bex_freq_4_amplitude_0.25_rep_0_r_K_2.0.png	 K	 r	 b	 n.a.	 7.072807e-01
7	 5	 96	 flanked	 bex	 8	 2.000000	 2.000000	 flanked_bex_freq_8_amplitude_2_rep_1_l_K_2.0.png	 K	 l	 l	 n.a.	 3.459259e-01
7	 5	 97	 flanked	 bex	 2	 1.500000	 2.000000	 flanked_bex_freq_2_amplitude_1.5_rep_5_r_H_2.0.png	 H	 r	 l	 n.a.	 5.725431e-01
7	 5	 98	 flanked	 bex	 4	 1.500000	 2.000000	 flanked_bex_freq_4_amplitude_1.5_rep_9_b_K_2.0.png	 K	 b	 b	 n.a.	 3.858254e-01
7	 5	 99	 flanked	 bex	 32	 2.500000	 2.000000	 flanked_bex_freq_32_amplitude_2.5_rep_5_r_N_2.0.png	 N	 r	 r	 n.a.	 3.691809e-01
7	 5	 100	 flanked	 bex	 4	 0.250000	 2.000000	 flanked_bex_freq_4_amplitude_0.25_rep_7_b_D_2.0.png	 D	 b	 b	 n.a.	 1.180528e+00
7	 5	 101	 flanked	 bex	 8	 2.500000	 2.000000	 flanked_bex_freq_8_amplitude_2.5_rep_3_l_N_2.0.png	 N	 l	 l	 n.a.	 6.080164e-01
7	 5	 102	 flanked	 bex	 8	 1.000000	 2.000000	 flanked_bex_freq_8_amplitude_1_rep_3_t_K_2.0.png	 K	 t	 t	 n.a.	 3.402437e-01
7	 5	 103	 flanked	 bex	 32	 0.250000	 2.000000	 flanked_bex_freq_32_amplitude_0.25_rep_1_t_K_2.0.png	 K	 t	 b	 n.a.	 7.776985e-01
7	 5	 104	 flanked	 bex	 32	 1.000000	 2.000000	 flanked_bex_freq_32_amplitude_1_rep_6_t_D_2.0.png	 D	 t	 t	 n.a.	 6.176810e-01
7	 5	 105	 flanked	 bex	 6	 1.500000	 2.000000	 flanked_bex_freq_6_amplitude_1.5_rep_4_r_H_2.0.png	 H	 r	 r	 n.a.	 3.640426e-01
7	 5	 106	 flanked	 bex	 4	 3.000000	 2.000000	 flanked_bex_freq_4_amplitude_3_rep_0_l_K_2.0.png	 K	 l	 l	 n.a.	 3.283868e-01
7	 5	 107	 flanked	 bex	 4	 0.250000	 2.000000	 flanked_bex_freq_4_amplitude_0.25_rep_5_b_D_2.0.png	 D	 b	 b	 n.a.	 6.167380e-01
7	 5	 108	 flanked	 bex	 2	 2.500000	 2.000000	 flanked_bex_freq_2_amplitude_2.5_rep_8_r_H_2.0.png	 H	 r	 t	 n.a.	 4.282345e-01
7	 5	 109	 flanked	 bex	 4	 0.500000	 2.000000	 flanked_bex_freq_4_amplitude_0.5_rep_2_r_N_2.0.png	 N	 r	 l	 n.a.	 3.780917e-01
7	 5	 110	 flanked	 bex	 32	 1.000000	 2.000000	 flanked_bex_freq_32_amplitude_1_rep_9_t_K_2.0.png	 K	 t	 t	 n.a.	 5.132851e-01
7	 5	 111	 flanked	 bex	 8	 0.500000	 2.000000	 flanked_bex_freq_8_amplitude_0.5_rep_0_b_D_2.0.png	 D	 b	 t	 n.a.	 5.240024e-01
7	 5	 112	 flanked	 bex	 6	 1.000000	 2.000000	 flanked_bex_freq_6_amplitude_1_rep_4_r_H_2.0.png	 H	 r	 r	 n.a.	 3.201321e-01
7	 5	 113	 flanked	 bex	 6	 0.500000	 2.000000	 flanked_bex_freq_6_amplitude_0.5_rep_9_r_N_2.0.png	 N	 r	 b	 n.a.	 6.492634e-01
7	 5	 114	 flanked	 bex	 4	 2.000000	 2.000000	 flanked_bex_freq_4_amplitude_2_rep_4_l_N_2.0.png	 N	 l	 l	 n.a.	 2.985484e-01
7	 5	 115	 flanked	 bex	 2	 1.500000	 2.000000	 flanked_bex_freq_2_amplitude_1.5_rep_1_b_K_2.0.png	 K	 b	 b	 n.a.	 6.163242e-01
7	 5	 116	 flanked	 bex	 32	 2.500000	 2.000000	 flanked_bex_freq_32_amplitude_2.5_rep_6_r_K_2.0.png	 K	 r	 r	 n.a.	 3.067486e-01
7	 5	 117	 flanked	 bex	 4	 2.000000	 2.000000	 flanked_bex_freq_4_amplitude_2_rep_1_t_D_2.0.png	 D	 t	 b	 n.a.	 4.194057e-01
7	 5	 118	 flanked	 bex	 4	 3.000000	 2.000000	 flanked_bex_freq_4_amplitude_3_rep_4_t_D_2.0.png	 D	 t	 r	 n.a.	 4.746502e-01
7	 5	 119	 flanked	 bex	 32	 1.000000	 2.000000	 flanked_bex_freq_32_amplitude_1_rep_1_b_K_2.0.png	 K	 b	 b	 n.a.	 3.739397e-01
7	 5	 120	 flanked	 bex	 2	 0.500000	 2.000000	 flanked_bex_freq_2_amplitude_0.5_rep_0_b_H_2.0.png	 H	 b	 t	 n.a.	 4.010481e-01
7	 5	 121	 flanked	 bex	 16	 1.000000	 2.000000	 flanked_bex_freq_16_amplitude_1_rep_1_l_K_2.0.png	 K	 l	 l	 n.a.	 3.708560e-01
7	 5	 122	 flanked	 bex	 6	 1.000000	 2.000000	 flanked_bex_freq_6_amplitude_1_rep_3_r_D_2.0.png	 D	 r	 r	 n.a.	 3.757050e-01
7	 5	 123	 flanked	 bex	 6	 3.000000	 2.000000	 flanked_bex_freq_6_amplitude_3_rep_8_b_D_2.0.png	 D	 b	 b	 n.a.	 3.391970e-01
7	 5	 124	 flanked	 bex	 6	 3.000000	 2.000000	 flanked_bex_freq_6_amplitude_3_rep_3_l_H_2.0.png	 H	 l	 l	 n.a.	 3.740062e-01
7	 5	 125	 flanked	 bex	 2	 3.000000	 2.000000	 flanked_bex_freq_2_amplitude_3_rep_3_b_H_2.0.png	 H	 b	 b	 n.a.	 5.396709e-01
7	 5	 126	 flanked	 bex	 32	 0.250000	 2.000000	 flanked_bex_freq_32_amplitude_0.25_rep_2_l_N_2.0.png	 N	 l	 b	 n.a.	 4.801784e-01
7	 5	 127	 flanked	 bex	 8	 0.500000	 2.000000	 flanked_bex_freq_8_amplitude_0.5_rep_8_l_D_2.0.png	 D	 l	 b	 n.a.	 4.766742e-01
7	 5	 128	 flanked	 bex	 32	 2.500000	 2.000000	 flanked_bex_freq_32_amplitude_2.5_rep_0_l_D_2.0.png	 D	 l	 l	 n.a.	 3.615652e-01
7	 5	 129	 flanked	 bex	 4	 3.000000	 2.000000	 flanked_bex_freq_4_amplitude_3_rep_6_l_H_2.0.png	 H	 l	 l	 n.a.	 3.753727e-01
7	 5	 130	 flanked	 bex	 32	 0.250000	 2.000000	 flanked_bex_freq_32_amplitude_0.25_rep_6_t_N_2.0.png	 N	 t	 b	 n.a.	 4.903148e-01
7	 5	 131	 flanked	 bex	 2	 2.500000	 2.000000	 flanked_bex_freq_2_amplitude_2.5_rep_2_l_K_2.0.png	 K	 l	 l	 n.a.	 3.985519e-01
7	 5	 132	 flanked	 bex	 6	 2.500000	 2.000000	 flanked_bex_freq_6_amplitude_2.5_rep_8_l_D_2.0.png	 D	 l	 l	 n.a.	 3.762872e-01
7	 5	 133	 flanked	 bex	 16	 0.500000	 2.000000	 flanked_bex_freq_16_amplitude_0.5_rep_9_b_N_2.0.png	 N	 b	 l	 n.a.	 3.633785e-01
7	 5	 134	 flanked	 bex	 32	 3.000000	 2.000000	 flanked_bex_freq_32_amplitude_3_rep_6_t_N_2.0.png	 N	 t	 b	 n.a.	 3.631146e-01
7	 5	 135	 flanked	 bex	 2	 1.000000	 2.000000	 flanked_bex_freq_2_amplitude_1_rep_7_b_N_2.0.png	 N	 b	 l	 n.a.	 3.520089e-01
7	 5	 136	 flanked	 bex	 4	 3.000000	 2.000000	 flanked_bex_freq_4_amplitude_3_rep_2_t_N_2.0.png	 N	 t	 t	 n.a.	 4.277563e-01
7	 5	 137	 flanked	 bex	 32	 1.500000	 2.000000	 flanked_bex_freq_32_amplitude_1.5_rep_0_b_H_2.0.png	 H	 b	 t	 n.a.	 4.362682e-01
7	 5	 138	 flanked	 bex	 8	 3.000000	 2.000000	 flanked_bex_freq_8_amplitude_3_rep_6_r_H_2.0.png	 H	 r	 r	 n.a.	 2.696078e-01
7	 5	 139	 flanked	 bex	 8	 1.000000	 2.000000	 flanked_bex_freq_8_amplitude_1_rep_1_t_H_2.0.png	 H	 t	 b	 n.a.	 6.176657e-01
7	 5	 140	 flanked	 bex	 2	 1.000000	 2.000000	 flanked_bex_freq_2_amplitude_1_rep_8_l_K_2.0.png	 K	 l	 r	 n.a.	 3.487974e-01
7	 5	 141	 flanked	 bex	 4	 1.500000	 2.000000	 flanked_bex_freq_4_amplitude_1.5_rep_0_b_H_2.0.png	 H	 b	 l	 n.a.	 3.740757e-01
7	 5	 142	 flanked	 bex	 32	 0.250000	 2.000000	 flanked_bex_freq_32_amplitude_0.25_rep_4_b_D_2.0.png	 D	 b	 l	 n.a.	 6.222372e-01
7	 5	 143	 flanked	 bex	 6	 2.000000	 2.000000	 flanked_bex_freq_6_amplitude_2_rep_3_r_K_2.0.png	 K	 r	 r	 n.a.	 2.586052e-01
7	 5	 144	 flanked	 bex	 4	 2.000000	 2.000000	 flanked_bex_freq_4_amplitude_2_rep_8_t_H_2.0.png	 H	 t	 r	 n.a.	 3.452991e-01
7	 5	 145	 flanked	 bex	 8	 3.000000	 2.000000	 flanked_bex_freq_8_amplitude_3_rep_0_b_K_2.0.png	 K	 b	 b	 n.a.	 2.468231e-01
7	 5	 146	 flanked	 bex	 8	 1.000000	 2.000000	 flanked_bex_freq_8_amplitude_1_rep_9_b_D_2.0.png	 D	 b	 t	 n.a.	 6.977983e-01
7	 5	 147	 flanked	 bex	 2	 3.000000	 2.000000	 flanked_bex_freq_2_amplitude_3_rep_0_l_H_2.0.png	 H	 l	 l	 n.a.	 4.042367e-01
7	 5	 148	 flanked	 bex	 16	 2.000000	 2.000000	 flanked_bex_freq_16_amplitude_2_rep_4_l_K_2.0.png	 K	 l	 l	 n.a.	 4.006544e-01
7	 5	 149	 flanked	 bex	 2	 2.500000	 2.000000	 flanked_bex_freq_2_amplitude_2.5_rep_9_r_N_2.0.png	 N	 r	 r	 n.a.	 2.966999e-01
7	 5	 150	 flanked	 bex	 32	 2.500000	 2.000000	 flanked_bex_freq_32_amplitude_2.5_rep_9_l_N_2.0.png	 N	 l	 b	 n.a.	 4.187271e-01
7	 5	 151	 flanked	 bex	 2	 2.500000	 2.000000	 flanked_bex_freq_2_amplitude_2.5_rep_0_r_K_2.0.png	 K	 r	 r	 n.a.	 2.896639e-01
7	 5	 152	 flanked	 bex	 8	 1.000000	 2.000000	 flanked_bex_freq_8_amplitude_1_rep_0_r_H_2.0.png	 H	 r	 t	 n.a.	 4.904086e-01
7	 5	 153	 flanked	 bex	 2	 2.500000	 2.000000	 flanked_bex_freq_2_amplitude_2.5_rep_7_l_K_2.0.png	 K	 l	 l	 n.a.	 3.493064e-01
7	 5	 154	 flanked	 bex	 16	 2.000000	 2.000000	 flanked_bex_freq_16_amplitude_2_rep_3_b_H_2.0.png	 H	 b	 b	 n.a.	 3.693447e-01
7	 5	 155	 flanked	 bex	 6	 0.250000	 2.000000	 flanked_bex_freq_6_amplitude_0.25_rep_9_l_K_2.0.png	 K	 l	 r	 n.a.	 4.010703e-01
7	 5	 156	 flanked	 bex	 32	 1.500000	 2.000000	 flanked_bex_freq_32_amplitude_1.5_rep_7_t_H_2.0.png	 H	 t	 t	 n.a.	 3.586410e-01
7	 5	 157	 flanked	 bex	 6	 3.000000	 2.000000	 flanked_bex_freq_6_amplitude_3_rep_2_t_D_2.0.png	 D	 t	 t	 n.a.	 3.301667e-01
7	 5	 158	 flanked	 bex	 32	 1.000000	 2.000000	 flanked_bex_freq_32_amplitude_1_rep_5_b_N_2.0.png	 N	 b	 r	 n.a.	 7.833555e-01
7	 5	 159	 flanked	 bex	 4	 1.500000	 2.000000	 flanked_bex_freq_4_amplitude_1.5_rep_8_r_N_2.0.png	 N	 r	 r	 n.a.	 3.751387e-01
7	 5	 160	 flanked	 bex	 16	 1.500000	 2.000000	 flanked_bex_freq_16_amplitude_1.5_rep_7_l_H_2.0.png	 H	 l	 l	 n.a.	 3.740792e-01
7	 5	 161	 flanked	 bex	 8	 0.500000	 2.000000	 flanked_bex_freq_8_amplitude_0.5_rep_3_t_H_2.0.png	 H	 t	 b	 n.a.	 3.531003e-01
7	 5	 162	 flanked	 bex	 2	 1.000000	 2.000000	 flanked_bex_freq_2_amplitude_1_rep_5_r_N_2.0.png	 N	 r	 b	 n.a.	 5.020709e-01
7	 5	 163	 flanked	 bex	 6	 2.000000	 2.000000	 flanked_bex_freq_6_amplitude_2_rep_7_t_N_2.0.png	 N	 t	 l	 n.a.	 6.236922e-01
7	 5	 164	 flanked	 bex	 32	 2.000000	 2.000000	 flanked_bex_freq_32_amplitude_2_rep_6_l_D_2.0.png	 D	 l	 l	 n.a.	 4.023890e-01
7	 5	 165	 flanked	 bex	 8	 3.000000	 2.000000	 flanked_bex_freq_8_amplitude_3_rep_2_r_D_2.0.png	 D	 r	 r	 n.a.	 2.948837e-01
7	 5	 166	 flanked	 bex	 6	 3.000000	 2.000000	 flanked_bex_freq_6_amplitude_3_rep_1_b_N_2.0.png	 N	 b	 b	 n.a.	 3.130818e-01
7	 5	 167	 flanked	 bex	 8	 2.500000	 2.000000	 flanked_bex_freq_8_amplitude_2.5_rep_8_r_N_2.0.png	 N	 r	 r	 n.a.	 2.653492e-01
7	 5	 168	 flanked	 bex	 32	 3.000000	 2.000000	 flanked_bex_freq_32_amplitude_3_rep_3_t_D_2.0.png	 D	 t	 l	 n.a.	 3.714807e-01
7	 5	 169	 flanked	 bex	 6	 0.250000	 2.000000	 flanked_bex_freq_6_amplitude_0.25_rep_4_r_N_2.0.png	 N	 r	 b	 n.a.	 6.402133e-01
7	 5	 170	 flanked	 bex	 4	 0.500000	 2.000000	 flanked_bex_freq_4_amplitude_0.5_rep_1_r_H_2.0.png	 H	 r	 r	 n.a.	 3.113514e-01
7	 5	 171	 flanked	 bex	 8	 0.250000	 2.000000	 flanked_bex_freq_8_amplitude_0.25_rep_9_b_D_2.0.png	 D	 b	 r	 n.a.	 7.890836e-01
7	 5	 172	 flanked	 bex	 6	 2.000000	 2.000000	 flanked_bex_freq_6_amplitude_2_rep_8_r_D_2.0.png	 D	 r	 r	 n.a.	 3.136391e-01
7	 5	 173	 flanked	 bex	 16	 1.500000	 2.000000	 flanked_bex_freq_16_amplitude_1.5_rep_8_l_N_2.0.png	 N	 l	 l	 n.a.	 3.428061e-01
7	 5	 174	 flanked	 bex	 8	 1.000000	 2.000000	 flanked_bex_freq_8_amplitude_1_rep_8_r_K_2.0.png	 K	 r	 r	 n.a.	 3.291224e-01
7	 5	 175	 flanked	 bex	 4	 1.500000	 2.000000	 flanked_bex_freq_4_amplitude_1.5_rep_7_b_H_2.0.png	 H	 b	 b	 n.a.	 4.597723e-01
7	 5	 176	 flanked	 bex	 32	 3.000000	 2.000000	 flanked_bex_freq_32_amplitude_3_rep_1_t_K_2.0.png	 K	 t	 t	 n.a.	 3.901903e-01
7	 5	 177	 flanked	 bex	 4	 0.250000	 2.000000	 flanked_bex_freq_4_amplitude_0.25_rep_2_l_H_2.0.png	 H	 l	 b	 n.a.	 3.858083e-01
7	 5	 178	 flanked	 bex	 32	 2.000000	 2.000000	 flanked_bex_freq_32_amplitude_2_rep_0_t_K_2.0.png	 K	 t	 l	 n.a.	 5.136200e-01
7	 5	 179	 flanked	 bex	 8	 0.250000	 2.000000	 flanked_bex_freq_8_amplitude_0.25_rep_4_l_K_2.0.png	 K	 l	 b	 n.a.	 4.249387e-01
7	 5	 180	 flanked	 bex	 4	 2.000000	 2.000000	 flanked_bex_freq_4_amplitude_2_rep_6_l_D_2.0.png	 D	 l	 l	 n.a.	 4.622156e-01
7	 5	 181	 flanked	 bex	 16	 0.500000	 2.000000	 flanked_bex_freq_16_amplitude_0.5_rep_2_l_H_2.0.png	 H	 l	 b	 n.a.	 4.948076e-01
7	 5	 182	 flanked	 bex	 2	 2.000000	 2.000000	 flanked_bex_freq_2_amplitude_2_rep_5_t_D_2.0.png	 D	 t	 b	 n.a.	 4.495629e-01
7	 5	 183	 flanked	 bex	 8	 0.250000	 2.000000	 flanked_bex_freq_8_amplitude_0.25_rep_2_r_N_2.0.png	 N	 r	 t	 n.a.	 4.918384e-01
7	 5	 184	 flanked	 bex	 4	 2.000000	 2.000000	 flanked_bex_freq_4_amplitude_2_rep_3_r_H_2.0.png	 H	 r	 r	 n.a.	 3.615722e-01
7	 5	 185	 flanked	 bex	 32	 2.000000	 2.000000	 flanked_bex_freq_32_amplitude_2_rep_4_r_K_2.0.png	 K	 r	 r	 n.a.	 3.527683e-01
7	 5	 186	 flanked	 bex	 4	 2.500000	 2.000000	 flanked_bex_freq_4_amplitude_2.5_rep_1_l_N_2.0.png	 N	 l	 l	 n.a.	 2.922362e-01
7	 5	 187	 flanked	 bex	 32	 2.500000	 2.000000	 flanked_bex_freq_32_amplitude_2.5_rep_3_t_N_2.0.png	 N	 t	 r	 n.a.	 3.886929e-01
7	 5	 188	 flanked	 bex	 4	 1.000000	 2.000000	 flanked_bex_freq_4_amplitude_1_rep_9_b_D_2.0.png	 D	 b	 t	 n.a.	 3.387880e-01
7	 5	 189	 flanked	 bex	 16	 1.500000	 2.000000	 flanked_bex_freq_16_amplitude_1.5_rep_9_r_H_2.0.png	 H	 r	 l	 n.a.	 4.105023e-01
7	 5	 190	 flanked	 bex	 4	 2.500000	 2.000000	 flanked_bex_freq_4_amplitude_2.5_rep_0_t_K_2.0.png	 K	 t	 t	 n.a.	 2.941151e-01
7	 5	 191	 flanked	 bex	 16	 1.000000	 2.000000	 flanked_bex_freq_16_amplitude_1_rep_5_l_D_2.0.png	 D	 l	 b	 n.a.	 4.862997e-01
7	 5	 192	 flanked	 bex	 4	 2.000000	 2.000000	 flanked_bex_freq_4_amplitude_2_rep_0_t_H_2.0.png	 H	 t	 r	 n.a.	 4.925261e-01
7	 5	 193	 flanked	 bex	 16	 0.500000	 2.000000	 flanked_bex_freq_16_amplitude_0.5_rep_7_l_N_2.0.png	 N	 l	 t	 n.a.	 6.432662e-01
7	 5	 194	 flanked	 bex	 6	 3.000000	 2.000000	 flanked_bex_freq_6_amplitude_3_rep_5_b_K_2.0.png	 K	 b	 b	 n.a.	 3.338652e-01
7	 5	 195	 flanked	 bex	 16	 1.500000	 2.000000	 flanked_bex_freq_16_amplitude_1.5_rep_3_t_H_2.0.png	 H	 t	 l	 n.a.	 4.865300e-01
7	 5	 196	 flanked	 bex	 16	 2.000000	 2.000000	 flanked_bex_freq_16_amplitude_2_rep_9_l_H_2.0.png	 H	 l	 l	 n.a.	 2.741528e-01
7	 5	 197	 flanked	 bex	 16	 1.000000	 2.000000	 flanked_bex_freq_16_amplitude_1_rep_6_l_N_2.0.png	 N	 l	 l	 n.a.	 4.321803e-01
7	 5	 198	 flanked	 bex	 6	 0.250000	 2.000000	 flanked_bex_freq_6_amplitude_0.25_rep_5_r_D_2.0.png	 D	 r	 l	 n.a.	 3.888997e-01
7	 5	 199	 flanked	 bex	 16	 2.500000	 2.000000	 flanked_bex_freq_16_amplitude_2.5_rep_8_l_N_2.0.png	 N	 l	 l	 n.a.	 2.509714e-01
7	 5	 200	 flanked	 bex	 6	 2.500000	 2.000000	 flanked_bex_freq_6_amplitude_2.5_rep_9_l_K_2.0.png	 K	 l	 l	 n.a.	 2.842990e-01
7	 5	 201	 flanked	 bex	 4	 2.000000	 2.000000	 flanked_bex_freq_4_amplitude_2_rep_2_l_K_2.0.png	 K	 l	 l	 n.a.	 3.400381e-01
7	 5	 202	 flanked	 bex	 8	 1.000000	 2.000000	 flanked_bex_freq_8_amplitude_1_rep_2_r_N_2.0.png	 N	 r	 l	 n.a.	 2.248233e-01
7	 5	 203	 flanked	 bex	 8	 0.500000	 2.000000	 flanked_bex_freq_8_amplitude_0.5_rep_9_t_D_2.0.png	 D	 t	 l	 n.a.	 6.841702e-01
7	 5	 204	 flanked	 bex	 16	 0.250000	 2.000000	 flanked_bex_freq_16_amplitude_0.25_rep_1_t_D_2.0.png	 D	 t	 l	 n.a.	 4.879829e-01
7	 5	 205	 flanked	 bex	 16	 2.000000	 2.000000	 flanked_bex_freq_16_amplitude_2_rep_1_b_K_2.0.png	 K	 b	 b	 n.a.	 3.463258e-01
7	 5	 206	 flanked	 bex	 2	 2.000000	 2.000000	 flanked_bex_freq_2_amplitude_2_rep_3_l_H_2.0.png	 H	 l	 l	 n.a.	 4.909086e-01
7	 5	 207	 flanked	 bex	 16	 2.500000	 2.000000	 flanked_bex_freq_16_amplitude_2.5_rep_7_r_D_2.0.png	 D	 r	 r	 n.a.	 3.045814e-01
7	 5	 208	 flanked	 bex	 16	 3.000000	 2.000000	 flanked_bex_freq_16_amplitude_3_rep_8_b_H_2.0.png	 H	 b	 b	 n.a.	 3.848778e-01
7	 5	 209	 flanked	 bex	 32	 3.000000	 2.000000	 flanked_bex_freq_32_amplitude_3_rep_4_b_N_2.0.png	 N	 b	 b	 n.a.	 5.850883e-01
7	 5	 210	 flanked	 bex	 8	 2.000000	 2.000000	 flanked_bex_freq_8_amplitude_2_rep_7_l_D_2.0.png	 D	 l	 l	 n.a.	 3.405658e-01
7	 5	 211	 flanked	 bex	 4	 2.500000	 2.000000	 flanked_bex_freq_4_amplitude_2.5_rep_6_l_N_2.0.png	 N	 l	 l	 n.a.	 5.053394e-01
7	 5	 212	 flanked	 bex	 2	 0.250000	 2.000000	 flanked_bex_freq_2_amplitude_0.25_rep_9_t_D_2.0.png	 D	 t	 t	 n.a.	 5.525443e-01
7	 5	 213	 flanked	 bex	 6	 2.000000	 2.000000	 flanked_bex_freq_6_amplitude_2_rep_0_r_H_2.0.png	 H	 r	 r	 n.a.	 3.007237e-01
7	 5	 214	 flanked	 bex	 2	 1.500000	 2.000000	 flanked_bex_freq_2_amplitude_1.5_rep_0_b_D_2.0.png	 D	 b	 r	 n.a.	 4.258127e-01
7	 5	 215	 flanked	 bex	 4	 2.000000	 2.000000	 flanked_bex_freq_4_amplitude_2_rep_7_t_D_2.0.png	 D	 t	 t	 n.a.	 4.763629e-01
7	 5	 216	 flanked	 bex	 8	 2.500000	 2.000000	 flanked_bex_freq_8_amplitude_2.5_rep_0_l_N_2.0.png	 N	 l	 l	 n.a.	 2.977035e-01
7	 5	 217	 flanked	 bex	 8	 1.500000	 2.000000	 flanked_bex_freq_8_amplitude_1.5_rep_7_b_N_2.0.png	 N	 b	 r	 n.a.	 4.832330e-01
7	 5	 218	 flanked	 bex	 32	 2.500000	 2.000000	 flanked_bex_freq_32_amplitude_2.5_rep_7_l_H_2.0.png	 H	 l	 l	 n.a.	 4.796827e-01
7	 5	 219	 flanked	 bex	 16	 0.250000	 2.000000	 flanked_bex_freq_16_amplitude_0.25_rep_6_b_H_2.0.png	 H	 b	 t	 n.a.	 4.279495e-01
7	 5	 220	 flanked	 bex	 2	 0.250000	 2.000000	 flanked_bex_freq_2_amplitude_0.25_rep_5_t_N_2.0.png	 N	 t	 r	 n.a.	 5.303138e-01
7	 5	 221	 flanked	 bex	 32	 2.000000	 2.000000	 flanked_bex_freq_32_amplitude_2_rep_1_b_H_2.0.png	 H	 b	 b	 n.a.	 4.034954e-01
7	 5	 222	 flanked	 bex	 4	 1.000000	 2.000000	 flanked_bex_freq_4_amplitude_1_rep_2_b_D_2.0.png	 D	 b	 r	 n.a.	 5.244028e-01
7	 5	 223	 flanked	 bex	 8	 2.000000	 2.000000	 flanked_bex_freq_8_amplitude_2_rep_6_t_K_2.0.png	 K	 t	 t	 n.a.	 3.329918e-01
7	 5	 224	 flanked	 bex	 4	 1.500000	 2.000000	 flanked_bex_freq_4_amplitude_1.5_rep_4_l_N_2.0.png	 N	 l	 b	 n.a.	 5.353034e-01
7	 5	 225	 flanked	 bex	 6	 0.500000	 2.000000	 flanked_bex_freq_6_amplitude_0.5_rep_8_t_K_2.0.png	 K	 t	 r	 n.a.	 3.951732e-01
7	 5	 226	 flanked	 bex	 16	 0.500000	 2.000000	 flanked_bex_freq_16_amplitude_0.5_rep_0_t_N_2.0.png	 N	 t	 t	 n.a.	 4.330861e-01
7	 5	 227	 flanked	 bex	 6	 0.250000	 2.000000	 flanked_bex_freq_6_amplitude_0.25_rep_2_l_D_2.0.png	 D	 l	 t	 n.a.	 4.104552e-01
7	 5	 228	 flanked	 bex	 8	 0.250000	 2.000000	 flanked_bex_freq_8_amplitude_0.25_rep_6_b_K_2.0.png	 K	 b	 r	 n.a.	 5.429628e-01
7	 5	 229	 flanked	 bex	 32	 1.500000	 2.000000	 flanked_bex_freq_32_amplitude_1.5_rep_9_l_K_2.0.png	 K	 l	 l	 n.a.	 4.038926e-01
7	 5	 230	 flanked	 bex	 6	 1.000000	 2.000000	 flanked_bex_freq_6_amplitude_1_rep_6_b_K_2.0.png	 K	 b	 b	 n.a.	 5.358468e-01
7	 5	 231	 flanked	 bex	 8	 3.000000	 2.000000	 flanked_bex_freq_8_amplitude_3_rep_5_t_H_2.0.png	 H	 t	 t	 n.a.	 3.346958e-01
7	 5	 232	 flanked	 bex	 2	 0.250000	 2.000000	 flanked_bex_freq_2_amplitude_0.25_rep_6_t_H_2.0.png	 H	 t	 t	 n.a.	 5.242513e-01
7	 5	 233	 flanked	 bex	 16	 2.000000	 2.000000	 flanked_bex_freq_16_amplitude_2_rep_6_t_D_2.0.png	 D	 t	 b	 n.a.	 5.658216e-01
7	 5	 234	 flanked	 bex	 32	 1.000000	 2.000000	 flanked_bex_freq_32_amplitude_1_rep_8_t_K_2.0.png	 K	 t	 t	 n.a.	 3.591541e-01
7	 5	 235	 flanked	 bex	 6	 0.250000	 2.000000	 flanked_bex_freq_6_amplitude_0.25_rep_8_l_D_2.0.png	 D	 l	 r	 n.a.	 3.695453e-01
7	 5	 236	 flanked	 bex	 6	 1.000000	 2.000000	 flanked_bex_freq_6_amplitude_1_rep_5_b_K_2.0.png	 K	 b	 l	 n.a.	 4.088761e-01
7	 5	 237	 flanked	 bex	 16	 0.250000	 2.000000	 flanked_bex_freq_16_amplitude_0.25_rep_7_t_N_2.0.png	 N	 t	 t	 n.a.	 7.168368e-01
7	 5	 238	 flanked	 bex	 32	 0.250000	 2.000000	 flanked_bex_freq_32_amplitude_0.25_rep_8_l_N_2.0.png	 N	 l	 b	 n.a.	 4.847029e-01
7	 5	 239	 flanked	 bex	 6	 2.000000	 2.000000	 flanked_bex_freq_6_amplitude_2_rep_5_t_D_2.0.png	 D	 t	 t	 n.a.	 3.724274e-01
7	 5	 240	 flanked	 bex	 4	 0.250000	 2.000000	 flanked_bex_freq_4_amplitude_0.25_rep_6_l_D_2.0.png	 D	 l	 l	 n.a.	 7.935896e-01
7	 5	 241	 flanked	 bex	 32	 0.250000	 2.000000	 flanked_bex_freq_32_amplitude_0.25_rep_9_t_H_2.0.png	 H	 t	 b	 n.a.	 6.540551e-01
7	 5	 242	 flanked	 bex	 4	 2.500000	 2.000000	 flanked_bex_freq_4_amplitude_2.5_rep_7_t_D_2.0.png	 D	 t	 t	 n.a.	 2.863778e-01
7	 5	 243	 flanked	 bex	 4	 3.000000	 2.000000	 flanked_bex_freq_4_amplitude_3_rep_7_b_D_2.0.png	 D	 b	 t	 n.a.	 5.378597e-01
7	 5	 244	 flanked	 bex	 2	 2.500000	 2.000000	 flanked_bex_freq_2_amplitude_2.5_rep_1_t_H_2.0.png	 H	 t	 t	 n.a.	 5.463951e-01
7	 5	 245	 flanked	 bex	 6	 0.250000	 2.000000	 flanked_bex_freq_6_amplitude_0.25_rep_1_b_H_2.0.png	 H	 b	 b	 n.a.	 7.001575e-01
7	 5	 246	 flanked	 bex	 8	 3.000000	 2.000000	 flanked_bex_freq_8_amplitude_3_rep_3_b_D_2.0.png	 D	 b	 b	 n.a.	 6.128353e-01
7	 5	 247	 flanked	 bex	 32	 3.000000	 2.000000	 flanked_bex_freq_32_amplitude_3_rep_8_b_K_2.0.png	 K	 b	 b	 n.a.	 5.184458e-01
7	 5	 248	 flanked	 bex	 2	 1.000000	 2.000000	 flanked_bex_freq_2_amplitude_1_rep_4_l_K_2.0.png	 K	 l	 t	 n.a.	 8.973125e-01
7	 5	 249	 flanked	 bex	 6	 2.000000	 2.000000	 flanked_bex_freq_6_amplitude_2_rep_1_t_K_2.0.png	 K	 t	 t	 n.a.	 4.293961e-01
7	 5	 250	 flanked	 bex	 2	 2.000000	 2.000000	 flanked_bex_freq_2_amplitude_2_rep_9_l_H_2.0.png	 H	 l	 l	 n.a.	 5.287007e-01
7	 5	 251	 flanked	 bex	 16	 0.500000	 2.000000	 flanked_bex_freq_16_amplitude_0.5_rep_1_l_D_2.0.png	 D	 l	 b	 n.a.	 4.684553e-01
7	 5	 252	 flanked	 bex	 6	 1.500000	 2.000000	 flanked_bex_freq_6_amplitude_1.5_rep_8_b_K_2.0.png	 K	 b	 b	 n.a.	 4.426018e-01
7	 5	 253	 flanked	 bex	 8	 0.500000	 2.000000	 flanked_bex_freq_8_amplitude_0.5_rep_6_t_N_2.0.png	 N	 t	 t	 n.a.	 6.604093e-01
7	 5	 254	 flanked	 bex	 6	 2.000000	 2.000000	 flanked_bex_freq_6_amplitude_2_rep_9_t_H_2.0.png	 H	 t	 t	 n.a.	 4.392656e-01
7	 5	 255	 flanked	 bex	 6	 2.500000	 2.000000	 flanked_bex_freq_6_amplitude_2.5_rep_1_l_H_2.0.png	 H	 l	 l	 n.a.	 3.408493e-01
7	 5	 256	 flanked	 bex	 6	 0.500000	 2.000000	 flanked_bex_freq_6_amplitude_0.5_rep_5_r_D_2.0.png	 D	 r	 t	 n.a.	 4.051021e-01
7	 5	 257	 flanked	 bex	 32	 1.500000	 2.000000	 flanked_bex_freq_32_amplitude_1.5_rep_2_l_K_2.0.png	 K	 l	 t	 n.a.	 3.895238e-01
7	 5	 258	 flanked	 bex	 16	 0.500000	 2.000000	 flanked_bex_freq_16_amplitude_0.5_rep_5_r_N_2.0.png	 N	 r	 t	 n.a.	 3.360601e-01
7	 5	 259	 flanked	 bex	 2	 3.000000	 2.000000	 flanked_bex_freq_2_amplitude_3_rep_8_b_D_2.0.png	 D	 b	 t	 n.a.	 3.124904e-01
7	 5	 260	 flanked	 bex	 6	 0.500000	 2.000000	 flanked_bex_freq_6_amplitude_0.5_rep_3_t_K_2.0.png	 K	 t	 t	 n.a.	 4.223052e-01
7	 5	 261	 flanked	 bex	 32	 2.500000	 2.000000	 flanked_bex_freq_32_amplitude_2.5_rep_1_r_D_2.0.png	 D	 r	 r	 n.a.	 3.952242e-01
7	 5	 262	 flanked	 bex	 16	 1.000000	 2.000000	 flanked_bex_freq_16_amplitude_1_rep_7_t_H_2.0.png	 H	 t	 r	 n.a.	 8.540411e-01
7	 5	 263	 flanked	 bex	 2	 3.000000	 2.000000	 flanked_bex_freq_2_amplitude_3_rep_4_r_D_2.0.png	 D	 r	 r	 n.a.	 3.531289e-01
7	 5	 264	 flanked	 bex	 16	 1.000000	 2.000000	 flanked_bex_freq_16_amplitude_1_rep_0_t_K_2.0.png	 K	 t	 r	 n.a.	 9.597510e-01
7	 5	 265	 flanked	 bex	 6	 2.500000	 2.000000	 flanked_bex_freq_6_amplitude_2.5_rep_6_t_D_2.0.png	 D	 t	 r	 n.a.	 6.598661e-01
7	 5	 266	 flanked	 bex	 4	 3.000000	 2.000000	 flanked_bex_freq_4_amplitude_3_rep_1_l_H_2.0.png	 H	 l	 l	 n.a.	 3.018519e-01
7	 5	 267	 flanked	 bex	 8	 2.500000	 2.000000	 flanked_bex_freq_8_amplitude_2.5_rep_1_l_D_2.0.png	 D	 l	 l	 n.a.	 3.045820e-01
7	 5	 268	 flanked	 bex	 16	 3.000000	 2.000000	 flanked_bex_freq_16_amplitude_3_rep_6_b_N_2.0.png	 N	 b	 b	 n.a.	 4.147541e-01
7	 5	 269	 flanked	 bex	 8	 1.500000	 2.000000	 flanked_bex_freq_8_amplitude_1.5_rep_5_l_N_2.0.png	 N	 l	 l	 n.a.	 3.748011e-01
7	 5	 270	 flanked	 bex	 2	 0.250000	 2.000000	 flanked_bex_freq_2_amplitude_0.25_rep_1_t_D_2.0.png	 D	 t	 r	 n.a.	 3.661414e-01
7	 5	 271	 flanked	 bex	 4	 2.500000	 2.000000	 flanked_bex_freq_4_amplitude_2.5_rep_8_b_D_2.0.png	 D	 b	 r	 n.a.	 5.456133e-01
7	 5	 272	 flanked	 bex	 8	 3.000000	 2.000000	 flanked_bex_freq_8_amplitude_3_rep_4_r_D_2.0.png	 D	 r	 r	 n.a.	 2.967215e-01
7	 5	 273	 flanked	 bex	 32	 1.500000	 2.000000	 flanked_bex_freq_32_amplitude_1.5_rep_6_l_N_2.0.png	 N	 l	 l	 n.a.	 7.424096e-01
7	 5	 274	 flanked	 bex	 2	 1.000000	 2.000000	 flanked_bex_freq_2_amplitude_1_rep_2_l_N_2.0.png	 N	 l	 r	 n.a.	 5.472570e-01
7	 5	 275	 flanked	 bex	 6	 0.500000	 2.000000	 flanked_bex_freq_6_amplitude_0.5_rep_7_r_K_2.0.png	 K	 r	 r	 n.a.	 4.557791e-01
7	 5	 276	 flanked	 bex	 4	 1.000000	 2.000000	 flanked_bex_freq_4_amplitude_1_rep_4_l_K_2.0.png	 K	 l	 l	 n.a.	 5.674542e-01
7	 5	 277	 flanked	 bex	 8	 0.250000	 2.000000	 flanked_bex_freq_8_amplitude_0.25_rep_1_t_N_2.0.png	 N	 t	 b	 n.a.	 1.100417e+00
7	 5	 278	 flanked	 bex	 2	 0.500000	 2.000000	 flanked_bex_freq_2_amplitude_0.5_rep_5_l_D_2.0.png	 D	 l	 t	 n.a.	 3.735228e-01
7	 5	 279	 flanked	 bex	 32	 1.000000	 2.000000	 flanked_bex_freq_32_amplitude_1_rep_3_l_H_2.0.png	 H	 l	 l	 n.a.	 4.085337e-01
7	 5	 280	 flanked	 bex	 16	 0.500000	 2.000000	 flanked_bex_freq_16_amplitude_0.5_rep_8_t_H_2.0.png	 H	 t	 b	 n.a.	 4.227061e-01
7	 5	 281	 flanked	 bex	 8	 1.000000	 2.000000	 flanked_bex_freq_8_amplitude_1_rep_5_r_N_2.0.png	 N	 r	 t	 n.a.	 3.687020e-01
7	 5	 282	 flanked	 bex	 6	 0.500000	 2.000000	 flanked_bex_freq_6_amplitude_0.5_rep_4_t_D_2.0.png	 D	 t	 b	 n.a.	 5.481016e-01
7	 5	 283	 flanked	 bex	 16	 2.500000	 2.000000	 flanked_bex_freq_16_amplitude_2.5_rep_4_t_H_2.0.png	 H	 t	 t	 n.a.	 4.014322e-01
7	 5	 284	 flanked	 bex	 8	 0.250000	 2.000000	 flanked_bex_freq_8_amplitude_0.25_rep_8_r_H_2.0.png	 H	 r	 b	 n.a.	 5.120345e-01
7	 5	 285	 flanked	 bex	 4	 0.250000	 2.000000	 flanked_bex_freq_4_amplitude_0.25_rep_3_r_K_2.0.png	 K	 r	 b	 n.a.	 6.654876e-01
7	 5	 286	 flanked	 bex	 4	 0.500000	 2.000000	 flanked_bex_freq_4_amplitude_0.5_rep_4_b_N_2.0.png	 N	 b	 t	 n.a.	 3.507251e-01
7	 5	 287	 flanked	 bex	 16	 2.500000	 2.000000	 flanked_bex_freq_16_amplitude_2.5_rep_1_r_H_2.0.png	 H	 r	 r	 n.a.	 3.037707e-01
7	 5	 288	 flanked	 bex	 2	 2.500000	 2.000000	 flanked_bex_freq_2_amplitude_2.5_rep_4_b_N_2.0.png	 N	 b	 b	 n.a.	 4.615284e-01
7	 5	 289	 flanked	 bex	 32	 2.000000	 2.000000	 flanked_bex_freq_32_amplitude_2_rep_9_l_N_2.0.png	 N	 l	 l	 n.a.	 4.340445e-01
7	 5	 290	 flanked	 bex	 6	 1.500000	 2.000000	 flanked_bex_freq_6_amplitude_1.5_rep_6_b_N_2.0.png	 N	 b	 b	 n.a.	 4.498379e-01
7	 5	 291	 flanked	 bex	 16	 1.500000	 2.000000	 flanked_bex_freq_16_amplitude_1.5_rep_6_b_K_2.0.png	 K	 b	 b	 n.a.	 5.555334e-01
7	 5	 292	 flanked	 bex	 16	 3.000000	 2.000000	 flanked_bex_freq_16_amplitude_3_rep_9_r_K_2.0.png	 K	 r	 r	 n.a.	 2.652782e-01
7	 5	 293	 flanked	 bex	 16	 2.000000	 2.000000	 flanked_bex_freq_16_amplitude_2_rep_0_r_N_2.0.png	 N	 r	 r	 n.a.	 3.450028e-01
7	 5	 294	 flanked	 bex	 2	 2.500000	 2.000000	 flanked_bex_freq_2_amplitude_2.5_rep_5_t_N_2.0.png	 N	 t	 t	 n.a.	 6.104006e-01
7	 5	 295	 flanked	 bex	 4	 2.000000	 2.000000	 flanked_bex_freq_4_amplitude_2_rep_9_r_D_2.0.png	 D	 r	 r	 n.a.	 3.087461e-01
7	 5	 296	 flanked	 bex	 4	 3.000000	 2.000000	 flanked_bex_freq_4_amplitude_3_rep_9_r_H_2.0.png	 H	 r	 r	 n.a.	 3.640986e-01
7	 5	 297	 flanked	 bex	 16	 2.500000	 2.000000	 flanked_bex_freq_16_amplitude_2.5_rep_5_t_K_2.0.png	 K	 t	 t	 n.a.	 4.232021e-01
7	 5	 298	 flanked	 bex	 2	 0.250000	 2.000000	 flanked_bex_freq_2_amplitude_0.25_rep_4_t_D_2.0.png	 D	 t	 b	 n.a.	 6.197196e-01
7	 5	 299	 flanked	 bex	 16	 0.250000	 2.000000	 flanked_bex_freq_16_amplitude_0.25_rep_3_b_D_2.0.png	 D	 b	 l	 n.a.	 5.310025e-01
7	 5	 300	 flanked	 bex	 6	 0.500000	 2.000000	 flanked_bex_freq_6_amplitude_0.5_rep_0_r_N_2.0.png	 N	 r	 r	 n.a.	 5.943836e-01
7	 5	 301	 flanked	 bex	 16	 2.500000	 2.000000	 flanked_bex_freq_16_amplitude_2.5_rep_2_r_H_2.0.png	 H	 r	 r	 n.a.	 2.626921e-01
7	 5	 302	 flanked	 bex	 16	 0.250000	 2.000000	 flanked_bex_freq_16_amplitude_0.25_rep_0_b_K_2.0.png	 K	 b	 b	 n.a.	 4.466364e-01
7	 5	 303	 flanked	 bex	 8	 1.500000	 2.000000	 flanked_bex_freq_8_amplitude_1.5_rep_9_t_D_2.0.png	 D	 t	 r	 n.a.	 5.838875e-01
7	 5	 304	 flanked	 bex	 6	 2.000000	 2.000000	 flanked_bex_freq_6_amplitude_2_rep_4_t_D_2.0.png	 D	 t	 b	 n.a.	 5.764101e-01
7	 5	 305	 flanked	 bex	 6	 0.250000	 2.000000	 flanked_bex_freq_6_amplitude_0.25_rep_0_r_H_2.0.png	 H	 r	 r	 n.a.	 4.261896e-01
7	 5	 306	 flanked	 bex	 6	 2.500000	 2.000000	 flanked_bex_freq_6_amplitude_2.5_rep_7_b_N_2.0.png	 N	 b	 b	 n.a.	 5.213264e-01
7	 5	 307	 flanked	 bex	 16	 0.500000	 2.000000	 flanked_bex_freq_16_amplitude_0.5_rep_3_l_D_2.0.png	 D	 l	 b	 n.a.	 5.857945e-01
7	 5	 308	 flanked	 bex	 32	 2.000000	 2.000000	 flanked_bex_freq_32_amplitude_2_rep_7_b_K_2.0.png	 K	 b	 t	 n.a.	 7.471209e-01
7	 5	 309	 flanked	 bex	 2	 1.000000	 2.000000	 flanked_bex_freq_2_amplitude_1_rep_0_t_K_2.0.png	 K	 t	 b	 n.a.	 5.579538e-01
7	 5	 310	 flanked	 bex	 32	 0.500000	 2.000000	 flanked_bex_freq_32_amplitude_0.5_rep_0_b_K_2.0.png	 K	 b	 b	 n.a.	 3.731377e-01
7	 5	 311	 flanked	 bex	 6	 1.000000	 2.000000	 flanked_bex_freq_6_amplitude_1_rep_1_b_K_2.0.png	 K	 b	 b	 n.a.	 4.333460e-01
7	 5	 312	 flanked	 bex	 6	 2.500000	 2.000000	 flanked_bex_freq_6_amplitude_2.5_rep_4_t_K_2.0.png	 K	 t	 t	 n.a.	 3.367520e-01
7	 5	 313	 flanked	 bex	 2	 1.500000	 2.000000	 flanked_bex_freq_2_amplitude_1.5_rep_2_b_H_2.0.png	 H	 b	 b	 n.a.	 4.216211e-01
7	 5	 314	 flanked	 bex	 8	 2.500000	 2.000000	 flanked_bex_freq_8_amplitude_2.5_rep_2_l_D_2.0.png	 D	 l	 l	 n.a.	 3.111834e-01
7	 5	 315	 flanked	 bex	 2	 2.000000	 2.000000	 flanked_bex_freq_2_amplitude_2_rep_0_t_N_2.0.png	 N	 t	 t	 n.a.	 3.965561e-01
7	 5	 316	 flanked	 bex	 8	 1.500000	 2.000000	 flanked_bex_freq_8_amplitude_1.5_rep_0_r_H_2.0.png	 H	 r	 r	 n.a.	 2.845828e-01
7	 5	 317	 flanked	 bex	 8	 1.500000	 2.000000	 flanked_bex_freq_8_amplitude_1.5_rep_1_b_H_2.0.png	 H	 b	 b	 n.a.	 5.097360e-01
7	 5	 318	 flanked	 bex	 4	 0.500000	 2.000000	 flanked_bex_freq_4_amplitude_0.5_rep_7_t_K_2.0.png	 K	 t	 t	 n.a.	 3.351334e-01
7	 5	 319	 flanked	 bex	 32	 3.000000	 2.000000	 flanked_bex_freq_32_amplitude_3_rep_0_t_H_2.0.png	 H	 t	 t	 n.a.	 4.542812e-01
7	 5	 320	 flanked	 bex	 16	 2.000000	 2.000000	 flanked_bex_freq_16_amplitude_2_rep_7_t_D_2.0.png	 D	 t	 l	 n.a.	 3.369706e-01
7	 5	 321	 flanked	 bex	 4	 2.500000	 2.000000	 flanked_bex_freq_4_amplitude_2.5_rep_4_l_H_2.0.png	 H	 l	 l	 n.a.	 3.072568e-01
7	 5	 322	 flanked	 bex	 2	 3.000000	 2.000000	 flanked_bex_freq_2_amplitude_3_rep_2_l_K_2.0.png	 K	 l	 l	 n.a.	 3.852942e-01
7	 5	 323	 flanked	 bex	 6	 0.250000	 2.000000	 flanked_bex_freq_6_amplitude_0.25_rep_7_l_K_2.0.png	 K	 l	 t	 n.a.	 5.295861e-01
7	 5	 324	 flanked	 bex	 2	 2.000000	 2.000000	 flanked_bex_freq_2_amplitude_2_rep_1_b_D_2.0.png	 D	 b	 l	 n.a.	 3.024419e-01
7	 5	 325	 flanked	 bex	 2	 3.000000	 2.000000	 flanked_bex_freq_2_amplitude_3_rep_5_r_D_2.0.png	 D	 r	 r	 n.a.	 3.782737e-01
7	 5	 326	 flanked	 bex	 4	 0.250000	 2.000000	 flanked_bex_freq_4_amplitude_0.25_rep_9_b_N_2.0.png	 N	 b	 l	 n.a.	 5.154311e-01
7	 5	 327	 flanked	 bex	 4	 3.000000	 2.000000	 flanked_bex_freq_4_amplitude_3_rep_3_r_D_2.0.png	 D	 r	 r	 n.a.	 2.685397e-01
7	 5	 328	 flanked	 bex	 8	 2.500000	 2.000000	 flanked_bex_freq_8_amplitude_2.5_rep_6_t_H_2.0.png	 H	 t	 t	 n.a.	 3.883018e-01
7	 5	 329	 flanked	 bex	 2	 1.500000	 2.000000	 flanked_bex_freq_2_amplitude_1.5_rep_8_l_D_2.0.png	 D	 l	 r	 n.a.	 5.796326e-01
7	 5	 330	 flanked	 bex	 32	 0.500000	 2.000000	 flanked_bex_freq_32_amplitude_0.5_rep_1_r_N_2.0.png	 N	 r	 t	 n.a.	 7.778798e-01
7	 5	 331	 flanked	 bex	 32	 0.250000	 2.000000	 flanked_bex_freq_32_amplitude_0.25_rep_7_t_H_2.0.png	 H	 t	 b	 n.a.	 4.833909e-01
7	 5	 332	 flanked	 bex	 4	 0.250000	 2.000000	 flanked_bex_freq_4_amplitude_0.25_rep_4_l_K_2.0.png	 K	 l	 l	 n.a.	 3.542845e-01
7	 5	 333	 flanked	 bex	 16	 0.250000	 2.000000	 flanked_bex_freq_16_amplitude_0.25_rep_9_b_N_2.0.png	 N	 b	 t	 n.a.	 5.505832e-01
7	 5	 334	 flanked	 bex	 2	 1.000000	 2.000000	 flanked_bex_freq_2_amplitude_1_rep_9_t_D_2.0.png	 D	 t	 r	 n.a.	 2.828696e-01
7	 5	 335	 flanked	 bex	 2	 2.000000	 2.000000	 flanked_bex_freq_2_amplitude_2_rep_4_b_N_2.0.png	 N	 b	 l	 n.a.	 4.856484e-01
7	 5	 336	 flanked	 bex	 6	 1.000000	 2.000000	 flanked_bex_freq_6_amplitude_1_rep_9_t_K_2.0.png	 K	 t	 b	 n.a.	 5.468310e-01
7	 5	 337	 flanked	 bex	 6	 1.000000	 2.000000	 flanked_bex_freq_6_amplitude_1_rep_7_l_D_2.0.png	 D	 l	 r	 n.a.	 4.559582e-01
7	 5	 338	 flanked	 bex	 4	 2.500000	 2.000000	 flanked_bex_freq_4_amplitude_2.5_rep_5_r_H_2.0.png	 H	 r	 r	 n.a.	 3.644822e-01
7	 5	 339	 flanked	 bex	 2	 1.000000	 2.000000	 flanked_bex_freq_2_amplitude_1_rep_3_b_K_2.0.png	 K	 b	 t	 n.a.	 5.678103e-01
7	 5	 340	 flanked	 bex	 6	 3.000000	 2.000000	 flanked_bex_freq_6_amplitude_3_rep_7_t_K_2.0.png	 K	 t	 t	 n.a.	 5.255331e-01
7	 5	 341	 flanked	 bex	 2	 2.500000	 2.000000	 flanked_bex_freq_2_amplitude_2.5_rep_6_t_K_2.0.png	 K	 t	 t	 n.a.	 4.202891e-01
7	 5	 342	 flanked	 bex	 4	 2.500000	 2.000000	 flanked_bex_freq_4_amplitude_2.5_rep_2_t_N_2.0.png	 N	 t	 t	 n.a.	 4.286366e-01
7	 5	 343	 flanked	 bex	 2	 0.250000	 2.000000	 flanked_bex_freq_2_amplitude_0.25_rep_8_b_K_2.0.png	 K	 b	 b	 n.a.	 6.743502e-01
7	 5	 344	 flanked	 bex	 32	 0.500000	 2.000000	 flanked_bex_freq_32_amplitude_0.5_rep_4_t_H_2.0.png	 H	 t	 l	 n.a.	 4.544956e-01
7	 5	 345	 flanked	 bex	 16	 1.000000	 2.000000	 flanked_bex_freq_16_amplitude_1_rep_3_l_K_2.0.png	 K	 l	 b	 n.a.	 7.707827e-01
7	 5	 346	 flanked	 bex	 16	 1.000000	 2.000000	 flanked_bex_freq_16_amplitude_1_rep_2_l_K_2.0.png	 K	 l	 r	 n.a.	 5.328570e-01
7	 5	 347	 flanked	 bex	 4	 0.500000	 2.000000	 flanked_bex_freq_4_amplitude_0.5_rep_8_l_H_2.0.png	 H	 l	 b	 n.a.	 5.574263e-01
7	 5	 348	 flanked	 bex	 32	 0.250000	 2.000000	 flanked_bex_freq_32_amplitude_0.25_rep_5_r_K_2.0.png	 K	 r	 b	 n.a.	 5.915954e-01
7	 5	 349	 flanked	 bex	 8	 1.000000	 2.000000	 flanked_bex_freq_8_amplitude_1_rep_7_t_D_2.0.png	 D	 t	 t	 n.a.	 5.237909e-01
7	 5	 350	 flanked	 bex	 16	 0.250000	 2.000000	 flanked_bex_freq_16_amplitude_0.25_rep_5_t_H_2.0.png	 H	 t	 b	 n.a.	 5.241515e-01
7	 5	 351	 flanked	 bex	 4	 1.500000	 2.000000	 flanked_bex_freq_4_amplitude_1.5_rep_3_l_D_2.0.png	 D	 l	 b	 n.a.	 4.024746e-01
7	 5	 352	 flanked	 bex	 16	 2.500000	 2.000000	 flanked_bex_freq_16_amplitude_2.5_rep_9_r_N_2.0.png	 N	 r	 r	 n.a.	 2.548526e-01
7	 5	 353	 flanked	 bex	 6	 3.000000	 2.000000	 flanked_bex_freq_6_amplitude_3_rep_6_l_D_2.0.png	 D	 l	 l	 n.a.	 3.227704e-01
7	 5	 354	 flanked	 bex	 2	 0.250000	 2.000000	 flanked_bex_freq_2_amplitude_0.25_rep_7_r_H_2.0.png	 H	 r	 b	 n.a.	 4.648008e-01
7	 5	 355	 flanked	 bex	 16	 1.500000	 2.000000	 flanked_bex_freq_16_amplitude_1.5_rep_4_r_K_2.0.png	 K	 r	 r	 n.a.	 2.357020e-01
7	 5	 356	 flanked	 bex	 4	 2.500000	 2.000000	 flanked_bex_freq_4_amplitude_2.5_rep_3_t_D_2.0.png	 D	 t	 b	 n.a.	 4.095046e-01
7	 5	 357	 flanked	 bex	 6	 3.000000	 2.000000	 flanked_bex_freq_6_amplitude_3_rep_4_t_D_2.0.png	 D	 t	 t	 n.a.	 2.318869e-01
7	 5	 358	 flanked	 bex	 2	 1.500000	 2.000000	 flanked_bex_freq_2_amplitude_1.5_rep_9_t_D_2.0.png	 D	 t	 r	 n.a.	 2.967301e-01
7	 5	 359	 flanked	 bex	 2	 1.000000	 2.000000	 flanked_bex_freq_2_amplitude_1_rep_6_b_D_2.0.png	 D	 b	 t	 n.a.	 2.820558e-01
7	 5	 360	 flanked	 bex	 32	 3.000000	 2.000000	 flanked_bex_freq_32_amplitude_3_rep_7_b_D_2.0.png	 D	 b	 t	 n.a.	 3.441240e-01
7	 5	 361	 flanked	 bex	 4	 1.000000	 2.000000	 flanked_bex_freq_4_amplitude_1_rep_3_b_H_2.0.png	 H	 b	 b	 n.a.	 5.875191e-01
7	 5	 362	 flanked	 bex	 16	 3.000000	 2.000000	 flanked_bex_freq_16_amplitude_3_rep_0_b_N_2.0.png	 N	 b	 b	 n.a.	 3.654776e-01
7	 5	 363	 flanked	 bex	 32	 3.000000	 2.000000	 flanked_bex_freq_32_amplitude_3_rep_5_l_K_2.0.png	 K	 l	 l	 n.a.	 3.600034e-01
7	 5	 364	 flanked	 bex	 8	 2.000000	 2.000000	 flanked_bex_freq_8_amplitude_2_rep_4_l_N_2.0.png	 N	 l	 l	 n.a.	 3.176184e-01
7	 5	 365	 flanked	 bex	 8	 1.500000	 2.000000	 flanked_bex_freq_8_amplitude_1.5_rep_6_r_N_2.0.png	 N	 r	 r	 n.a.	 3.374766e-01
7	 5	 366	 flanked	 bex	 16	 1.000000	 2.000000	 flanked_bex_freq_16_amplitude_1_rep_8_l_K_2.0.png	 K	 l	 b	 n.a.	 6.231922e-01
7	 5	 367	 flanked	 bex	 2	 3.000000	 2.000000	 flanked_bex_freq_2_amplitude_3_rep_6_b_N_2.0.png	 N	 b	 r	 n.a.	 4.290303e-01
7	 5	 368	 flanked	 bex	 8	 0.500000	 2.000000	 flanked_bex_freq_8_amplitude_0.5_rep_1_l_H_2.0.png	 H	 l	 b	 n.a.	 5.576509e-01
7	 5	 369	 flanked	 bex	 32	 1.500000	 2.000000	 flanked_bex_freq_32_amplitude_1.5_rep_4_b_H_2.0.png	 H	 b	 r	 n.a.	 3.743811e-01
7	 5	 370	 flanked	 bex	 16	 2.500000	 2.000000	 flanked_bex_freq_16_amplitude_2.5_rep_6_r_D_2.0.png	 D	 r	 r	 n.a.	 2.927629e-01
7	 5	 371	 flanked	 bex	 8	 2.000000	 2.000000	 flanked_bex_freq_8_amplitude_2_rep_5_t_D_2.0.png	 D	 t	 t	 n.a.	 3.047275e-01
7	 5	 372	 flanked	 bex	 16	 0.500000	 2.000000	 flanked_bex_freq_16_amplitude_0.5_rep_6_t_N_2.0.png	 N	 t	 r	 n.a.	 6.052528e-01
7	 5	 373	 flanked	 bex	 4	 0.250000	 2.000000	 flanked_bex_freq_4_amplitude_0.25_rep_1_l_H_2.0.png	 H	 l	 b	 n.a.	 7.263777e-01
7	 5	 374	 flanked	 bex	 6	 1.000000	 2.000000	 flanked_bex_freq_6_amplitude_1_rep_8_b_D_2.0.png	 D	 b	 b	 n.a.	 4.772276e-01
7	 5	 375	 flanked	 bex	 8	 2.000000	 2.000000	 flanked_bex_freq_8_amplitude_2_rep_2_r_H_2.0.png	 H	 r	 r	 n.a.	 3.361252e-01
7	 5	 376	 flanked	 bex	 32	 1.000000	 2.000000	 flanked_bex_freq_32_amplitude_1_rep_4_r_N_2.0.png	 N	 r	 t	 n.a.	 4.698414e-01
7	 5	 377	 flanked	 bex	 6	 0.250000	 2.000000	 flanked_bex_freq_6_amplitude_0.25_rep_3_t_K_2.0.png	 K	 t	 r	 n.a.	 5.542180e-01
7	 5	 378	 flanked	 bex	 32	 2.000000	 2.000000	 flanked_bex_freq_32_amplitude_2_rep_2_b_N_2.0.png	 N	 b	 b	 n.a.	 5.336875e-01
7	 5	 379	 flanked	 bex	 2	 0.500000	 2.000000	 flanked_bex_freq_2_amplitude_0.5_rep_2_b_K_2.0.png	 K	 b	 r	 n.a.	 3.913220e-01
7	 5	 380	 flanked	 bex	 8	 2.000000	 2.000000	 flanked_bex_freq_8_amplitude_2_rep_8_l_D_2.0.png	 D	 l	 l	 n.a.	 3.279244e-01
7	 5	 381	 flanked	 bex	 16	 2.000000	 2.000000	 flanked_bex_freq_16_amplitude_2_rep_5_b_N_2.0.png	 N	 b	 b	 n.a.	 6.005721e-01
7	 5	 382	 flanked	 bex	 32	 0.500000	 2.000000	 flanked_bex_freq_32_amplitude_0.5_rep_2_b_H_2.0.png	 H	 b	 t	 n.a.	 6.929383e-01
7	 5	 383	 flanked	 bex	 2	 3.000000	 2.000000	 flanked_bex_freq_2_amplitude_3_rep_7_r_H_2.0.png	 H	 r	 r	 n.a.	 2.787711e-01
7	 5	 384	 flanked	 bex	 6	 1.500000	 2.000000	 flanked_bex_freq_6_amplitude_1.5_rep_7_b_H_2.0.png	 H	 b	 b	 n.a.	 6.265378e-01
7	 5	 385	 flanked	 bex	 8	 0.250000	 2.000000	 flanked_bex_freq_8_amplitude_0.25_rep_3_b_D_2.0.png	 D	 b	 b	 n.a.	 5.303737e-01
7	 5	 386	 flanked	 bex	 8	 2.000000	 2.000000	 flanked_bex_freq_8_amplitude_2_rep_0_t_D_2.0.png	 D	 t	 t	 n.a.	 4.935663e-01
7	 5	 387	 flanked	 bex	 4	 0.500000	 2.000000	 flanked_bex_freq_4_amplitude_0.5_rep_9_t_K_2.0.png	 K	 t	 b	 n.a.	 5.259486e-01
7	 5	 388	 flanked	 bex	 6	 0.500000	 2.000000	 flanked_bex_freq_6_amplitude_0.5_rep_6_r_K_2.0.png	 K	 r	 r	 n.a.	 3.478705e-01
7	 5	 389	 flanked	 bex	 4	 0.500000	 2.000000	 flanked_bex_freq_4_amplitude_0.5_rep_5_r_K_2.0.png	 K	 r	 l	 n.a.	 4.678516e-01
7	 5	 390	 flanked	 bex	 16	 2.500000	 2.000000	 flanked_bex_freq_16_amplitude_2.5_rep_3_l_N_2.0.png	 N	 l	 l	 n.a.	 3.537627e-01
7	 5	 391	 flanked	 bex	 2	 1.500000	 2.000000	 flanked_bex_freq_2_amplitude_1.5_rep_4_r_N_2.0.png	 N	 r	 b	 n.a.	 1.006134e+00
7	 5	 392	 flanked	 bex	 2	 3.000000	 2.000000	 flanked_bex_freq_2_amplitude_3_rep_1_b_K_2.0.png	 K	 b	 b	 n.a.	 5.854467e-01
7	 5	 393	 flanked	 bex	 16	 1.500000	 2.000000	 flanked_bex_freq_16_amplitude_1.5_rep_5_t_H_2.0.png	 H	 t	 t	 n.a.	 4.912170e-01
7	 5	 394	 flanked	 bex	 6	 1.500000	 2.000000	 flanked_bex_freq_6_amplitude_1.5_rep_2_t_N_2.0.png	 N	 t	 t	 n.a.	 9.053352e-01
7	 5	 395	 flanked	 bex	 6	 2.500000	 2.000000	 flanked_bex_freq_6_amplitude_2.5_rep_2_r_D_2.0.png	 D	 r	 r	 n.a.	 5.407205e-01
7	 5	 396	 flanked	 bex	 32	 1.000000	 2.000000	 flanked_bex_freq_32_amplitude_1_rep_0_r_D_2.0.png	 D	 r	 l	 n.a.	 6.974483e-01
7	 5	 397	 flanked	 bex	 8	 0.250000	 2.000000	 flanked_bex_freq_8_amplitude_0.25_rep_7_l_H_2.0.png	 H	 l	 b	 n.a.	 6.580236e-01
7	 5	 398	 flanked	 bex	 2	 0.500000	 2.000000	 flanked_bex_freq_2_amplitude_0.5_rep_4_b_H_2.0.png	 H	 b	 t	 n.a.	 4.114363e-01
7	 5	 399	 flanked	 bex	 32	 1.000000	 2.000000	 flanked_bex_freq_32_amplitude_1_rep_2_l_H_2.0.png	 H	 l	 r	 n.a.	 4.019941e-01
7	 5	 400	 flanked	 bex	 16	 1.500000	 2.000000	 flanked_bex_freq_16_amplitude_1.5_rep_1_l_N_2.0.png	 N	 l	 l	 n.a.	 3.257060e-01
7	 5	 401	 flanked	 bex	 2	 2.000000	 2.000000	 flanked_bex_freq_2_amplitude_2_rep_6_t_N_2.0.png	 N	 t	 l	 n.a.	 5.752899e-01
7	 5	 402	 flanked	 bex	 4	 1.500000	 2.000000	 flanked_bex_freq_4_amplitude_1.5_rep_5_l_H_2.0.png	 H	 l	 l	 n.a.	 4.570510e-01
7	 5	 403	 flanked	 bex	 8	 0.500000	 2.000000	 flanked_bex_freq_8_amplitude_0.5_rep_2_t_D_2.0.png	 D	 t	 l	 n.a.	 8.337054e-01
7	 5	 404	 flanked	 bex	 4	 1.000000	 2.000000	 flanked_bex_freq_4_amplitude_1_rep_6_r_D_2.0.png	 D	 r	 r	 n.a.	 4.246242e-01
7	 5	 405	 flanked	 bex	 16	 1.500000	 2.000000	 flanked_bex_freq_16_amplitude_1.5_rep_2_l_N_2.0.png	 N	 l	 l	 n.a.	 4.304419e-01
7	 5	 406	 flanked	 bex	 16	 2.000000	 2.000000	 flanked_bex_freq_16_amplitude_2_rep_2_l_N_2.0.png	 N	 l	 l	 n.a.	 3.769210e-01
7	 5	 407	 flanked	 bex	 4	 1.000000	 2.000000	 flanked_bex_freq_4_amplitude_1_rep_5_r_K_2.0.png	 K	 r	 b	 n.a.	 6.000065e-01
7	 5	 408	 flanked	 bex	 16	 1.000000	 2.000000	 flanked_bex_freq_16_amplitude_1_rep_4_r_H_2.0.png	 H	 r	 l	 n.a.	 3.555358e-01
7	 5	 409	 flanked	 bex	 2	 2.000000	 2.000000	 flanked_bex_freq_2_amplitude_2_rep_2_r_N_2.0.png	 N	 r	 t	 n.a.	 3.941665e-01
7	 5	 410	 flanked	 bex	 32	 1.500000	 2.000000	 flanked_bex_freq_32_amplitude_1.5_rep_3_r_D_2.0.png	 D	 r	 r	 n.a.	 3.537545e-01
7	 5	 411	 flanked	 bex	 4	 1.000000	 2.000000	 flanked_bex_freq_4_amplitude_1_rep_7_l_D_2.0.png	 D	 l	 l	 n.a.	 3.826046e-01
7	 5	 412	 flanked	 bex	 4	 3.000000	 2.000000	 flanked_bex_freq_4_amplitude_3_rep_8_b_N_2.0.png	 N	 b	 b	 n.a.	 4.379731e-01
7	 5	 413	 flanked	 bex	 6	 1.500000	 2.000000	 flanked_bex_freq_6_amplitude_1.5_rep_0_b_N_2.0.png	 N	 b	 t	 n.a.	 4.926643e-01
7	 5	 414	 flanked	 bex	 8	 2.500000	 2.000000	 flanked_bex_freq_8_amplitude_2.5_rep_7_b_N_2.0.png	 N	 b	 b	 n.a.	 3.325945e-01
7	 5	 415	 flanked	 bex	 2	 0.500000	 2.000000	 flanked_bex_freq_2_amplitude_0.5_rep_3_t_N_2.0.png	 N	 t	 b	 n.a.	 5.772624e-01
7	 5	 416	 flanked	 bex	 6	 2.500000	 2.000000	 flanked_bex_freq_6_amplitude_2.5_rep_5_b_H_2.0.png	 H	 b	 b	 n.a.	 4.523696e-01
7	 5	 417	 flanked	 bex	 4	 1.000000	 2.000000	 flanked_bex_freq_4_amplitude_1_rep_0_b_D_2.0.png	 D	 b	 b	 n.a.	 4.345830e-01
7	 5	 418	 flanked	 bex	 2	 2.000000	 2.000000	 flanked_bex_freq_2_amplitude_2_rep_8_b_K_2.0.png	 K	 b	 b	 n.a.	 5.007920e-01
7	 5	 419	 flanked	 bex	 4	 1.500000	 2.000000	 flanked_bex_freq_4_amplitude_1.5_rep_6_l_N_2.0.png	 N	 l	 r	 n.a.	 6.092278e-01
7	 5	 420	 flanked	 bex	 8	 2.500000	 2.000000	 flanked_bex_freq_8_amplitude_2.5_rep_9_b_K_2.0.png	 K	 b	 b	 n.a.	 3.339106e-01
