subject	 session	 trial	 flanked	 distortion	 freq	 amplitude	 spacing	 im_name	 targ_letter	 targ_pos	 response	 eyemovement	 RT
8	 4	 1	 unflanked	 rf	 8	 0.010000	 0.000000	 unflanked_rf_freq_8_amplitude_0.01_rep_0_t_D.png	 D	 t	 t	 n.a.	 4.123479e-01
8	 4	 2	 unflanked	 rf	 3	 0.010000	 0.000000	 unflanked_rf_freq_3_amplitude_0.01_rep_8_l_D.png	 D	 l	 l	 n.a.	 4.471211e-01
8	 4	 3	 unflanked	 rf	 5	 0.010000	 0.000000	 unflanked_rf_freq_5_amplitude_0.01_rep_1_l_D.png	 D	 l	 l	 n.a.	 3.102025e-01
8	 4	 4	 unflanked	 rf	 4	 0.165000	 0.000000	 unflanked_rf_freq_4_amplitude_0.165_rep_1_b_H.png	 H	 b	 b	 n.a.	 2.742252e-01
8	 4	 5	 unflanked	 rf	 12	 0.007500	 0.000000	 unflanked_rf_freq_12_amplitude_0.0075_rep_6_l_N.png	 N	 l	 b	 n.a.	 3.802452e-01
8	 4	 6	 unflanked	 rf	 8	 0.113300	 0.000000	 unflanked_rf_freq_8_amplitude_0.1133_rep_8_t_H.png	 H	 t	 t	 n.a.	 2.737120e-01
8	 4	 7	 unflanked	 rf	 12	 0.007500	 0.000000	 unflanked_rf_freq_12_amplitude_0.0075_rep_7_l_H.png	 H	 l	 l	 n.a.	 4.462098e-01
8	 4	 8	 unflanked	 rf	 8	 0.216700	 0.000000	 unflanked_rf_freq_8_amplitude_0.2167_rep_9_r_N.png	 N	 r	 r	 n.a.	 1.996929e-01
8	 4	 9	 unflanked	 rf	 5	 0.010000	 0.000000	 unflanked_rf_freq_5_amplitude_0.01_rep_9_b_K.png	 K	 b	 t	 n.a.	 3.950709e-01
8	 4	 10	 unflanked	 rf	 12	 0.010000	 0.000000	 unflanked_rf_freq_12_amplitude_0.01_rep_3_l_K.png	 K	 l	 b	 n.a.	 1.777093e-01
8	 4	 11	 unflanked	 rf	 4	 0.061700	 0.000000	 unflanked_rf_freq_4_amplitude_0.0617_rep_2_l_D.png	 D	 l	 l	 n.a.	 2.729294e-01
8	 4	 12	 unflanked	 rf	 4	 0.165000	 0.000000	 unflanked_rf_freq_4_amplitude_0.165_rep_7_b_D.png	 D	 b	 b	 n.a.	 2.321487e-01
8	 4	 13	 unflanked	 rf	 5	 0.216700	 0.000000	 unflanked_rf_freq_5_amplitude_0.2167_rep_7_r_N.png	 N	 r	 r	 n.a.	 2.081842e-01
8	 4	 14	 unflanked	 rf	 4	 0.113300	 0.000000	 unflanked_rf_freq_4_amplitude_0.1133_rep_3_b_H.png	 H	 b	 b	 n.a.	 3.524568e-01
8	 4	 15	 unflanked	 rf	 2	 0.268300	 0.000000	 unflanked_rf_freq_2_amplitude_0.2683_rep_7_t_N.png	 N	 t	 t	 n.a.	 4.312850e-01
8	 4	 16	 unflanked	 rf	 3	 0.216700	 0.000000	 unflanked_rf_freq_3_amplitude_0.2167_rep_2_r_N.png	 N	 r	 r	 n.a.	 3.256339e-01
8	 4	 17	 unflanked	 rf	 2	 0.007500	 0.000000	 unflanked_rf_freq_2_amplitude_0.0075_rep_9_t_H.png	 H	 t	 t	 n.a.	 3.950755e-01
8	 4	 18	 unflanked	 rf	 2	 0.113300	 0.000000	 unflanked_rf_freq_2_amplitude_0.1133_rep_0_t_N.png	 N	 t	 l	 n.a.	 3.083229e-01
8	 4	 19	 unflanked	 rf	 8	 0.061700	 0.000000	 unflanked_rf_freq_8_amplitude_0.0617_rep_0_b_H.png	 H	 b	 b	 n.a.	 2.448905e-01
8	 4	 20	 unflanked	 rf	 2	 0.165000	 0.000000	 unflanked_rf_freq_2_amplitude_0.165_rep_0_l_D.png	 D	 l	 l	 n.a.	 4.632983e-01
8	 4	 21	 unflanked	 rf	 12	 0.113300	 0.000000	 unflanked_rf_freq_12_amplitude_0.1133_rep_5_t_H.png	 H	 t	 t	 n.a.	 2.302388e-01
8	 4	 22	 unflanked	 rf	 4	 0.165000	 0.000000	 unflanked_rf_freq_4_amplitude_0.165_rep_5_b_H.png	 H	 b	 r	 n.a.	 3.388495e-01
8	 4	 23	 unflanked	 rf	 12	 0.061700	 0.000000	 unflanked_rf_freq_12_amplitude_0.0617_rep_5_r_D.png	 D	 r	 r	 n.a.	 2.060884e-01
8	 4	 24	 unflanked	 rf	 3	 0.061700	 0.000000	 unflanked_rf_freq_3_amplitude_0.0617_rep_9_l_H.png	 H	 l	 t	 n.a.	 4.659960e-01
8	 4	 25	 unflanked	 rf	 2	 0.268300	 0.000000	 unflanked_rf_freq_2_amplitude_0.2683_rep_9_t_H.png	 H	 t	 t	 n.a.	 3.588527e-01
8	 4	 26	 unflanked	 rf	 8	 0.010000	 0.000000	 unflanked_rf_freq_8_amplitude_0.01_rep_7_t_D.png	 D	 t	 t	 n.a.	 6.665099e-01
8	 4	 27	 unflanked	 rf	 3	 0.268300	 0.000000	 unflanked_rf_freq_3_amplitude_0.2683_rep_7_r_K.png	 K	 r	 r	 n.a.	 2.228941e-01
8	 4	 28	 unflanked	 rf	 5	 0.113300	 0.000000	 unflanked_rf_freq_5_amplitude_0.1133_rep_2_b_N.png	 N	 b	 b	 n.a.	 3.424304e-01
8	 4	 29	 unflanked	 rf	 4	 0.113300	 0.000000	 unflanked_rf_freq_4_amplitude_0.1133_rep_2_b_H.png	 H	 b	 t	 n.a.	 2.668581e-01
8	 4	 30	 unflanked	 rf	 5	 0.268300	 0.000000	 unflanked_rf_freq_5_amplitude_0.2683_rep_6_l_D.png	 D	 l	 l	 n.a.	 3.607107e-01
8	 4	 31	 unflanked	 rf	 12	 0.007500	 0.000000	 unflanked_rf_freq_12_amplitude_0.0075_rep_4_t_K.png	 K	 t	 t	 n.a.	 4.897550e-01
8	 4	 32	 unflanked	 rf	 2	 0.010000	 0.000000	 unflanked_rf_freq_2_amplitude_0.01_rep_1_l_N.png	 N	 l	 b	 n.a.	 3.053306e-01
8	 4	 33	 unflanked	 rf	 3	 0.268300	 0.000000	 unflanked_rf_freq_3_amplitude_0.2683_rep_2_r_N.png	 N	 r	 r	 n.a.	 2.526033e-01
8	 4	 34	 unflanked	 rf	 4	 0.216700	 0.000000	 unflanked_rf_freq_4_amplitude_0.2167_rep_5_l_N.png	 N	 l	 t	 n.a.	 5.056293e-01
8	 4	 35	 unflanked	 rf	 3	 0.113300	 0.000000	 unflanked_rf_freq_3_amplitude_0.1133_rep_9_l_K.png	 K	 l	 l	 n.a.	 3.556221e-01
8	 4	 36	 unflanked	 rf	 2	 0.010000	 0.000000	 unflanked_rf_freq_2_amplitude_0.01_rep_4_t_D.png	 D	 t	 b	 n.a.	 4.381866e-01
8	 4	 37	 unflanked	 rf	 5	 0.007500	 0.000000	 unflanked_rf_freq_5_amplitude_0.0075_rep_3_t_H.png	 H	 t	 t	 n.a.	 5.098972e-01
8	 4	 38	 unflanked	 rf	 12	 0.007500	 0.000000	 unflanked_rf_freq_12_amplitude_0.0075_rep_1_b_N.png	 N	 b	 b	 n.a.	 4.764875e-01
8	 4	 39	 unflanked	 rf	 12	 0.165000	 0.000000	 unflanked_rf_freq_12_amplitude_0.165_rep_1_l_H.png	 H	 l	 l	 n.a.	 2.161251e-01
8	 4	 40	 unflanked	 rf	 4	 0.010000	 0.000000	 unflanked_rf_freq_4_amplitude_0.01_rep_4_b_D.png	 D	 b	 t	 n.a.	 3.741760e-01
8	 4	 41	 unflanked	 rf	 4	 0.010000	 0.000000	 unflanked_rf_freq_4_amplitude_0.01_rep_5_r_K.png	 K	 r	 r	 n.a.	 2.341077e-01
8	 4	 42	 unflanked	 rf	 3	 0.061700	 0.000000	 unflanked_rf_freq_3_amplitude_0.0617_rep_4_l_N.png	 N	 l	 t	 n.a.	 3.263189e-01
8	 4	 43	 unflanked	 rf	 12	 0.113300	 0.000000	 unflanked_rf_freq_12_amplitude_0.1133_rep_7_r_K.png	 K	 r	 r	 n.a.	 2.245922e-01
8	 4	 44	 unflanked	 rf	 3	 0.268300	 0.000000	 unflanked_rf_freq_3_amplitude_0.2683_rep_1_b_H.png	 H	 b	 b	 n.a.	 3.226311e-01
8	 4	 45	 unflanked	 rf	 3	 0.165000	 0.000000	 unflanked_rf_freq_3_amplitude_0.165_rep_3_b_H.png	 H	 b	 b	 n.a.	 2.559245e-01
8	 4	 46	 unflanked	 rf	 5	 0.216700	 0.000000	 unflanked_rf_freq_5_amplitude_0.2167_rep_8_b_H.png	 H	 b	 b	 n.a.	 3.695682e-01
8	 4	 47	 unflanked	 rf	 5	 0.216700	 0.000000	 unflanked_rf_freq_5_amplitude_0.2167_rep_0_r_H.png	 H	 r	 r	 n.a.	 2.462569e-01
8	 4	 48	 unflanked	 rf	 3	 0.268300	 0.000000	 unflanked_rf_freq_3_amplitude_0.2683_rep_5_b_D.png	 D	 b	 b	 n.a.	 3.550586e-01
8	 4	 49	 unflanked	 rf	 3	 0.268300	 0.000000	 unflanked_rf_freq_3_amplitude_0.2683_rep_4_b_N.png	 N	 b	 b	 n.a.	 3.158042e-01
8	 4	 50	 unflanked	 rf	 8	 0.010000	 0.000000	 unflanked_rf_freq_8_amplitude_0.01_rep_9_l_N.png	 N	 l	 r	 n.a.	 5.186430e-01
8	 4	 51	 unflanked	 rf	 3	 0.268300	 0.000000	 unflanked_rf_freq_3_amplitude_0.2683_rep_6_r_H.png	 H	 r	 r	 n.a.	 2.832247e-01
8	 4	 52	 unflanked	 rf	 3	 0.010000	 0.000000	 unflanked_rf_freq_3_amplitude_0.01_rep_3_t_N.png	 N	 t	 t	 n.a.	 5.543937e-01
8	 4	 53	 unflanked	 rf	 5	 0.007500	 0.000000	 unflanked_rf_freq_5_amplitude_0.0075_rep_4_b_D.png	 D	 b	 b	 n.a.	 4.932143e-01
8	 4	 54	 unflanked	 rf	 8	 0.268300	 0.000000	 unflanked_rf_freq_8_amplitude_0.2683_rep_8_l_K.png	 K	 l	 l	 n.a.	 2.200425e-01
8	 4	 55	 unflanked	 rf	 5	 0.007500	 0.000000	 unflanked_rf_freq_5_amplitude_0.0075_rep_1_l_K.png	 K	 l	 l	 n.a.	 4.428898e-01
8	 4	 56	 unflanked	 rf	 8	 0.216700	 0.000000	 unflanked_rf_freq_8_amplitude_0.2167_rep_4_l_K.png	 K	 l	 l	 n.a.	 2.361561e-01
8	 4	 57	 unflanked	 rf	 3	 0.113300	 0.000000	 unflanked_rf_freq_3_amplitude_0.1133_rep_7_b_D.png	 D	 b	 b	 n.a.	 4.818925e-01
8	 4	 58	 unflanked	 rf	 5	 0.061700	 0.000000	 unflanked_rf_freq_5_amplitude_0.0617_rep_0_r_H.png	 H	 r	 r	 n.a.	 3.504913e-01
8	 4	 59	 unflanked	 rf	 12	 0.010000	 0.000000	 unflanked_rf_freq_12_amplitude_0.01_rep_9_t_K.png	 K	 t	 r	 n.a.	 5.442231e-01
8	 4	 60	 unflanked	 rf	 12	 0.216700	 0.000000	 unflanked_rf_freq_12_amplitude_0.2167_rep_6_b_D.png	 D	 b	 b	 n.a.	 2.252266e-01
8	 4	 61	 unflanked	 rf	 4	 0.113300	 0.000000	 unflanked_rf_freq_4_amplitude_0.1133_rep_6_t_N.png	 N	 t	 r	 n.a.	 4.365689e-01
8	 4	 62	 unflanked	 rf	 12	 0.165000	 0.000000	 unflanked_rf_freq_12_amplitude_0.165_rep_0_b_N.png	 N	 b	 b	 n.a.	 2.243381e-01
8	 4	 63	 unflanked	 rf	 5	 0.113300	 0.000000	 unflanked_rf_freq_5_amplitude_0.1133_rep_7_l_D.png	 D	 l	 l	 n.a.	 3.475043e-01
8	 4	 64	 unflanked	 rf	 5	 0.061700	 0.000000	 unflanked_rf_freq_5_amplitude_0.0617_rep_2_t_D.png	 D	 t	 t	 n.a.	 4.386499e-01
8	 4	 65	 unflanked	 rf	 5	 0.113300	 0.000000	 unflanked_rf_freq_5_amplitude_0.1133_rep_0_t_H.png	 H	 t	 t	 n.a.	 4.144868e-01
8	 4	 66	 unflanked	 rf	 8	 0.061700	 0.000000	 unflanked_rf_freq_8_amplitude_0.0617_rep_9_r_N.png	 N	 r	 r	 n.a.	 3.995235e-01
8	 4	 67	 unflanked	 rf	 2	 0.268300	 0.000000	 unflanked_rf_freq_2_amplitude_0.2683_rep_0_r_H.png	 H	 r	 r	 n.a.	 2.554460e-01
8	 4	 68	 unflanked	 rf	 8	 0.268300	 0.000000	 unflanked_rf_freq_8_amplitude_0.2683_rep_4_r_H.png	 H	 r	 r	 n.a.	 2.052159e-01
8	 4	 69	 unflanked	 rf	 3	 0.216700	 0.000000	 unflanked_rf_freq_3_amplitude_0.2167_rep_7_b_K.png	 K	 b	 b	 n.a.	 2.654380e-01
8	 4	 70	 unflanked	 rf	 8	 0.165000	 0.000000	 unflanked_rf_freq_8_amplitude_0.165_rep_8_r_D.png	 D	 r	 r	 n.a.	 2.406521e-01
8	 4	 71	 unflanked	 rf	 4	 0.216700	 0.000000	 unflanked_rf_freq_4_amplitude_0.2167_rep_2_b_D.png	 D	 b	 b	 n.a.	 2.353195e-01
8	 4	 72	 unflanked	 rf	 12	 0.216700	 0.000000	 unflanked_rf_freq_12_amplitude_0.2167_rep_0_b_N.png	 N	 b	 b	 n.a.	 2.303363e-01
8	 4	 73	 unflanked	 rf	 5	 0.113300	 0.000000	 unflanked_rf_freq_5_amplitude_0.1133_rep_4_l_K.png	 K	 l	 l	 n.a.	 2.319018e-01
8	 4	 74	 unflanked	 rf	 4	 0.268300	 0.000000	 unflanked_rf_freq_4_amplitude_0.2683_rep_2_l_N.png	 N	 l	 l	 n.a.	 2.928869e-01
8	 4	 75	 unflanked	 rf	 4	 0.113300	 0.000000	 unflanked_rf_freq_4_amplitude_0.1133_rep_1_l_D.png	 D	 l	 l	 n.a.	 4.827390e-01
8	 4	 76	 unflanked	 rf	 4	 0.061700	 0.000000	 unflanked_rf_freq_4_amplitude_0.0617_rep_7_r_D.png	 D	 r	 t	 n.a.	 2.390407e-01
8	 4	 77	 unflanked	 rf	 12	 0.061700	 0.000000	 unflanked_rf_freq_12_amplitude_0.0617_rep_2_b_H.png	 H	 b	 b	 n.a.	 3.013851e-01
8	 4	 78	 unflanked	 rf	 5	 0.010000	 0.000000	 unflanked_rf_freq_5_amplitude_0.01_rep_8_r_K.png	 K	 r	 r	 n.a.	 4.552433e-01
8	 4	 79	 unflanked	 rf	 3	 0.007500	 0.000000	 unflanked_rf_freq_3_amplitude_0.0075_rep_3_r_K.png	 K	 r	 t	 n.a.	 5.237648e-01
8	 4	 80	 unflanked	 rf	 8	 0.268300	 0.000000	 unflanked_rf_freq_8_amplitude_0.2683_rep_0_t_K.png	 K	 t	 t	 n.a.	 2.351277e-01
8	 4	 81	 unflanked	 rf	 5	 0.268300	 0.000000	 unflanked_rf_freq_5_amplitude_0.2683_rep_5_l_N.png	 N	 l	 l	 n.a.	 1.798499e-01
8	 4	 82	 unflanked	 rf	 4	 0.010000	 0.000000	 unflanked_rf_freq_4_amplitude_0.01_rep_0_b_N.png	 N	 b	 b	 n.a.	 4.199865e-01
8	 4	 83	 unflanked	 rf	 2	 0.165000	 0.000000	 unflanked_rf_freq_2_amplitude_0.165_rep_2_r_H.png	 H	 r	 r	 n.a.	 3.579970e-01
8	 4	 84	 unflanked	 rf	 3	 0.113300	 0.000000	 unflanked_rf_freq_3_amplitude_0.1133_rep_1_t_N.png	 N	 t	 t	 n.a.	 4.236582e-01
8	 4	 85	 unflanked	 rf	 4	 0.007500	 0.000000	 unflanked_rf_freq_4_amplitude_0.0075_rep_9_b_N.png	 N	 b	 b	 n.a.	 4.573001e-01
8	 4	 86	 unflanked	 rf	 12	 0.268300	 0.000000	 unflanked_rf_freq_12_amplitude_0.2683_rep_1_b_N.png	 N	 b	 b	 n.a.	 2.320375e-01
8	 4	 87	 unflanked	 rf	 4	 0.216700	 0.000000	 unflanked_rf_freq_4_amplitude_0.2167_rep_8_t_H.png	 H	 t	 t	 n.a.	 2.714455e-01
8	 4	 88	 unflanked	 rf	 5	 0.113300	 0.000000	 unflanked_rf_freq_5_amplitude_0.1133_rep_5_r_K.png	 K	 r	 b	 n.a.	 2.872250e-01
8	 4	 89	 unflanked	 rf	 8	 0.165000	 0.000000	 unflanked_rf_freq_8_amplitude_0.165_rep_3_t_N.png	 N	 t	 t	 n.a.	 2.232526e-01
8	 4	 90	 unflanked	 rf	 8	 0.216700	 0.000000	 unflanked_rf_freq_8_amplitude_0.2167_rep_8_t_D.png	 D	 t	 t	 n.a.	 2.351073e-01
8	 4	 91	 unflanked	 rf	 8	 0.113300	 0.000000	 unflanked_rf_freq_8_amplitude_0.1133_rep_7_r_K.png	 K	 r	 r	 n.a.	 2.342115e-01
8	 4	 92	 unflanked	 rf	 12	 0.113300	 0.000000	 unflanked_rf_freq_12_amplitude_0.1133_rep_8_r_H.png	 H	 r	 r	 n.a.	 2.120194e-01
8	 4	 93	 unflanked	 rf	 3	 0.010000	 0.000000	 unflanked_rf_freq_3_amplitude_0.01_rep_0_t_D.png	 D	 t	 t	 n.a.	 4.710183e-01
8	 4	 94	 unflanked	 rf	 8	 0.216700	 0.000000	 unflanked_rf_freq_8_amplitude_0.2167_rep_1_l_N.png	 N	 l	 l	 n.a.	 2.425907e-01
8	 4	 95	 unflanked	 rf	 5	 0.010000	 0.000000	 unflanked_rf_freq_5_amplitude_0.01_rep_6_t_D.png	 D	 t	 b	 n.a.	 3.005244e-01
8	 4	 96	 unflanked	 rf	 5	 0.061700	 0.000000	 unflanked_rf_freq_5_amplitude_0.0617_rep_1_b_H.png	 H	 b	 b	 n.a.	 2.854746e-01
8	 4	 97	 unflanked	 rf	 8	 0.007500	 0.000000	 unflanked_rf_freq_8_amplitude_0.0075_rep_4_l_H.png	 H	 l	 r	 n.a.	 5.197632e-01
8	 4	 98	 unflanked	 rf	 2	 0.268300	 0.000000	 unflanked_rf_freq_2_amplitude_0.2683_rep_4_t_D.png	 D	 t	 b	 n.a.	 3.210531e-01
8	 4	 99	 unflanked	 rf	 4	 0.216700	 0.000000	 unflanked_rf_freq_4_amplitude_0.2167_rep_7_t_N.png	 N	 t	 t	 n.a.	 3.230139e-01
8	 4	 100	 unflanked	 rf	 2	 0.165000	 0.000000	 unflanked_rf_freq_2_amplitude_0.165_rep_4_t_D.png	 D	 t	 r	 n.a.	 5.458719e-01
8	 4	 101	 unflanked	 rf	 5	 0.010000	 0.000000	 unflanked_rf_freq_5_amplitude_0.01_rep_5_b_D.png	 D	 b	 t	 n.a.	 2.820123e-01
8	 4	 102	 unflanked	 rf	 2	 0.061700	 0.000000	 unflanked_rf_freq_2_amplitude_0.0617_rep_9_b_H.png	 H	 b	 b	 n.a.	 3.551719e-01
8	 4	 103	 unflanked	 rf	 8	 0.165000	 0.000000	 unflanked_rf_freq_8_amplitude_0.165_rep_1_b_N.png	 N	 b	 b	 n.a.	 2.566402e-01
8	 4	 104	 unflanked	 rf	 3	 0.216700	 0.000000	 unflanked_rf_freq_3_amplitude_0.2167_rep_4_t_N.png	 N	 t	 t	 n.a.	 2.423004e-01
8	 4	 105	 unflanked	 rf	 4	 0.268300	 0.000000	 unflanked_rf_freq_4_amplitude_0.2683_rep_5_t_N.png	 N	 t	 t	 n.a.	 3.004904e-01
8	 4	 106	 unflanked	 rf	 4	 0.010000	 0.000000	 unflanked_rf_freq_4_amplitude_0.01_rep_6_b_N.png	 N	 b	 r	 n.a.	 3.753510e-01
8	 4	 107	 unflanked	 rf	 5	 0.165000	 0.000000	 unflanked_rf_freq_5_amplitude_0.165_rep_8_r_K.png	 K	 r	 r	 n.a.	 3.026281e-01
8	 4	 108	 unflanked	 rf	 8	 0.061700	 0.000000	 unflanked_rf_freq_8_amplitude_0.0617_rep_2_r_K.png	 K	 r	 r	 n.a.	 3.031870e-01
8	 4	 109	 unflanked	 rf	 8	 0.010000	 0.000000	 unflanked_rf_freq_8_amplitude_0.01_rep_6_t_H.png	 H	 t	 t	 n.a.	 1.953272e-01
8	 4	 110	 unflanked	 rf	 8	 0.165000	 0.000000	 unflanked_rf_freq_8_amplitude_0.165_rep_4_r_H.png	 H	 r	 r	 n.a.	 2.082033e-01
8	 4	 111	 unflanked	 rf	 3	 0.061700	 0.000000	 unflanked_rf_freq_3_amplitude_0.0617_rep_3_b_N.png	 N	 b	 t	 n.a.	 2.490541e-01
8	 4	 112	 unflanked	 rf	 12	 0.113300	 0.000000	 unflanked_rf_freq_12_amplitude_0.1133_rep_1_b_D.png	 D	 b	 b	 n.a.	 4.256837e-01
8	 4	 113	 unflanked	 rf	 3	 0.010000	 0.000000	 unflanked_rf_freq_3_amplitude_0.01_rep_2_r_H.png	 H	 r	 t	 n.a.	 2.067719e-01
8	 4	 114	 unflanked	 rf	 8	 0.007500	 0.000000	 unflanked_rf_freq_8_amplitude_0.0075_rep_8_t_N.png	 N	 t	 r	 n.a.	 4.336888e-01
8	 4	 115	 unflanked	 rf	 8	 0.010000	 0.000000	 unflanked_rf_freq_8_amplitude_0.01_rep_3_l_N.png	 N	 l	 b	 n.a.	 3.552940e-01
8	 4	 116	 unflanked	 rf	 4	 0.007500	 0.000000	 unflanked_rf_freq_4_amplitude_0.0075_rep_7_t_N.png	 N	 t	 l	 n.a.	 4.645078e-01
8	 4	 117	 unflanked	 rf	 12	 0.165000	 0.000000	 unflanked_rf_freq_12_amplitude_0.165_rep_3_r_H.png	 H	 r	 r	 n.a.	 1.833852e-01
8	 4	 118	 unflanked	 rf	 3	 0.113300	 0.000000	 unflanked_rf_freq_3_amplitude_0.1133_rep_2_r_H.png	 H	 r	 r	 n.a.	 2.769776e-01
8	 4	 119	 unflanked	 rf	 3	 0.061700	 0.000000	 unflanked_rf_freq_3_amplitude_0.0617_rep_1_t_K.png	 K	 t	 t	 n.a.	 3.336997e-01
8	 4	 120	 unflanked	 rf	 4	 0.061700	 0.000000	 unflanked_rf_freq_4_amplitude_0.0617_rep_5_l_N.png	 N	 l	 r	 n.a.	 2.879272e-01
8	 4	 121	 unflanked	 rf	 2	 0.061700	 0.000000	 unflanked_rf_freq_2_amplitude_0.0617_rep_7_t_H.png	 H	 t	 t	 n.a.	 3.407763e-01
8	 4	 122	 unflanked	 rf	 12	 0.061700	 0.000000	 unflanked_rf_freq_12_amplitude_0.0617_rep_4_t_K.png	 K	 t	 t	 n.a.	 3.505718e-01
8	 4	 123	 unflanked	 rf	 3	 0.216700	 0.000000	 unflanked_rf_freq_3_amplitude_0.2167_rep_9_b_N.png	 N	 b	 b	 n.a.	 3.222412e-01
8	 4	 124	 unflanked	 rf	 2	 0.113300	 0.000000	 unflanked_rf_freq_2_amplitude_0.1133_rep_4_t_N.png	 N	 t	 t	 n.a.	 3.920280e-01
8	 4	 125	 unflanked	 rf	 3	 0.113300	 0.000000	 unflanked_rf_freq_3_amplitude_0.1133_rep_0_t_N.png	 N	 t	 r	 n.a.	 4.156509e-01
8	 4	 126	 unflanked	 rf	 2	 0.268300	 0.000000	 unflanked_rf_freq_2_amplitude_0.2683_rep_1_l_N.png	 N	 l	 l	 n.a.	 2.130142e-01
8	 4	 127	 unflanked	 rf	 12	 0.010000	 0.000000	 unflanked_rf_freq_12_amplitude_0.01_rep_8_b_D.png	 D	 b	 t	 n.a.	 3.547995e-01
8	 4	 128	 unflanked	 rf	 5	 0.113300	 0.000000	 unflanked_rf_freq_5_amplitude_0.1133_rep_6_l_H.png	 H	 l	 l	 n.a.	 2.833736e-01
8	 4	 129	 unflanked	 rf	 12	 0.216700	 0.000000	 unflanked_rf_freq_12_amplitude_0.2167_rep_4_t_H.png	 H	 t	 t	 n.a.	 2.291455e-01
8	 4	 130	 unflanked	 rf	 3	 0.007500	 0.000000	 unflanked_rf_freq_3_amplitude_0.0075_rep_9_r_N.png	 N	 r	 b	 n.a.	 3.768560e-01
8	 4	 131	 unflanked	 rf	 8	 0.061700	 0.000000	 unflanked_rf_freq_8_amplitude_0.0617_rep_6_b_D.png	 D	 b	 b	 n.a.	 3.172717e-01
8	 4	 132	 unflanked	 rf	 3	 0.007500	 0.000000	 unflanked_rf_freq_3_amplitude_0.0075_rep_8_r_N.png	 N	 r	 t	 n.a.	 3.446481e-01
8	 4	 133	 unflanked	 rf	 12	 0.216700	 0.000000	 unflanked_rf_freq_12_amplitude_0.2167_rep_9_t_D.png	 D	 t	 t	 n.a.	 2.508065e-01
8	 4	 134	 unflanked	 rf	 5	 0.007500	 0.000000	 unflanked_rf_freq_5_amplitude_0.0075_rep_5_t_D.png	 D	 t	 r	 n.a.	 2.733990e-01
8	 4	 135	 unflanked	 rf	 12	 0.061700	 0.000000	 unflanked_rf_freq_12_amplitude_0.0617_rep_3_b_H.png	 H	 b	 t	 n.a.	 3.924170e-01
8	 4	 136	 unflanked	 rf	 8	 0.268300	 0.000000	 unflanked_rf_freq_8_amplitude_0.2683_rep_1_r_H.png	 H	 r	 r	 n.a.	 2.229322e-01
8	 4	 137	 unflanked	 rf	 3	 0.010000	 0.000000	 unflanked_rf_freq_3_amplitude_0.01_rep_4_b_K.png	 K	 b	 b	 n.a.	 3.209531e-01
8	 4	 138	 unflanked	 rf	 8	 0.061700	 0.000000	 unflanked_rf_freq_8_amplitude_0.0617_rep_3_l_D.png	 D	 l	 l	 n.a.	 3.038853e-01
8	 4	 139	 unflanked	 rf	 2	 0.216700	 0.000000	 unflanked_rf_freq_2_amplitude_0.2167_rep_4_l_N.png	 N	 l	 l	 n.a.	 3.044398e-01
8	 4	 140	 unflanked	 rf	 12	 0.216700	 0.000000	 unflanked_rf_freq_12_amplitude_0.2167_rep_5_l_K.png	 K	 l	 l	 n.a.	 2.143974e-01
8	 4	 141	 unflanked	 rf	 2	 0.216700	 0.000000	 unflanked_rf_freq_2_amplitude_0.2167_rep_6_t_H.png	 H	 t	 t	 n.a.	 2.528527e-01
8	 4	 142	 unflanked	 rf	 12	 0.268300	 0.000000	 unflanked_rf_freq_12_amplitude_0.2683_rep_5_l_D.png	 D	 l	 l	 n.a.	 2.072861e-01
8	 4	 143	 unflanked	 rf	 3	 0.010000	 0.000000	 unflanked_rf_freq_3_amplitude_0.01_rep_9_t_N.png	 N	 t	 r	 n.a.	 3.568485e-01
8	 4	 144	 unflanked	 rf	 12	 0.010000	 0.000000	 unflanked_rf_freq_12_amplitude_0.01_rep_0_b_K.png	 K	 b	 r	 n.a.	 3.734994e-01
8	 4	 145	 unflanked	 rf	 4	 0.216700	 0.000000	 unflanked_rf_freq_4_amplitude_0.2167_rep_6_b_D.png	 D	 b	 b	 n.a.	 3.090913e-01
8	 4	 146	 unflanked	 rf	 4	 0.216700	 0.000000	 unflanked_rf_freq_4_amplitude_0.2167_rep_4_b_D.png	 D	 b	 b	 n.a.	 4.129616e-01
8	 4	 147	 unflanked	 rf	 2	 0.216700	 0.000000	 unflanked_rf_freq_2_amplitude_0.2167_rep_2_b_H.png	 H	 b	 b	 n.a.	 3.573083e-01
8	 4	 148	 unflanked	 rf	 12	 0.165000	 0.000000	 unflanked_rf_freq_12_amplitude_0.165_rep_4_b_H.png	 H	 b	 b	 n.a.	 2.493912e-01
8	 4	 149	 unflanked	 rf	 12	 0.113300	 0.000000	 unflanked_rf_freq_12_amplitude_0.1133_rep_0_l_K.png	 K	 l	 l	 n.a.	 2.285919e-01
8	 4	 150	 unflanked	 rf	 12	 0.268300	 0.000000	 unflanked_rf_freq_12_amplitude_0.2683_rep_6_l_K.png	 K	 l	 l	 n.a.	 1.709616e-01
8	 4	 151	 unflanked	 rf	 5	 0.216700	 0.000000	 unflanked_rf_freq_5_amplitude_0.2167_rep_4_t_D.png	 D	 t	 t	 n.a.	 2.826772e-01
8	 4	 152	 unflanked	 rf	 5	 0.268300	 0.000000	 unflanked_rf_freq_5_amplitude_0.2683_rep_7_t_K.png	 K	 t	 t	 n.a.	 3.753284e-01
8	 4	 153	 unflanked	 rf	 5	 0.007500	 0.000000	 unflanked_rf_freq_5_amplitude_0.0075_rep_0_b_N.png	 N	 b	 l	 n.a.	 5.289883e-01
8	 4	 154	 unflanked	 rf	 8	 0.113300	 0.000000	 unflanked_rf_freq_8_amplitude_0.1133_rep_6_l_N.png	 N	 l	 t	 n.a.	 3.213814e-01
8	 4	 155	 unflanked	 rf	 3	 0.061700	 0.000000	 unflanked_rf_freq_3_amplitude_0.0617_rep_5_b_H.png	 H	 b	 b	 n.a.	 3.798409e-01
8	 4	 156	 unflanked	 rf	 5	 0.165000	 0.000000	 unflanked_rf_freq_5_amplitude_0.165_rep_0_t_D.png	 D	 t	 t	 n.a.	 3.497005e-01
8	 4	 157	 unflanked	 rf	 2	 0.165000	 0.000000	 unflanked_rf_freq_2_amplitude_0.165_rep_3_b_H.png	 H	 b	 b	 n.a.	 3.705143e-01
8	 4	 158	 unflanked	 rf	 4	 0.061700	 0.000000	 unflanked_rf_freq_4_amplitude_0.0617_rep_1_l_H.png	 H	 l	 r	 n.a.	 5.420256e-01
8	 4	 159	 unflanked	 rf	 8	 0.165000	 0.000000	 unflanked_rf_freq_8_amplitude_0.165_rep_9_b_D.png	 D	 b	 b	 n.a.	 3.803416e-01
8	 4	 160	 unflanked	 rf	 12	 0.061700	 0.000000	 unflanked_rf_freq_12_amplitude_0.0617_rep_0_r_N.png	 N	 r	 r	 n.a.	 2.140094e-01
8	 4	 161	 unflanked	 rf	 8	 0.007500	 0.000000	 unflanked_rf_freq_8_amplitude_0.0075_rep_2_r_N.png	 N	 r	 t	 n.a.	 3.581306e-01
8	 4	 162	 unflanked	 rf	 5	 0.165000	 0.000000	 unflanked_rf_freq_5_amplitude_0.165_rep_4_l_N.png	 N	 l	 l	 n.a.	 2.834051e-01
8	 4	 163	 unflanked	 rf	 2	 0.010000	 0.000000	 unflanked_rf_freq_2_amplitude_0.01_rep_3_t_N.png	 N	 t	 b	 n.a.	 4.907102e-01
8	 4	 164	 unflanked	 rf	 8	 0.010000	 0.000000	 unflanked_rf_freq_8_amplitude_0.01_rep_2_r_N.png	 N	 r	 t	 n.a.	 3.373330e-01
8	 4	 165	 unflanked	 rf	 2	 0.216700	 0.000000	 unflanked_rf_freq_2_amplitude_0.2167_rep_5_r_H.png	 H	 r	 r	 n.a.	 2.942557e-01
8	 4	 166	 unflanked	 rf	 4	 0.010000	 0.000000	 unflanked_rf_freq_4_amplitude_0.01_rep_8_t_N.png	 N	 t	 r	 n.a.	 3.224279e-01
8	 4	 167	 unflanked	 rf	 5	 0.268300	 0.000000	 unflanked_rf_freq_5_amplitude_0.2683_rep_1_l_N.png	 N	 l	 l	 n.a.	 2.263119e-01
8	 4	 168	 unflanked	 rf	 4	 0.268300	 0.000000	 unflanked_rf_freq_4_amplitude_0.2683_rep_1_l_N.png	 N	 l	 l	 n.a.	 2.462009e-01
8	 4	 169	 unflanked	 rf	 12	 0.165000	 0.000000	 unflanked_rf_freq_12_amplitude_0.165_rep_8_t_N.png	 N	 t	 t	 n.a.	 2.318026e-01
8	 4	 170	 unflanked	 rf	 5	 0.268300	 0.000000	 unflanked_rf_freq_5_amplitude_0.2683_rep_0_r_N.png	 N	 r	 r	 n.a.	 2.053129e-01
8	 4	 171	 unflanked	 rf	 4	 0.165000	 0.000000	 unflanked_rf_freq_4_amplitude_0.165_rep_2_t_K.png	 K	 t	 t	 n.a.	 2.620035e-01
8	 4	 172	 unflanked	 rf	 2	 0.268300	 0.000000	 unflanked_rf_freq_2_amplitude_0.2683_rep_8_r_H.png	 H	 r	 r	 n.a.	 2.615561e-01
8	 4	 173	 unflanked	 rf	 3	 0.165000	 0.000000	 unflanked_rf_freq_3_amplitude_0.165_rep_4_r_N.png	 N	 r	 r	 n.a.	 3.123916e-01
8	 4	 174	 unflanked	 rf	 3	 0.268300	 0.000000	 unflanked_rf_freq_3_amplitude_0.2683_rep_8_r_H.png	 H	 r	 r	 n.a.	 2.164001e-01
8	 4	 175	 unflanked	 rf	 12	 0.010000	 0.000000	 unflanked_rf_freq_12_amplitude_0.01_rep_6_r_K.png	 K	 r	 t	 n.a.	 6.436723e-01
8	 4	 176	 unflanked	 rf	 3	 0.007500	 0.000000	 unflanked_rf_freq_3_amplitude_0.0075_rep_5_t_N.png	 N	 t	 b	 n.a.	 5.255345e-01
8	 4	 177	 unflanked	 rf	 8	 0.010000	 0.000000	 unflanked_rf_freq_8_amplitude_0.01_rep_5_r_H.png	 H	 r	 t	 n.a.	 2.430077e-01
8	 4	 178	 unflanked	 rf	 2	 0.113300	 0.000000	 unflanked_rf_freq_2_amplitude_0.1133_rep_7_t_D.png	 D	 t	 r	 n.a.	 2.843157e-01
8	 4	 179	 unflanked	 rf	 12	 0.268300	 0.000000	 unflanked_rf_freq_12_amplitude_0.2683_rep_8_r_D.png	 D	 r	 r	 n.a.	 2.220923e-01
8	 4	 180	 unflanked	 rf	 4	 0.010000	 0.000000	 unflanked_rf_freq_4_amplitude_0.01_rep_1_r_D.png	 D	 r	 t	 n.a.	 3.350514e-01
8	 4	 181	 unflanked	 rf	 2	 0.216700	 0.000000	 unflanked_rf_freq_2_amplitude_0.2167_rep_7_t_H.png	 H	 t	 t	 n.a.	 4.339319e-01
8	 4	 182	 unflanked	 rf	 8	 0.113300	 0.000000	 unflanked_rf_freq_8_amplitude_0.1133_rep_9_r_H.png	 H	 r	 r	 n.a.	 2.421659e-01
8	 4	 183	 unflanked	 rf	 8	 0.268300	 0.000000	 unflanked_rf_freq_8_amplitude_0.2683_rep_7_r_H.png	 H	 r	 r	 n.a.	 2.444307e-01
8	 4	 184	 unflanked	 rf	 4	 0.007500	 0.000000	 unflanked_rf_freq_4_amplitude_0.0075_rep_3_b_K.png	 K	 b	 b	 n.a.	 4.570376e-01
8	 4	 185	 unflanked	 rf	 2	 0.061700	 0.000000	 unflanked_rf_freq_2_amplitude_0.0617_rep_5_r_N.png	 N	 r	 l	 n.a.	 7.817798e-01
8	 4	 186	 unflanked	 rf	 12	 0.007500	 0.000000	 unflanked_rf_freq_12_amplitude_0.0075_rep_0_t_K.png	 K	 t	 t	 n.a.	 3.634347e-01
8	 4	 187	 unflanked	 rf	 5	 0.010000	 0.000000	 unflanked_rf_freq_5_amplitude_0.01_rep_4_r_K.png	 K	 r	 b	 n.a.	 5.342384e-01
8	 4	 188	 unflanked	 rf	 3	 0.216700	 0.000000	 unflanked_rf_freq_3_amplitude_0.2167_rep_5_b_D.png	 D	 b	 b	 n.a.	 3.692060e-01
8	 4	 189	 unflanked	 rf	 5	 0.010000	 0.000000	 unflanked_rf_freq_5_amplitude_0.01_rep_7_l_N.png	 N	 l	 b	 n.a.	 4.921426e-01
8	 4	 190	 unflanked	 rf	 4	 0.061700	 0.000000	 unflanked_rf_freq_4_amplitude_0.0617_rep_9_b_D.png	 D	 b	 b	 n.a.	 3.620598e-01
8	 4	 191	 unflanked	 rf	 12	 0.113300	 0.000000	 unflanked_rf_freq_12_amplitude_0.1133_rep_6_b_D.png	 D	 b	 b	 n.a.	 3.868803e-01
8	 4	 192	 unflanked	 rf	 2	 0.268300	 0.000000	 unflanked_rf_freq_2_amplitude_0.2683_rep_3_r_H.png	 H	 r	 r	 n.a.	 3.172563e-01
8	 4	 193	 unflanked	 rf	 4	 0.216700	 0.000000	 unflanked_rf_freq_4_amplitude_0.2167_rep_0_b_N.png	 N	 b	 b	 n.a.	 2.679135e-01
8	 4	 194	 unflanked	 rf	 4	 0.165000	 0.000000	 unflanked_rf_freq_4_amplitude_0.165_rep_3_b_D.png	 D	 b	 b	 n.a.	 2.339948e-01
8	 4	 195	 unflanked	 rf	 12	 0.216700	 0.000000	 unflanked_rf_freq_12_amplitude_0.2167_rep_8_b_N.png	 N	 b	 b	 n.a.	 2.103292e-01
8	 4	 196	 unflanked	 rf	 8	 0.007500	 0.000000	 unflanked_rf_freq_8_amplitude_0.0075_rep_1_t_K.png	 K	 t	 t	 n.a.	 3.612381e-01
8	 4	 197	 unflanked	 rf	 4	 0.061700	 0.000000	 unflanked_rf_freq_4_amplitude_0.0617_rep_6_b_N.png	 N	 b	 b	 n.a.	 3.205604e-01
8	 4	 198	 unflanked	 rf	 2	 0.007500	 0.000000	 unflanked_rf_freq_2_amplitude_0.0075_rep_7_r_H.png	 H	 r	 r	 n.a.	 3.562940e-01
8	 4	 199	 unflanked	 rf	 5	 0.268300	 0.000000	 unflanked_rf_freq_5_amplitude_0.2683_rep_8_b_N.png	 N	 b	 b	 n.a.	 2.693110e-01
8	 4	 200	 unflanked	 rf	 2	 0.216700	 0.000000	 unflanked_rf_freq_2_amplitude_0.2167_rep_8_t_D.png	 D	 t	 r	 n.a.	 4.381362e-01
8	 4	 201	 unflanked	 rf	 12	 0.010000	 0.000000	 unflanked_rf_freq_12_amplitude_0.01_rep_1_r_D.png	 D	 r	 b	 n.a.	 2.512352e-01
8	 4	 202	 unflanked	 rf	 5	 0.216700	 0.000000	 unflanked_rf_freq_5_amplitude_0.2167_rep_1_r_N.png	 N	 r	 r	 n.a.	 2.329852e-01
8	 4	 203	 unflanked	 rf	 4	 0.007500	 0.000000	 unflanked_rf_freq_4_amplitude_0.0075_rep_6_t_H.png	 H	 t	 t	 n.a.	 3.268757e-01
8	 4	 204	 unflanked	 rf	 5	 0.113300	 0.000000	 unflanked_rf_freq_5_amplitude_0.1133_rep_8_r_K.png	 K	 r	 r	 n.a.	 2.827742e-01
8	 4	 205	 unflanked	 rf	 2	 0.061700	 0.000000	 unflanked_rf_freq_2_amplitude_0.0617_rep_3_b_N.png	 N	 b	 b	 n.a.	 4.011687e-01
8	 4	 206	 unflanked	 rf	 3	 0.165000	 0.000000	 unflanked_rf_freq_3_amplitude_0.165_rep_5_b_D.png	 D	 b	 b	 n.a.	 3.002020e-01
8	 4	 207	 unflanked	 rf	 12	 0.061700	 0.000000	 unflanked_rf_freq_12_amplitude_0.0617_rep_6_b_N.png	 N	 b	 r	 n.a.	 3.226935e-01
8	 4	 208	 unflanked	 rf	 8	 0.165000	 0.000000	 unflanked_rf_freq_8_amplitude_0.165_rep_2_r_D.png	 D	 r	 r	 n.a.	 1.969780e-01
8	 4	 209	 unflanked	 rf	 4	 0.268300	 0.000000	 unflanked_rf_freq_4_amplitude_0.2683_rep_0_r_K.png	 K	 r	 r	 n.a.	 2.747817e-01
8	 4	 210	 unflanked	 rf	 3	 0.165000	 0.000000	 unflanked_rf_freq_3_amplitude_0.165_rep_6_b_N.png	 N	 b	 b	 n.a.	 2.859729e-01
8	 4	 211	 unflanked	 rf	 8	 0.007500	 0.000000	 unflanked_rf_freq_8_amplitude_0.0075_rep_9_r_D.png	 D	 r	 r	 n.a.	 3.653848e-01
8	 4	 212	 unflanked	 rf	 3	 0.216700	 0.000000	 unflanked_rf_freq_3_amplitude_0.2167_rep_0_r_D.png	 D	 r	 t	 n.a.	 2.198089e-01
8	 4	 213	 unflanked	 rf	 2	 0.113300	 0.000000	 unflanked_rf_freq_2_amplitude_0.1133_rep_6_l_N.png	 N	 l	 l	 n.a.	 3.666462e-01
8	 4	 214	 unflanked	 rf	 3	 0.007500	 0.000000	 unflanked_rf_freq_3_amplitude_0.0075_rep_1_t_D.png	 D	 t	 t	 n.a.	 4.108964e-01
8	 4	 215	 unflanked	 rf	 4	 0.113300	 0.000000	 unflanked_rf_freq_4_amplitude_0.1133_rep_0_t_K.png	 K	 t	 r	 n.a.	 4.444435e-01
8	 4	 216	 unflanked	 rf	 3	 0.216700	 0.000000	 unflanked_rf_freq_3_amplitude_0.2167_rep_3_r_K.png	 K	 r	 r	 n.a.	 2.659184e-01
8	 4	 217	 unflanked	 rf	 12	 0.165000	 0.000000	 unflanked_rf_freq_12_amplitude_0.165_rep_2_r_H.png	 H	 r	 r	 n.a.	 2.182412e-01
8	 4	 218	 unflanked	 rf	 8	 0.216700	 0.000000	 unflanked_rf_freq_8_amplitude_0.2167_rep_7_l_N.png	 N	 l	 l	 n.a.	 2.793478e-01
8	 4	 219	 unflanked	 rf	 2	 0.010000	 0.000000	 unflanked_rf_freq_2_amplitude_0.01_rep_2_r_D.png	 D	 r	 b	 n.a.	 2.558455e-01
8	 4	 220	 unflanked	 rf	 3	 0.113300	 0.000000	 unflanked_rf_freq_3_amplitude_0.1133_rep_4_l_D.png	 D	 l	 l	 n.a.	 3.066894e-01
8	 4	 221	 unflanked	 rf	 4	 0.165000	 0.000000	 unflanked_rf_freq_4_amplitude_0.165_rep_8_l_K.png	 K	 l	 l	 n.a.	 2.238143e-01
8	 4	 222	 unflanked	 rf	 3	 0.007500	 0.000000	 unflanked_rf_freq_3_amplitude_0.0075_rep_0_l_D.png	 D	 l	 t	 n.a.	 3.602959e-01
8	 4	 223	 unflanked	 rf	 2	 0.010000	 0.000000	 unflanked_rf_freq_2_amplitude_0.01_rep_8_b_H.png	 H	 b	 l	 n.a.	 3.119516e-01
8	 4	 224	 unflanked	 rf	 2	 0.216700	 0.000000	 unflanked_rf_freq_2_amplitude_0.2167_rep_1_l_D.png	 D	 l	 l	 n.a.	 3.065745e-01
8	 4	 225	 unflanked	 rf	 5	 0.268300	 0.000000	 unflanked_rf_freq_5_amplitude_0.2683_rep_9_l_K.png	 K	 l	 l	 n.a.	 2.449843e-01
8	 4	 226	 unflanked	 rf	 12	 0.268300	 0.000000	 unflanked_rf_freq_12_amplitude_0.2683_rep_9_l_K.png	 K	 l	 l	 n.a.	 2.415957e-01
8	 4	 227	 unflanked	 rf	 4	 0.061700	 0.000000	 unflanked_rf_freq_4_amplitude_0.0617_rep_3_b_D.png	 D	 b	 b	 n.a.	 4.788550e-01
8	 4	 228	 unflanked	 rf	 2	 0.268300	 0.000000	 unflanked_rf_freq_2_amplitude_0.2683_rep_2_t_H.png	 H	 t	 t	 n.a.	 3.130537e-01
8	 4	 229	 unflanked	 rf	 5	 0.010000	 0.000000	 unflanked_rf_freq_5_amplitude_0.01_rep_0_r_N.png	 N	 r	 l	 n.a.	 3.149209e-01
8	 4	 230	 unflanked	 rf	 2	 0.061700	 0.000000	 unflanked_rf_freq_2_amplitude_0.0617_rep_0_r_H.png	 H	 r	 r	 n.a.	 3.290088e-01
8	 4	 231	 unflanked	 rf	 2	 0.268300	 0.000000	 unflanked_rf_freq_2_amplitude_0.2683_rep_5_l_K.png	 K	 l	 l	 n.a.	 2.359376e-01
8	 4	 232	 unflanked	 rf	 8	 0.061700	 0.000000	 unflanked_rf_freq_8_amplitude_0.0617_rep_1_l_H.png	 H	 l	 l	 n.a.	 2.955091e-01
8	 4	 233	 unflanked	 rf	 8	 0.010000	 0.000000	 unflanked_rf_freq_8_amplitude_0.01_rep_8_b_D.png	 D	 b	 t	 n.a.	 3.498045e-01
8	 4	 234	 unflanked	 rf	 12	 0.010000	 0.000000	 unflanked_rf_freq_12_amplitude_0.01_rep_7_l_K.png	 K	 l	 r	 n.a.	 2.276794e-01
8	 4	 235	 unflanked	 rf	 5	 0.007500	 0.000000	 unflanked_rf_freq_5_amplitude_0.0075_rep_7_l_N.png	 N	 l	 r	 n.a.	 3.147445e-01
8	 4	 236	 unflanked	 rf	 4	 0.165000	 0.000000	 unflanked_rf_freq_4_amplitude_0.165_rep_4_l_N.png	 N	 l	 l	 n.a.	 1.645592e-01
8	 4	 237	 unflanked	 rf	 5	 0.165000	 0.000000	 unflanked_rf_freq_5_amplitude_0.165_rep_1_b_N.png	 N	 b	 b	 n.a.	 2.367837e-01
8	 4	 238	 unflanked	 rf	 5	 0.007500	 0.000000	 unflanked_rf_freq_5_amplitude_0.0075_rep_8_r_K.png	 K	 r	 t	 n.a.	 4.531652e-01
8	 4	 239	 unflanked	 rf	 3	 0.007500	 0.000000	 unflanked_rf_freq_3_amplitude_0.0075_rep_4_l_K.png	 K	 l	 l	 n.a.	 2.555253e-01
8	 4	 240	 unflanked	 rf	 2	 0.007500	 0.000000	 unflanked_rf_freq_2_amplitude_0.0075_rep_5_b_K.png	 K	 b	 t	 n.a.	 3.994343e-01
8	 4	 241	 unflanked	 rf	 3	 0.061700	 0.000000	 unflanked_rf_freq_3_amplitude_0.0617_rep_2_r_N.png	 N	 r	 l	 n.a.	 2.556227e-01
8	 4	 242	 unflanked	 rf	 12	 0.216700	 0.000000	 unflanked_rf_freq_12_amplitude_0.2167_rep_3_r_N.png	 N	 r	 r	 n.a.	 1.827694e-01
8	 4	 243	 unflanked	 rf	 8	 0.113300	 0.000000	 unflanked_rf_freq_8_amplitude_0.1133_rep_3_r_H.png	 H	 r	 r	 n.a.	 2.161560e-01
8	 4	 244	 unflanked	 rf	 5	 0.061700	 0.000000	 unflanked_rf_freq_5_amplitude_0.0617_rep_3_r_K.png	 K	 r	 r	 n.a.	 3.737665e-01
8	 4	 245	 unflanked	 rf	 5	 0.165000	 0.000000	 unflanked_rf_freq_5_amplitude_0.165_rep_2_r_D.png	 D	 r	 r	 n.a.	 2.835002e-01
8	 4	 246	 unflanked	 rf	 3	 0.216700	 0.000000	 unflanked_rf_freq_3_amplitude_0.2167_rep_8_l_K.png	 K	 l	 l	 n.a.	 2.500883e-01
8	 4	 247	 unflanked	 rf	 5	 0.010000	 0.000000	 unflanked_rf_freq_5_amplitude_0.01_rep_3_t_K.png	 K	 t	 t	 n.a.	 4.095629e-01
8	 4	 248	 unflanked	 rf	 5	 0.216700	 0.000000	 unflanked_rf_freq_5_amplitude_0.2167_rep_2_l_N.png	 N	 l	 l	 n.a.	 2.429357e-01
8	 4	 249	 unflanked	 rf	 2	 0.010000	 0.000000	 unflanked_rf_freq_2_amplitude_0.01_rep_6_t_H.png	 H	 t	 t	 n.a.	 3.977171e-01
8	 4	 250	 unflanked	 rf	 4	 0.010000	 0.000000	 unflanked_rf_freq_4_amplitude_0.01_rep_3_t_D.png	 D	 t	 b	 n.a.	 4.581795e-01
8	 4	 251	 unflanked	 rf	 4	 0.268300	 0.000000	 unflanked_rf_freq_4_amplitude_0.2683_rep_6_b_H.png	 H	 b	 b	 n.a.	 3.717334e-01
8	 4	 252	 unflanked	 rf	 8	 0.113300	 0.000000	 unflanked_rf_freq_8_amplitude_0.1133_rep_1_t_H.png	 H	 t	 t	 n.a.	 2.775687e-01
8	 4	 253	 unflanked	 rf	 12	 0.216700	 0.000000	 unflanked_rf_freq_12_amplitude_0.2167_rep_1_l_D.png	 D	 l	 l	 n.a.	 2.073261e-01
8	 4	 254	 unflanked	 rf	 4	 0.216700	 0.000000	 unflanked_rf_freq_4_amplitude_0.2167_rep_1_r_D.png	 D	 r	 r	 n.a.	 1.889508e-01
8	 4	 255	 unflanked	 rf	 8	 0.216700	 0.000000	 unflanked_rf_freq_8_amplitude_0.2167_rep_3_l_D.png	 D	 l	 l	 n.a.	 2.130499e-01
8	 4	 256	 unflanked	 rf	 4	 0.010000	 0.000000	 unflanked_rf_freq_4_amplitude_0.01_rep_2_l_K.png	 K	 l	 t	 n.a.	 3.377257e-01
8	 4	 257	 unflanked	 rf	 4	 0.216700	 0.000000	 unflanked_rf_freq_4_amplitude_0.2167_rep_9_l_N.png	 N	 l	 l	 n.a.	 2.933292e-01
8	 4	 258	 unflanked	 rf	 8	 0.268300	 0.000000	 unflanked_rf_freq_8_amplitude_0.2683_rep_2_l_K.png	 K	 l	 l	 n.a.	 2.431423e-01
8	 4	 259	 unflanked	 rf	 2	 0.216700	 0.000000	 unflanked_rf_freq_2_amplitude_0.2167_rep_3_r_D.png	 D	 r	 r	 n.a.	 2.349292e-01
8	 4	 260	 unflanked	 rf	 12	 0.007500	 0.000000	 unflanked_rf_freq_12_amplitude_0.0075_rep_3_l_N.png	 N	 l	 b	 n.a.	 3.481622e-01
8	 4	 261	 unflanked	 rf	 12	 0.165000	 0.000000	 unflanked_rf_freq_12_amplitude_0.165_rep_9_l_K.png	 K	 l	 l	 n.a.	 1.716043e-01
8	 4	 262	 unflanked	 rf	 8	 0.165000	 0.000000	 unflanked_rf_freq_8_amplitude_0.165_rep_0_r_N.png	 N	 r	 r	 n.a.	 2.081324e-01
8	 4	 263	 unflanked	 rf	 4	 0.216700	 0.000000	 unflanked_rf_freq_4_amplitude_0.2167_rep_3_l_H.png	 H	 l	 l	 n.a.	 1.846818e-01
8	 4	 264	 unflanked	 rf	 2	 0.165000	 0.000000	 unflanked_rf_freq_2_amplitude_0.165_rep_7_r_K.png	 K	 r	 r	 n.a.	 2.593414e-01
8	 4	 265	 unflanked	 rf	 8	 0.165000	 0.000000	 unflanked_rf_freq_8_amplitude_0.165_rep_5_l_N.png	 N	 l	 l	 n.a.	 2.544703e-01
8	 4	 266	 unflanked	 rf	 5	 0.113300	 0.000000	 unflanked_rf_freq_5_amplitude_0.1133_rep_3_t_K.png	 K	 t	 t	 n.a.	 3.124087e-01
8	 4	 267	 unflanked	 rf	 8	 0.216700	 0.000000	 unflanked_rf_freq_8_amplitude_0.2167_rep_6_r_K.png	 K	 r	 r	 n.a.	 2.531678e-01
8	 4	 268	 unflanked	 rf	 4	 0.113300	 0.000000	 unflanked_rf_freq_4_amplitude_0.1133_rep_9_l_D.png	 D	 l	 l	 n.a.	 3.292815e-01
8	 4	 269	 unflanked	 rf	 4	 0.165000	 0.000000	 unflanked_rf_freq_4_amplitude_0.165_rep_6_b_D.png	 D	 b	 b	 n.a.	 3.111806e-01
8	 4	 270	 unflanked	 rf	 3	 0.007500	 0.000000	 unflanked_rf_freq_3_amplitude_0.0075_rep_7_t_H.png	 H	 t	 t	 n.a.	 4.977150e-01
8	 4	 271	 unflanked	 rf	 8	 0.007500	 0.000000	 unflanked_rf_freq_8_amplitude_0.0075_rep_5_b_N.png	 N	 b	 t	 n.a.	 3.419164e-01
8	 4	 272	 unflanked	 rf	 3	 0.268300	 0.000000	 unflanked_rf_freq_3_amplitude_0.2683_rep_9_l_H.png	 H	 l	 l	 n.a.	 2.498251e-01
8	 4	 273	 unflanked	 rf	 8	 0.007500	 0.000000	 unflanked_rf_freq_8_amplitude_0.0075_rep_7_b_D.png	 D	 b	 r	 n.a.	 3.778108e-01
8	 4	 274	 unflanked	 rf	 12	 0.216700	 0.000000	 unflanked_rf_freq_12_amplitude_0.2167_rep_2_t_N.png	 N	 t	 t	 n.a.	 2.483787e-01
8	 4	 275	 unflanked	 rf	 3	 0.165000	 0.000000	 unflanked_rf_freq_3_amplitude_0.165_rep_8_t_H.png	 H	 t	 t	 n.a.	 3.760121e-01
8	 4	 276	 unflanked	 rf	 12	 0.165000	 0.000000	 unflanked_rf_freq_12_amplitude_0.165_rep_7_b_K.png	 K	 b	 b	 n.a.	 2.412979e-01
8	 4	 277	 unflanked	 rf	 4	 0.113300	 0.000000	 unflanked_rf_freq_4_amplitude_0.1133_rep_8_l_H.png	 H	 l	 l	 n.a.	 3.166546e-01
8	 4	 278	 unflanked	 rf	 3	 0.216700	 0.000000	 unflanked_rf_freq_3_amplitude_0.2167_rep_6_l_D.png	 D	 l	 l	 n.a.	 2.962166e-01
8	 4	 279	 unflanked	 rf	 12	 0.007500	 0.000000	 unflanked_rf_freq_12_amplitude_0.0075_rep_9_l_D.png	 D	 l	 b	 n.a.	 2.574464e-01
8	 4	 280	 unflanked	 rf	 2	 0.007500	 0.000000	 unflanked_rf_freq_2_amplitude_0.0075_rep_0_t_N.png	 N	 t	 r	 n.a.	 3.418479e-01
8	 4	 281	 unflanked	 rf	 2	 0.216700	 0.000000	 unflanked_rf_freq_2_amplitude_0.2167_rep_0_b_N.png	 N	 b	 b	 n.a.	 6.196013e-01
8	 4	 282	 unflanked	 rf	 12	 0.113300	 0.000000	 unflanked_rf_freq_12_amplitude_0.1133_rep_2_b_D.png	 D	 b	 b	 n.a.	 2.309976e-01
8	 4	 283	 unflanked	 rf	 3	 0.010000	 0.000000	 unflanked_rf_freq_3_amplitude_0.01_rep_7_b_K.png	 K	 b	 b	 n.a.	 3.240914e-01
8	 4	 284	 unflanked	 rf	 12	 0.010000	 0.000000	 unflanked_rf_freq_12_amplitude_0.01_rep_5_t_H.png	 H	 t	 t	 n.a.	 5.439987e-01
8	 4	 285	 unflanked	 rf	 8	 0.113300	 0.000000	 unflanked_rf_freq_8_amplitude_0.1133_rep_4_b_N.png	 N	 b	 b	 n.a.	 3.021063e-01
8	 4	 286	 unflanked	 rf	 5	 0.216700	 0.000000	 unflanked_rf_freq_5_amplitude_0.2167_rep_3_b_N.png	 N	 b	 b	 n.a.	 2.563946e-01
8	 4	 287	 unflanked	 rf	 2	 0.165000	 0.000000	 unflanked_rf_freq_2_amplitude_0.165_rep_8_r_K.png	 K	 r	 r	 n.a.	 3.971328e-01
8	 4	 288	 unflanked	 rf	 3	 0.010000	 0.000000	 unflanked_rf_freq_3_amplitude_0.01_rep_6_r_K.png	 K	 r	 t	 n.a.	 4.414969e-01
8	 4	 289	 unflanked	 rf	 2	 0.007500	 0.000000	 unflanked_rf_freq_2_amplitude_0.0075_rep_4_b_H.png	 H	 b	 b	 n.a.	 3.237123e-01
8	 4	 290	 unflanked	 rf	 5	 0.061700	 0.000000	 unflanked_rf_freq_5_amplitude_0.0617_rep_7_l_D.png	 D	 l	 l	 n.a.	 3.137654e-01
8	 4	 291	 unflanked	 rf	 4	 0.007500	 0.000000	 unflanked_rf_freq_4_amplitude_0.0075_rep_4_b_K.png	 K	 b	 b	 n.a.	 3.536689e-01
8	 4	 292	 unflanked	 rf	 2	 0.165000	 0.000000	 unflanked_rf_freq_2_amplitude_0.165_rep_1_r_H.png	 H	 r	 r	 n.a.	 3.125133e-01
8	 4	 293	 unflanked	 rf	 4	 0.165000	 0.000000	 unflanked_rf_freq_4_amplitude_0.165_rep_9_t_N.png	 N	 t	 r	 n.a.	 2.779003e-01
8	 4	 294	 unflanked	 rf	 4	 0.007500	 0.000000	 unflanked_rf_freq_4_amplitude_0.0075_rep_2_r_N.png	 N	 r	 b	 n.a.	 4.852102e-01
8	 4	 295	 unflanked	 rf	 5	 0.165000	 0.000000	 unflanked_rf_freq_5_amplitude_0.165_rep_3_b_N.png	 N	 b	 t	 n.a.	 2.532253e-01
8	 4	 296	 unflanked	 rf	 3	 0.165000	 0.000000	 unflanked_rf_freq_3_amplitude_0.165_rep_2_l_D.png	 D	 l	 l	 n.a.	 4.364259e-01
8	 4	 297	 unflanked	 rf	 12	 0.061700	 0.000000	 unflanked_rf_freq_12_amplitude_0.0617_rep_9_b_K.png	 K	 b	 b	 n.a.	 3.390020e-01
8	 4	 298	 unflanked	 rf	 2	 0.010000	 0.000000	 unflanked_rf_freq_2_amplitude_0.01_rep_5_l_H.png	 H	 l	 t	 n.a.	 3.477679e-01
8	 4	 299	 unflanked	 rf	 8	 0.061700	 0.000000	 unflanked_rf_freq_8_amplitude_0.0617_rep_4_r_N.png	 N	 r	 b	 n.a.	 2.756437e-01
8	 4	 300	 unflanked	 rf	 12	 0.010000	 0.000000	 unflanked_rf_freq_12_amplitude_0.01_rep_4_t_D.png	 D	 t	 r	 n.a.	 3.780729e-01
8	 4	 301	 unflanked	 rf	 5	 0.216700	 0.000000	 unflanked_rf_freq_5_amplitude_0.2167_rep_5_t_N.png	 N	 t	 t	 n.a.	 2.523292e-01
8	 4	 302	 unflanked	 rf	 3	 0.165000	 0.000000	 unflanked_rf_freq_3_amplitude_0.165_rep_1_b_H.png	 H	 b	 b	 n.a.	 2.800950e-01
8	 4	 303	 unflanked	 rf	 4	 0.010000	 0.000000	 unflanked_rf_freq_4_amplitude_0.01_rep_7_r_K.png	 K	 r	 l	 n.a.	 4.832790e-01
8	 4	 304	 unflanked	 rf	 3	 0.010000	 0.000000	 unflanked_rf_freq_3_amplitude_0.01_rep_5_t_K.png	 K	 t	 t	 n.a.	 2.572297e-01
8	 4	 305	 unflanked	 rf	 8	 0.113300	 0.000000	 unflanked_rf_freq_8_amplitude_0.1133_rep_5_l_H.png	 H	 l	 r	 n.a.	 2.696595e-01
8	 4	 306	 unflanked	 rf	 3	 0.165000	 0.000000	 unflanked_rf_freq_3_amplitude_0.165_rep_0_b_H.png	 H	 b	 b	 n.a.	 2.391876e-01
8	 4	 307	 unflanked	 rf	 4	 0.061700	 0.000000	 unflanked_rf_freq_4_amplitude_0.0617_rep_4_b_H.png	 H	 b	 r	 n.a.	 3.967473e-01
8	 4	 308	 unflanked	 rf	 3	 0.113300	 0.000000	 unflanked_rf_freq_3_amplitude_0.1133_rep_5_t_H.png	 H	 t	 l	 n.a.	 5.293591e-01
8	 4	 309	 unflanked	 rf	 5	 0.268300	 0.000000	 unflanked_rf_freq_5_amplitude_0.2683_rep_3_r_K.png	 K	 r	 r	 n.a.	 2.240725e-01
8	 4	 310	 unflanked	 rf	 5	 0.165000	 0.000000	 unflanked_rf_freq_5_amplitude_0.165_rep_7_t_K.png	 K	 t	 t	 n.a.	 2.436346e-01
8	 4	 311	 unflanked	 rf	 2	 0.113300	 0.000000	 unflanked_rf_freq_2_amplitude_0.1133_rep_1_b_D.png	 D	 b	 b	 n.a.	 2.597278e-01
8	 4	 312	 unflanked	 rf	 2	 0.007500	 0.000000	 unflanked_rf_freq_2_amplitude_0.0075_rep_6_r_K.png	 K	 r	 b	 n.a.	 4.666508e-01
8	 4	 313	 unflanked	 rf	 8	 0.268300	 0.000000	 unflanked_rf_freq_8_amplitude_0.2683_rep_5_b_N.png	 N	 b	 b	 n.a.	 3.137441e-01
8	 4	 314	 unflanked	 rf	 12	 0.010000	 0.000000	 unflanked_rf_freq_12_amplitude_0.01_rep_2_r_N.png	 N	 r	 t	 n.a.	 3.900135e-01
8	 4	 315	 unflanked	 rf	 3	 0.007500	 0.000000	 unflanked_rf_freq_3_amplitude_0.0075_rep_2_r_N.png	 N	 r	 r	 n.a.	 3.204503e-01
8	 4	 316	 unflanked	 rf	 8	 0.113300	 0.000000	 unflanked_rf_freq_8_amplitude_0.1133_rep_0_r_H.png	 H	 r	 r	 n.a.	 2.460547e-01
8	 4	 317	 unflanked	 rf	 2	 0.007500	 0.000000	 unflanked_rf_freq_2_amplitude_0.0075_rep_2_l_H.png	 H	 l	 t	 n.a.	 3.118969e-01
8	 4	 318	 unflanked	 rf	 4	 0.113300	 0.000000	 unflanked_rf_freq_4_amplitude_0.1133_rep_5_t_K.png	 K	 t	 b	 n.a.	 3.161154e-01
8	 4	 319	 unflanked	 rf	 12	 0.268300	 0.000000	 unflanked_rf_freq_12_amplitude_0.2683_rep_0_b_K.png	 K	 b	 b	 n.a.	 3.009823e-01
8	 4	 320	 unflanked	 rf	 4	 0.268300	 0.000000	 unflanked_rf_freq_4_amplitude_0.2683_rep_7_l_D.png	 D	 l	 l	 n.a.	 2.618112e-01
8	 4	 321	 unflanked	 rf	 5	 0.061700	 0.000000	 unflanked_rf_freq_5_amplitude_0.0617_rep_9_r_H.png	 H	 r	 r	 n.a.	 3.056935e-01
8	 4	 322	 unflanked	 rf	 2	 0.010000	 0.000000	 unflanked_rf_freq_2_amplitude_0.01_rep_7_l_H.png	 H	 l	 t	 n.a.	 3.845672e-01
8	 4	 323	 unflanked	 rf	 2	 0.061700	 0.000000	 unflanked_rf_freq_2_amplitude_0.0617_rep_4_r_K.png	 K	 r	 b	 n.a.	 4.951328e-01
8	 4	 324	 unflanked	 rf	 4	 0.007500	 0.000000	 unflanked_rf_freq_4_amplitude_0.0075_rep_8_b_N.png	 N	 b	 r	 n.a.	 2.123556e-01
8	 4	 325	 unflanked	 rf	 4	 0.007500	 0.000000	 unflanked_rf_freq_4_amplitude_0.0075_rep_1_b_D.png	 D	 b	 l	 n.a.	 3.527672e-01
8	 4	 326	 unflanked	 rf	 12	 0.165000	 0.000000	 unflanked_rf_freq_12_amplitude_0.165_rep_5_t_N.png	 N	 t	 t	 n.a.	 2.187557e-01
8	 4	 327	 unflanked	 rf	 12	 0.216700	 0.000000	 unflanked_rf_freq_12_amplitude_0.2167_rep_7_l_K.png	 K	 l	 l	 n.a.	 2.644425e-01
8	 4	 328	 unflanked	 rf	 5	 0.007500	 0.000000	 unflanked_rf_freq_5_amplitude_0.0075_rep_2_r_D.png	 D	 r	 b	 n.a.	 4.584441e-01
8	 4	 329	 unflanked	 rf	 5	 0.165000	 0.000000	 unflanked_rf_freq_5_amplitude_0.165_rep_9_t_H.png	 H	 t	 t	 n.a.	 2.579501e-01
8	 4	 330	 unflanked	 rf	 5	 0.061700	 0.000000	 unflanked_rf_freq_5_amplitude_0.0617_rep_6_r_D.png	 D	 r	 r	 n.a.	 3.715071e-01
8	 4	 331	 unflanked	 rf	 2	 0.113300	 0.000000	 unflanked_rf_freq_2_amplitude_0.1133_rep_5_l_N.png	 N	 l	 b	 n.a.	 3.068981e-01
8	 4	 332	 unflanked	 rf	 3	 0.165000	 0.000000	 unflanked_rf_freq_3_amplitude_0.165_rep_9_l_N.png	 N	 l	 l	 n.a.	 2.454729e-01
8	 4	 333	 unflanked	 rf	 5	 0.010000	 0.000000	 unflanked_rf_freq_5_amplitude_0.01_rep_2_b_K.png	 K	 b	 t	 n.a.	 3.503835e-01
8	 4	 334	 unflanked	 rf	 5	 0.061700	 0.000000	 unflanked_rf_freq_5_amplitude_0.0617_rep_5_t_D.png	 D	 t	 t	 n.a.	 5.750494e-01
8	 4	 335	 unflanked	 rf	 8	 0.268300	 0.000000	 unflanked_rf_freq_8_amplitude_0.2683_rep_9_t_K.png	 K	 t	 t	 n.a.	 3.166580e-01
8	 4	 336	 unflanked	 rf	 2	 0.010000	 0.000000	 unflanked_rf_freq_2_amplitude_0.01_rep_9_t_N.png	 N	 t	 b	 n.a.	 3.965890e-01
8	 4	 337	 unflanked	 rf	 12	 0.268300	 0.000000	 unflanked_rf_freq_12_amplitude_0.2683_rep_3_l_K.png	 K	 l	 l	 n.a.	 1.919049e-01
8	 4	 338	 unflanked	 rf	 3	 0.061700	 0.000000	 unflanked_rf_freq_3_amplitude_0.0617_rep_6_t_D.png	 D	 t	 r	 n.a.	 2.805932e-01
8	 4	 339	 unflanked	 rf	 4	 0.113300	 0.000000	 unflanked_rf_freq_4_amplitude_0.1133_rep_4_b_D.png	 D	 b	 t	 n.a.	 3.309093e-01
8	 4	 340	 unflanked	 rf	 2	 0.113300	 0.000000	 unflanked_rf_freq_2_amplitude_0.1133_rep_8_l_N.png	 N	 l	 t	 n.a.	 6.052932e-01
8	 4	 341	 unflanked	 rf	 5	 0.061700	 0.000000	 unflanked_rf_freq_5_amplitude_0.0617_rep_4_r_H.png	 H	 r	 r	 n.a.	 3.122397e-01
8	 4	 342	 unflanked	 rf	 8	 0.216700	 0.000000	 unflanked_rf_freq_8_amplitude_0.2167_rep_5_t_N.png	 N	 t	 t	 n.a.	 2.842787e-01
8	 4	 343	 unflanked	 rf	 2	 0.061700	 0.000000	 unflanked_rf_freq_2_amplitude_0.0617_rep_6_l_D.png	 D	 l	 t	 n.a.	 4.993882e-01
8	 4	 344	 unflanked	 rf	 4	 0.010000	 0.000000	 unflanked_rf_freq_4_amplitude_0.01_rep_9_t_K.png	 K	 t	 t	 n.a.	 2.479550e-01
8	 4	 345	 unflanked	 rf	 2	 0.007500	 0.000000	 unflanked_rf_freq_2_amplitude_0.0075_rep_3_r_N.png	 N	 r	 r	 n.a.	 7.393360e-01
8	 4	 346	 unflanked	 rf	 2	 0.113300	 0.000000	 unflanked_rf_freq_2_amplitude_0.1133_rep_2_r_D.png	 D	 r	 r	 n.a.	 6.115204e-01
8	 4	 347	 unflanked	 rf	 4	 0.007500	 0.000000	 unflanked_rf_freq_4_amplitude_0.0075_rep_0_b_H.png	 H	 b	 r	 n.a.	 6.028132e-01
8	 4	 348	 unflanked	 rf	 2	 0.165000	 0.000000	 unflanked_rf_freq_2_amplitude_0.165_rep_5_r_K.png	 K	 r	 t	 n.a.	 4.554447e-01
8	 4	 349	 unflanked	 rf	 12	 0.061700	 0.000000	 unflanked_rf_freq_12_amplitude_0.0617_rep_7_b_D.png	 D	 b	 t	 n.a.	 3.620002e-01
8	 4	 350	 unflanked	 rf	 12	 0.165000	 0.000000	 unflanked_rf_freq_12_amplitude_0.165_rep_6_b_K.png	 K	 b	 b	 n.a.	 2.535867e-01
8	 4	 351	 unflanked	 rf	 3	 0.113300	 0.000000	 unflanked_rf_freq_3_amplitude_0.1133_rep_6_t_D.png	 D	 t	 t	 n.a.	 3.534424e-01
8	 4	 352	 unflanked	 rf	 12	 0.268300	 0.000000	 unflanked_rf_freq_12_amplitude_0.2683_rep_2_l_H.png	 H	 l	 l	 n.a.	 2.201517e-01
8	 4	 353	 unflanked	 rf	 12	 0.268300	 0.000000	 unflanked_rf_freq_12_amplitude_0.2683_rep_4_r_D.png	 D	 r	 r	 n.a.	 1.809677e-01
8	 4	 354	 unflanked	 rf	 5	 0.007500	 0.000000	 unflanked_rf_freq_5_amplitude_0.0075_rep_6_r_K.png	 K	 r	 r	 n.a.	 4.356478e-01
8	 4	 355	 unflanked	 rf	 8	 0.061700	 0.000000	 unflanked_rf_freq_8_amplitude_0.0617_rep_5_t_K.png	 K	 t	 t	 n.a.	 2.627898e-01
8	 4	 356	 unflanked	 rf	 4	 0.268300	 0.000000	 unflanked_rf_freq_4_amplitude_0.2683_rep_3_r_D.png	 D	 r	 r	 n.a.	 2.198550e-01
8	 4	 357	 unflanked	 rf	 5	 0.165000	 0.000000	 unflanked_rf_freq_5_amplitude_0.165_rep_5_r_N.png	 N	 r	 r	 n.a.	 2.261819e-01
8	 4	 358	 unflanked	 rf	 5	 0.061700	 0.000000	 unflanked_rf_freq_5_amplitude_0.0617_rep_8_t_N.png	 N	 t	 t	 n.a.	 4.240837e-01
8	 4	 359	 unflanked	 rf	 3	 0.165000	 0.000000	 unflanked_rf_freq_3_amplitude_0.165_rep_7_r_D.png	 D	 r	 r	 n.a.	 2.587015e-01
8	 4	 360	 unflanked	 rf	 3	 0.007500	 0.000000	 unflanked_rf_freq_3_amplitude_0.0075_rep_6_r_D.png	 D	 r	 t	 n.a.	 3.141970e-01
8	 4	 361	 unflanked	 rf	 4	 0.268300	 0.000000	 unflanked_rf_freq_4_amplitude_0.2683_rep_4_l_N.png	 N	 l	 l	 n.a.	 2.083043e-01
8	 4	 362	 unflanked	 rf	 8	 0.165000	 0.000000	 unflanked_rf_freq_8_amplitude_0.165_rep_7_b_D.png	 D	 b	 b	 n.a.	 2.658719e-01
8	 4	 363	 unflanked	 rf	 12	 0.268300	 0.000000	 unflanked_rf_freq_12_amplitude_0.2683_rep_7_r_H.png	 H	 r	 r	 n.a.	 2.045122e-01
8	 4	 364	 unflanked	 rf	 3	 0.061700	 0.000000	 unflanked_rf_freq_3_amplitude_0.0617_rep_8_t_D.png	 D	 t	 t	 n.a.	 4.882522e-01
8	 4	 365	 unflanked	 rf	 5	 0.216700	 0.000000	 unflanked_rf_freq_5_amplitude_0.2167_rep_9_t_K.png	 K	 t	 t	 n.a.	 4.839271e-01
8	 4	 366	 unflanked	 rf	 2	 0.007500	 0.000000	 unflanked_rf_freq_2_amplitude_0.0075_rep_8_t_H.png	 H	 t	 r	 n.a.	 5.279064e-01
8	 4	 367	 unflanked	 rf	 2	 0.061700	 0.000000	 unflanked_rf_freq_2_amplitude_0.0617_rep_2_r_D.png	 D	 r	 t	 n.a.	 4.169579e-01
8	 4	 368	 unflanked	 rf	 12	 0.007500	 0.000000	 unflanked_rf_freq_12_amplitude_0.0075_rep_2_t_D.png	 D	 t	 b	 n.a.	 3.602113e-01
8	 4	 369	 unflanked	 rf	 2	 0.268300	 0.000000	 unflanked_rf_freq_2_amplitude_0.2683_rep_6_t_D.png	 D	 t	 t	 n.a.	 3.215743e-01
8	 4	 370	 unflanked	 rf	 12	 0.113300	 0.000000	 unflanked_rf_freq_12_amplitude_0.1133_rep_3_r_H.png	 H	 r	 r	 n.a.	 2.348523e-01
8	 4	 371	 unflanked	 rf	 3	 0.268300	 0.000000	 unflanked_rf_freq_3_amplitude_0.2683_rep_0_r_D.png	 D	 r	 r	 n.a.	 2.762941e-01
8	 4	 372	 unflanked	 rf	 8	 0.010000	 0.000000	 unflanked_rf_freq_8_amplitude_0.01_rep_1_r_H.png	 H	 r	 b	 n.a.	 3.510971e-01
8	 4	 373	 unflanked	 rf	 12	 0.113300	 0.000000	 unflanked_rf_freq_12_amplitude_0.1133_rep_9_l_K.png	 K	 l	 l	 n.a.	 2.034139e-01
8	 4	 374	 unflanked	 rf	 8	 0.268300	 0.000000	 unflanked_rf_freq_8_amplitude_0.2683_rep_6_b_D.png	 D	 b	 b	 n.a.	 2.625017e-01
8	 4	 375	 unflanked	 rf	 5	 0.216700	 0.000000	 unflanked_rf_freq_5_amplitude_0.2167_rep_6_r_H.png	 H	 r	 r	 n.a.	 2.412267e-01
8	 4	 376	 unflanked	 rf	 8	 0.216700	 0.000000	 unflanked_rf_freq_8_amplitude_0.2167_rep_0_t_K.png	 K	 t	 t	 n.a.	 2.188498e-01
8	 4	 377	 unflanked	 rf	 8	 0.165000	 0.000000	 unflanked_rf_freq_8_amplitude_0.165_rep_6_b_H.png	 H	 b	 b	 n.a.	 2.082137e-01
8	 4	 378	 unflanked	 rf	 4	 0.113300	 0.000000	 unflanked_rf_freq_4_amplitude_0.1133_rep_7_t_K.png	 K	 t	 t	 n.a.	 2.995056e-01
8	 4	 379	 unflanked	 rf	 3	 0.061700	 0.000000	 unflanked_rf_freq_3_amplitude_0.0617_rep_0_l_H.png	 H	 l	 l	 n.a.	 4.213118e-01
8	 4	 380	 unflanked	 rf	 3	 0.113300	 0.000000	 unflanked_rf_freq_3_amplitude_0.1133_rep_8_b_D.png	 D	 b	 b	 n.a.	 3.250704e-01
8	 4	 381	 unflanked	 rf	 12	 0.061700	 0.000000	 unflanked_rf_freq_12_amplitude_0.0617_rep_8_l_K.png	 K	 l	 l	 n.a.	 2.523486e-01
8	 4	 382	 unflanked	 rf	 12	 0.007500	 0.000000	 unflanked_rf_freq_12_amplitude_0.0075_rep_5_b_K.png	 K	 b	 t	 n.a.	 4.426717e-01
8	 4	 383	 unflanked	 rf	 2	 0.216700	 0.000000	 unflanked_rf_freq_2_amplitude_0.2167_rep_9_b_D.png	 D	 b	 r	 n.a.	 2.801573e-01
8	 4	 384	 unflanked	 rf	 8	 0.113300	 0.000000	 unflanked_rf_freq_8_amplitude_0.1133_rep_2_r_D.png	 D	 r	 r	 n.a.	 2.546450e-01
8	 4	 385	 unflanked	 rf	 4	 0.268300	 0.000000	 unflanked_rf_freq_4_amplitude_0.2683_rep_9_t_N.png	 N	 t	 t	 n.a.	 2.217359e-01
8	 4	 386	 unflanked	 rf	 12	 0.061700	 0.000000	 unflanked_rf_freq_12_amplitude_0.0617_rep_1_t_N.png	 N	 t	 b	 n.a.	 6.702822e-01
8	 4	 387	 unflanked	 rf	 5	 0.165000	 0.000000	 unflanked_rf_freq_5_amplitude_0.165_rep_6_t_D.png	 D	 t	 t	 n.a.	 2.448752e-01
8	 4	 388	 unflanked	 rf	 2	 0.113300	 0.000000	 unflanked_rf_freq_2_amplitude_0.1133_rep_3_b_K.png	 K	 b	 b	 n.a.	 2.744098e-01
8	 4	 389	 unflanked	 rf	 12	 0.113300	 0.000000	 unflanked_rf_freq_12_amplitude_0.1133_rep_4_b_D.png	 D	 b	 b	 n.a.	 2.762762e-01
8	 4	 390	 unflanked	 rf	 5	 0.007500	 0.000000	 unflanked_rf_freq_5_amplitude_0.0075_rep_9_t_K.png	 K	 t	 t	 n.a.	 6.634781e-01
8	 4	 391	 unflanked	 rf	 2	 0.165000	 0.000000	 unflanked_rf_freq_2_amplitude_0.165_rep_9_l_K.png	 K	 l	 l	 n.a.	 3.132119e-01
8	 4	 392	 unflanked	 rf	 4	 0.061700	 0.000000	 unflanked_rf_freq_4_amplitude_0.0617_rep_0_r_D.png	 D	 r	 r	 n.a.	 3.664960e-01
8	 4	 393	 unflanked	 rf	 4	 0.061700	 0.000000	 unflanked_rf_freq_4_amplitude_0.0617_rep_8_r_N.png	 N	 r	 t	 n.a.	 4.431380e-01
8	 4	 394	 unflanked	 rf	 2	 0.061700	 0.000000	 unflanked_rf_freq_2_amplitude_0.0617_rep_1_r_N.png	 N	 r	 r	 n.a.	 4.964156e-01
8	 4	 395	 unflanked	 rf	 8	 0.010000	 0.000000	 unflanked_rf_freq_8_amplitude_0.01_rep_4_r_H.png	 H	 r	 r	 n.a.	 5.795509e-01
8	 4	 396	 unflanked	 rf	 5	 0.113300	 0.000000	 unflanked_rf_freq_5_amplitude_0.1133_rep_9_r_D.png	 D	 r	 r	 n.a.	 4.159859e-01
8	 4	 397	 unflanked	 rf	 2	 0.113300	 0.000000	 unflanked_rf_freq_2_amplitude_0.1133_rep_9_t_D.png	 D	 t	 t	 n.a.	 4.360086e-01
8	 4	 398	 unflanked	 rf	 3	 0.010000	 0.000000	 unflanked_rf_freq_3_amplitude_0.01_rep_1_r_N.png	 N	 r	 b	 n.a.	 4.181566e-01
8	 4	 399	 unflanked	 rf	 8	 0.061700	 0.000000	 unflanked_rf_freq_8_amplitude_0.0617_rep_8_b_N.png	 N	 b	 l	 n.a.	 3.461549e-01
8	 4	 400	 unflanked	 rf	 4	 0.268300	 0.000000	 unflanked_rf_freq_4_amplitude_0.2683_rep_8_t_H.png	 H	 t	 t	 n.a.	 1.905440e-01
8	 4	 401	 unflanked	 rf	 3	 0.216700	 0.000000	 unflanked_rf_freq_3_amplitude_0.2167_rep_1_r_H.png	 H	 r	 r	 n.a.	 2.600427e-01
8	 4	 402	 unflanked	 rf	 4	 0.007500	 0.000000	 unflanked_rf_freq_4_amplitude_0.0075_rep_5_t_N.png	 N	 t	 b	 n.a.	 4.747970e-01
8	 4	 403	 unflanked	 rf	 3	 0.268300	 0.000000	 unflanked_rf_freq_3_amplitude_0.2683_rep_3_t_H.png	 H	 t	 t	 n.a.	 2.085433e-01
8	 4	 404	 unflanked	 rf	 5	 0.268300	 0.000000	 unflanked_rf_freq_5_amplitude_0.2683_rep_2_t_D.png	 D	 t	 t	 n.a.	 2.637862e-01
8	 4	 405	 unflanked	 rf	 8	 0.061700	 0.000000	 unflanked_rf_freq_8_amplitude_0.0617_rep_7_l_D.png	 D	 l	 l	 n.a.	 2.713908e-01
8	 4	 406	 unflanked	 rf	 8	 0.007500	 0.000000	 unflanked_rf_freq_8_amplitude_0.0075_rep_6_t_H.png	 H	 t	 t	 n.a.	 2.696415e-01
8	 4	 407	 unflanked	 rf	 8	 0.216700	 0.000000	 unflanked_rf_freq_8_amplitude_0.2167_rep_2_l_K.png	 K	 l	 l	 n.a.	 2.596306e-01
8	 4	 408	 unflanked	 rf	 2	 0.010000	 0.000000	 unflanked_rf_freq_2_amplitude_0.01_rep_0_r_H.png	 H	 r	 r	 n.a.	 3.737757e-01
8	 4	 409	 unflanked	 rf	 2	 0.061700	 0.000000	 unflanked_rf_freq_2_amplitude_0.0617_rep_8_t_K.png	 K	 t	 t	 n.a.	 2.797670e-01
8	 4	 410	 unflanked	 rf	 8	 0.007500	 0.000000	 unflanked_rf_freq_8_amplitude_0.0075_rep_0_r_D.png	 D	 r	 r	 n.a.	 5.540325e-01
8	 4	 411	 unflanked	 rf	 5	 0.268300	 0.000000	 unflanked_rf_freq_5_amplitude_0.2683_rep_4_l_D.png	 D	 l	 l	 n.a.	 2.141039e-01
8	 4	 412	 unflanked	 rf	 3	 0.061700	 0.000000	 unflanked_rf_freq_3_amplitude_0.0617_rep_7_b_K.png	 K	 b	 t	 n.a.	 5.496218e-01
8	 4	 413	 unflanked	 rf	 3	 0.113300	 0.000000	 unflanked_rf_freq_3_amplitude_0.1133_rep_3_b_N.png	 N	 b	 b	 n.a.	 2.877855e-01
8	 4	 414	 unflanked	 rf	 8	 0.268300	 0.000000	 unflanked_rf_freq_8_amplitude_0.2683_rep_3_b_N.png	 N	 b	 b	 n.a.	 3.248284e-01
8	 4	 415	 unflanked	 rf	 2	 0.007500	 0.000000	 unflanked_rf_freq_2_amplitude_0.0075_rep_1_t_N.png	 N	 t	 l	 n.a.	 4.317943e-01
8	 4	 416	 unflanked	 rf	 12	 0.007500	 0.000000	 unflanked_rf_freq_12_amplitude_0.0075_rep_8_b_D.png	 D	 b	 b	 n.a.	 4.876756e-01
8	 4	 417	 unflanked	 rf	 4	 0.165000	 0.000000	 unflanked_rf_freq_4_amplitude_0.165_rep_0_r_K.png	 K	 r	 r	 n.a.	 2.642920e-01
8	 4	 418	 unflanked	 rf	 5	 0.113300	 0.000000	 unflanked_rf_freq_5_amplitude_0.1133_rep_1_l_K.png	 K	 l	 b	 n.a.	 4.211061e-01
8	 4	 419	 unflanked	 rf	 8	 0.007500	 0.000000	 unflanked_rf_freq_8_amplitude_0.0075_rep_3_r_D.png	 D	 r	 b	 n.a.	 2.569068e-01
8	 4	 420	 unflanked	 rf	 2	 0.165000	 0.000000	 unflanked_rf_freq_2_amplitude_0.165_rep_6_l_K.png	 K	 l	 t	 n.a.	 3.169389e-01
