subject	 session	 trial	 flanked	 distortion	 freq	 amplitude	 spacing	 im_name	 targ_letter	 targ_pos	 response	 eyemovement	 RT
7	 2	 1	 unflanked	 bex	 16	 1.000000	 0.000000	 unflanked_bex_freq_16_amplitude_1_rep_2_l_K.png	 K	 l	 t	 n.a.	 5.251099e-01
7	 2	 2	 unflanked	 bex	 4	 1.500000	 0.000000	 unflanked_bex_freq_4_amplitude_1.5_rep_0_l_H.png	 H	 l	 l	 n.a.	 4.778405e-01
7	 2	 3	 unflanked	 bex	 8	 1.000000	 0.000000	 unflanked_bex_freq_8_amplitude_1_rep_3_r_N.png	 N	 r	 b	 n.a.	 5.511980e-01
7	 2	 4	 unflanked	 bex	 6	 2.500000	 0.000000	 unflanked_bex_freq_6_amplitude_2.5_rep_3_b_K.png	 K	 b	 b	 n.a.	 3.539967e-01
7	 2	 5	 unflanked	 bex	 32	 0.500000	 0.000000	 unflanked_bex_freq_32_amplitude_0.5_rep_8_l_D.png	 D	 l	 t	 n.a.	 4.085698e-01
7	 2	 6	 unflanked	 bex	 16	 2.500000	 0.000000	 unflanked_bex_freq_16_amplitude_2.5_rep_0_t_H.png	 H	 t	 t	 n.a.	 4.335395e-01
7	 2	 7	 unflanked	 bex	 32	 0.500000	 0.000000	 unflanked_bex_freq_32_amplitude_0.5_rep_9_t_N.png	 N	 t	 t	 n.a.	 4.468553e-01
7	 2	 8	 unflanked	 bex	 16	 5.000000	 0.000000	 unflanked_bex_freq_16_amplitude_5_rep_1_l_H.png	 H	 l	 l	 n.a.	 3.034491e-01
7	 2	 9	 unflanked	 bex	 8	 1.500000	 0.000000	 unflanked_bex_freq_8_amplitude_1.5_rep_1_b_K.png	 K	 b	 t	 n.a.	 4.697910e-01
7	 2	 10	 unflanked	 bex	 32	 1.000000	 0.000000	 unflanked_bex_freq_32_amplitude_1_rep_5_l_D.png	 D	 l	 l	 n.a.	 3.531588e-01
7	 2	 11	 unflanked	 bex	 6	 1.500000	 0.000000	 unflanked_bex_freq_6_amplitude_1.5_rep_4_b_N.png	 N	 b	 b	 n.a.	 6.512432e-01
7	 2	 12	 unflanked	 bex	 6	 2.500000	 0.000000	 unflanked_bex_freq_6_amplitude_2.5_rep_9_r_H.png	 H	 r	 r	 n.a.	 3.801993e-01
7	 2	 13	 unflanked	 bex	 8	 3.000000	 0.000000	 unflanked_bex_freq_8_amplitude_3_rep_9_b_N.png	 N	 b	 b	 n.a.	 4.610283e-01
7	 2	 14	 unflanked	 bex	 6	 2.000000	 0.000000	 unflanked_bex_freq_6_amplitude_2_rep_5_l_N.png	 N	 l	 l	 n.a.	 3.145997e-01
7	 2	 15	 unflanked	 bex	 2	 5.000000	 0.000000	 unflanked_bex_freq_2_amplitude_5_rep_9_r_N.png	 N	 r	 r	 n.a.	 3.912642e-01
7	 2	 16	 unflanked	 bex	 4	 3.000000	 0.000000	 unflanked_bex_freq_4_amplitude_3_rep_4_b_H.png	 H	 b	 b	 n.a.	 4.132388e-01
7	 2	 17	 unflanked	 bex	 2	 1.000000	 0.000000	 unflanked_bex_freq_2_amplitude_1_rep_1_l_D.png	 D	 l	 t	 n.a.	 7.291004e-01
7	 2	 18	 unflanked	 bex	 2	 2.000000	 0.000000	 unflanked_bex_freq_2_amplitude_2_rep_2_r_D.png	 D	 r	 r	 n.a.	 7.205994e-01
7	 2	 19	 unflanked	 bex	 16	 1.500000	 0.000000	 unflanked_bex_freq_16_amplitude_1.5_rep_2_b_K.png	 K	 b	 b	 n.a.	 6.902304e-01
7	 2	 20	 unflanked	 bex	 2	 2.500000	 0.000000	 unflanked_bex_freq_2_amplitude_2.5_rep_2_b_D.png	 D	 b	 b	 n.a.	 5.831996e-01
7	 2	 21	 unflanked	 bex	 32	 2.000000	 0.000000	 unflanked_bex_freq_32_amplitude_2_rep_7_b_H.png	 H	 b	 r	 n.a.	 6.958690e-01
7	 2	 22	 unflanked	 bex	 6	 2.500000	 0.000000	 unflanked_bex_freq_6_amplitude_2.5_rep_7_r_N.png	 N	 r	 r	 n.a.	 4.263255e-01
7	 2	 23	 unflanked	 bex	 32	 1.500000	 0.000000	 unflanked_bex_freq_32_amplitude_1.5_rep_7_t_H.png	 H	 t	 b	 n.a.	 6.106922e-01
7	 2	 24	 unflanked	 bex	 4	 2.000000	 0.000000	 unflanked_bex_freq_4_amplitude_2_rep_1_r_D.png	 D	 r	 r	 n.a.	 3.930020e-01
7	 2	 25	 unflanked	 bex	 4	 0.500000	 0.000000	 unflanked_bex_freq_4_amplitude_0.5_rep_1_t_N.png	 N	 t	 t	 n.a.	 6.519751e-01
7	 2	 26	 unflanked	 bex	 16	 1.000000	 0.000000	 unflanked_bex_freq_16_amplitude_1_rep_9_t_H.png	 H	 t	 t	 n.a.	 8.177124e-01
7	 2	 27	 unflanked	 bex	 4	 5.000000	 0.000000	 unflanked_bex_freq_4_amplitude_5_rep_9_r_H.png	 H	 r	 r	 n.a.	 4.772894e-01
7	 2	 28	 unflanked	 bex	 8	 2.000000	 0.000000	 unflanked_bex_freq_8_amplitude_2_rep_4_b_H.png	 H	 b	 l	 n.a.	 6.080706e-01
7	 2	 29	 unflanked	 bex	 6	 2.000000	 0.000000	 unflanked_bex_freq_6_amplitude_2_rep_4_b_K.png	 K	 b	 b	 n.a.	 3.808706e-01
7	 2	 30	 unflanked	 bex	 8	 5.000000	 0.000000	 unflanked_bex_freq_8_amplitude_5_rep_8_b_D.png	 D	 b	 b	 n.a.	 4.958190e-01
7	 2	 31	 unflanked	 bex	 32	 0.500000	 0.000000	 unflanked_bex_freq_32_amplitude_0.5_rep_6_t_N.png	 N	 t	 t	 n.a.	 4.861047e-01
7	 2	 32	 unflanked	 bex	 2	 1.000000	 0.000000	 unflanked_bex_freq_2_amplitude_1_rep_3_l_K.png	 K	 l	 r	 n.a.	 4.155419e-01
7	 2	 33	 unflanked	 bex	 4	 5.000000	 0.000000	 unflanked_bex_freq_4_amplitude_5_rep_4_l_H.png	 H	 l	 l	 n.a.	 3.599292e-01
7	 2	 34	 unflanked	 bex	 6	 3.000000	 0.000000	 unflanked_bex_freq_6_amplitude_3_rep_7_l_H.png	 H	 l	 l	 n.a.	 4.461886e-01
7	 2	 35	 unflanked	 bex	 4	 2.500000	 0.000000	 unflanked_bex_freq_4_amplitude_2.5_rep_1_r_H.png	 H	 r	 r	 n.a.	 4.288332e-01
7	 2	 36	 unflanked	 bex	 2	 1.000000	 0.000000	 unflanked_bex_freq_2_amplitude_1_rep_6_t_N.png	 N	 t	 t	 n.a.	 4.327627e-01
7	 2	 37	 unflanked	 bex	 8	 0.500000	 0.000000	 unflanked_bex_freq_8_amplitude_0.5_rep_5_b_N.png	 N	 b	 t	 n.a.	 7.526202e-01
7	 2	 38	 unflanked	 bex	 32	 0.500000	 0.000000	 unflanked_bex_freq_32_amplitude_0.5_rep_3_t_N.png	 N	 t	 t	 n.a.	 7.187044e-01
7	 2	 39	 unflanked	 bex	 32	 2.500000	 0.000000	 unflanked_bex_freq_32_amplitude_2.5_rep_3_b_N.png	 N	 b	 r	 n.a.	 6.829415e-01
7	 2	 40	 unflanked	 bex	 6	 1.000000	 0.000000	 unflanked_bex_freq_6_amplitude_1_rep_6_r_N.png	 N	 r	 r	 n.a.	 7.405499e-01
7	 2	 41	 unflanked	 bex	 6	 1.000000	 0.000000	 unflanked_bex_freq_6_amplitude_1_rep_7_t_H.png	 H	 t	 b	 n.a.	 8.577573e-01
7	 2	 42	 unflanked	 bex	 4	 1.500000	 0.000000	 unflanked_bex_freq_4_amplitude_1.5_rep_6_t_N.png	 N	 t	 t	 n.a.	 3.590797e-01
7	 2	 43	 unflanked	 bex	 32	 2.000000	 0.000000	 unflanked_bex_freq_32_amplitude_2_rep_9_r_K.png	 K	 r	 t	 n.a.	 5.357826e-01
7	 2	 44	 unflanked	 bex	 4	 5.000000	 0.000000	 unflanked_bex_freq_4_amplitude_5_rep_3_t_N.png	 N	 t	 t	 n.a.	 3.602454e-01
7	 2	 45	 unflanked	 bex	 4	 2.500000	 0.000000	 unflanked_bex_freq_4_amplitude_2.5_rep_5_b_N.png	 N	 b	 b	 n.a.	 4.960895e-01
7	 2	 46	 unflanked	 bex	 8	 5.000000	 0.000000	 unflanked_bex_freq_8_amplitude_5_rep_0_l_D.png	 D	 l	 l	 n.a.	 4.039592e-01
7	 2	 47	 unflanked	 bex	 8	 3.000000	 0.000000	 unflanked_bex_freq_8_amplitude_3_rep_2_l_D.png	 D	 l	 l	 n.a.	 5.555877e-01
7	 2	 48	 unflanked	 bex	 4	 5.000000	 0.000000	 unflanked_bex_freq_4_amplitude_5_rep_7_r_K.png	 K	 r	 r	 n.a.	 6.245962e-01
7	 2	 49	 unflanked	 bex	 4	 5.000000	 0.000000	 unflanked_bex_freq_4_amplitude_5_rep_6_b_D.png	 D	 b	 b	 n.a.	 3.733278e-01
7	 2	 50	 unflanked	 bex	 16	 1.500000	 0.000000	 unflanked_bex_freq_16_amplitude_1.5_rep_1_b_H.png	 H	 b	 t	 n.a.	 5.348873e-01
7	 2	 51	 unflanked	 bex	 4	 5.000000	 0.000000	 unflanked_bex_freq_4_amplitude_5_rep_8_b_D.png	 D	 b	 b	 n.a.	 3.387326e-01
7	 2	 52	 unflanked	 bex	 4	 1.000000	 0.000000	 unflanked_bex_freq_4_amplitude_1_rep_5_l_D.png	 D	 l	 l	 n.a.	 5.801461e-01
7	 2	 53	 unflanked	 bex	 8	 0.500000	 0.000000	 unflanked_bex_freq_8_amplitude_0.5_rep_6_l_D.png	 D	 l	 t	 n.a.	 4.329882e-01
7	 2	 54	 unflanked	 bex	 32	 0.500000	 0.000000	 unflanked_bex_freq_32_amplitude_0.5_rep_0_b_H.png	 H	 b	 b	 n.a.	 6.887615e-01
7	 2	 55	 unflanked	 bex	 8	 0.500000	 0.000000	 unflanked_bex_freq_8_amplitude_0.5_rep_3_t_N.png	 N	 t	 r	 n.a.	 7.602218e-01
7	 2	 56	 unflanked	 bex	 16	 3.000000	 0.000000	 unflanked_bex_freq_16_amplitude_3_rep_6_l_K.png	 K	 l	 l	 n.a.	 4.713638e-01
7	 2	 57	 unflanked	 bex	 4	 2.000000	 0.000000	 unflanked_bex_freq_4_amplitude_2_rep_9_l_K.png	 K	 l	 l	 n.a.	 6.137365e-01
7	 2	 58	 unflanked	 bex	 8	 1.500000	 0.000000	 unflanked_bex_freq_8_amplitude_1.5_rep_2_l_H.png	 H	 l	 l	 n.a.	 4.510090e-01
7	 2	 59	 unflanked	 bex	 32	 1.500000	 0.000000	 unflanked_bex_freq_32_amplitude_1.5_rep_1_l_K.png	 K	 l	 t	 n.a.	 5.231378e-01
7	 2	 60	 unflanked	 bex	 32	 3.000000	 0.000000	 unflanked_bex_freq_32_amplitude_3_rep_8_t_K.png	 K	 t	 t	 n.a.	 4.198291e-01
7	 2	 61	 unflanked	 bex	 6	 2.000000	 0.000000	 unflanked_bex_freq_6_amplitude_2_rep_8_b_N.png	 N	 b	 b	 n.a.	 4.993341e-01
7	 2	 62	 unflanked	 bex	 32	 2.500000	 0.000000	 unflanked_bex_freq_32_amplitude_2.5_rep_2_t_N.png	 N	 t	 t	 n.a.	 4.535458e-01
7	 2	 63	 unflanked	 bex	 8	 2.000000	 0.000000	 unflanked_bex_freq_8_amplitude_2_rep_9_r_N.png	 N	 r	 r	 n.a.	 4.256976e-01
7	 2	 64	 unflanked	 bex	 8	 1.500000	 0.000000	 unflanked_bex_freq_8_amplitude_1.5_rep_4_r_N.png	 N	 r	 r	 n.a.	 5.931871e-01
7	 2	 65	 unflanked	 bex	 8	 2.000000	 0.000000	 unflanked_bex_freq_8_amplitude_2_rep_2_t_N.png	 N	 t	 t	 n.a.	 4.215606e-01
7	 2	 66	 unflanked	 bex	 16	 2.000000	 0.000000	 unflanked_bex_freq_16_amplitude_2_rep_1_b_K.png	 K	 b	 t	 n.a.	 5.293615e-01
7	 2	 67	 unflanked	 bex	 2	 5.000000	 0.000000	 unflanked_bex_freq_2_amplitude_5_rep_2_r_D.png	 D	 r	 r	 n.a.	 3.127089e-01
7	 2	 68	 unflanked	 bex	 16	 5.000000	 0.000000	 unflanked_bex_freq_16_amplitude_5_rep_6_l_N.png	 N	 l	 l	 n.a.	 3.277146e-01
7	 2	 69	 unflanked	 bex	 4	 3.000000	 0.000000	 unflanked_bex_freq_4_amplitude_3_rep_9_t_H.png	 H	 t	 t	 n.a.	 3.442755e-01
7	 2	 70	 unflanked	 bex	 16	 3.000000	 0.000000	 unflanked_bex_freq_16_amplitude_3_rep_0_b_K.png	 K	 b	 b	 n.a.	 3.673646e-01
7	 2	 71	 unflanked	 bex	 6	 3.000000	 0.000000	 unflanked_bex_freq_6_amplitude_3_rep_4_l_N.png	 N	 l	 l	 n.a.	 3.294528e-01
7	 2	 72	 unflanked	 bex	 32	 3.000000	 0.000000	 unflanked_bex_freq_32_amplitude_3_rep_2_l_N.png	 N	 l	 t	 n.a.	 4.629233e-01
7	 2	 73	 unflanked	 bex	 8	 2.000000	 0.000000	 unflanked_bex_freq_8_amplitude_2_rep_6_r_K.png	 K	 r	 r	 n.a.	 2.474543e-01
7	 2	 74	 unflanked	 bex	 6	 5.000000	 0.000000	 unflanked_bex_freq_6_amplitude_5_rep_4_l_N.png	 N	 l	 l	 n.a.	 2.719355e-01
7	 2	 75	 unflanked	 bex	 6	 2.000000	 0.000000	 unflanked_bex_freq_6_amplitude_2_rep_3_t_K.png	 K	 t	 t	 n.a.	 3.050465e-01
7	 2	 76	 unflanked	 bex	 6	 1.500000	 0.000000	 unflanked_bex_freq_6_amplitude_1.5_rep_9_r_K.png	 K	 r	 r	 n.a.	 2.891123e-01
7	 2	 77	 unflanked	 bex	 32	 1.500000	 0.000000	 unflanked_bex_freq_32_amplitude_1.5_rep_4_t_D.png	 D	 t	 t	 n.a.	 4.241785e-01
7	 2	 78	 unflanked	 bex	 8	 1.500000	 0.000000	 unflanked_bex_freq_8_amplitude_1.5_rep_0_r_K.png	 K	 r	 r	 n.a.	 4.283396e-01
7	 2	 79	 unflanked	 bex	 4	 0.500000	 0.000000	 unflanked_bex_freq_4_amplitude_0.5_rep_5_r_K.png	 K	 r	 t	 n.a.	 4.163162e-01
7	 2	 80	 unflanked	 bex	 16	 5.000000	 0.000000	 unflanked_bex_freq_16_amplitude_5_rep_2_t_D.png	 D	 t	 t	 n.a.	 3.240902e-01
7	 2	 81	 unflanked	 bex	 8	 5.000000	 0.000000	 unflanked_bex_freq_8_amplitude_5_rep_7_r_K.png	 K	 r	 r	 n.a.	 2.990200e-01
7	 2	 82	 unflanked	 bex	 6	 1.000000	 0.000000	 unflanked_bex_freq_6_amplitude_1_rep_2_b_D.png	 D	 b	 t	 n.a.	 3.452988e-01
7	 2	 83	 unflanked	 bex	 2	 2.500000	 0.000000	 unflanked_bex_freq_2_amplitude_2.5_rep_4_l_D.png	 D	 l	 l	 n.a.	 3.906763e-01
7	 2	 84	 unflanked	 bex	 4	 2.000000	 0.000000	 unflanked_bex_freq_4_amplitude_2_rep_3_r_H.png	 H	 r	 r	 n.a.	 4.513406e-01
7	 2	 85	 unflanked	 bex	 6	 1.000000	 0.000000	 unflanked_bex_freq_6_amplitude_1_rep_1_l_N.png	 N	 l	 r	 n.a.	 7.048373e-01
7	 2	 86	 unflanked	 bex	 32	 5.000000	 0.000000	 unflanked_bex_freq_32_amplitude_5_rep_3_t_D.png	 D	 t	 t	 n.a.	 2.950173e-01
7	 2	 87	 unflanked	 bex	 6	 5.000000	 0.000000	 unflanked_bex_freq_6_amplitude_5_rep_0_t_K.png	 K	 t	 t	 n.a.	 3.929081e-01
7	 2	 88	 unflanked	 bex	 8	 2.000000	 0.000000	 unflanked_bex_freq_8_amplitude_2_rep_7_r_N.png	 N	 r	 r	 n.a.	 3.641893e-01
7	 2	 89	 unflanked	 bex	 16	 2.500000	 0.000000	 unflanked_bex_freq_16_amplitude_2.5_rep_5_l_N.png	 N	 l	 l	 n.a.	 3.301257e-01
7	 2	 90	 unflanked	 bex	 16	 5.000000	 0.000000	 unflanked_bex_freq_16_amplitude_5_rep_0_r_K.png	 K	 r	 r	 n.a.	 2.780775e-01
7	 2	 91	 unflanked	 bex	 16	 2.000000	 0.000000	 unflanked_bex_freq_16_amplitude_2_rep_9_r_H.png	 H	 r	 r	 n.a.	 3.496035e-01
7	 2	 92	 unflanked	 bex	 32	 2.500000	 0.000000	 unflanked_bex_freq_32_amplitude_2.5_rep_0_t_K.png	 K	 t	 t	 n.a.	 3.285139e-01
7	 2	 93	 unflanked	 bex	 4	 1.000000	 0.000000	 unflanked_bex_freq_4_amplitude_1_rep_2_r_H.png	 H	 r	 r	 n.a.	 4.780823e-01
7	 2	 94	 unflanked	 bex	 16	 3.000000	 0.000000	 unflanked_bex_freq_16_amplitude_3_rep_3_b_N.png	 N	 b	 b	 n.a.	 3.714024e-01
7	 2	 95	 unflanked	 bex	 8	 1.000000	 0.000000	 unflanked_bex_freq_8_amplitude_1_rep_8_b_D.png	 D	 b	 t	 n.a.	 3.271368e-01
7	 2	 96	 unflanked	 bex	 8	 1.500000	 0.000000	 unflanked_bex_freq_8_amplitude_1.5_rep_3_l_N.png	 N	 l	 l	 n.a.	 4.492376e-01
7	 2	 97	 unflanked	 bex	 16	 0.500000	 0.000000	 unflanked_bex_freq_16_amplitude_0.5_rep_6_r_H.png	 H	 r	 r	 n.a.	 4.582811e-01
7	 2	 98	 unflanked	 bex	 2	 5.000000	 0.000000	 unflanked_bex_freq_2_amplitude_5_rep_6_b_D.png	 D	 b	 b	 n.a.	 3.569799e-01
7	 2	 99	 unflanked	 bex	 6	 3.000000	 0.000000	 unflanked_bex_freq_6_amplitude_3_rep_9_l_K.png	 K	 l	 l	 n.a.	 3.084326e-01
7	 2	 100	 unflanked	 bex	 2	 2.500000	 0.000000	 unflanked_bex_freq_2_amplitude_2.5_rep_6_l_H.png	 H	 l	 l	 n.a.	 5.452163e-01
7	 2	 101	 unflanked	 bex	 8	 1.000000	 0.000000	 unflanked_bex_freq_8_amplitude_1_rep_7_r_H.png	 H	 r	 r	 n.a.	 5.628534e-01
7	 2	 102	 unflanked	 bex	 2	 2.000000	 0.000000	 unflanked_bex_freq_2_amplitude_2_rep_1_t_N.png	 N	 t	 t	 n.a.	 3.859621e-01
7	 2	 103	 unflanked	 bex	 16	 2.500000	 0.000000	 unflanked_bex_freq_16_amplitude_2.5_rep_3_l_N.png	 N	 l	 l	 n.a.	 3.722982e-01
7	 2	 104	 unflanked	 bex	 4	 3.000000	 0.000000	 unflanked_bex_freq_4_amplitude_3_rep_6_b_N.png	 N	 b	 b	 n.a.	 3.790688e-01
7	 2	 105	 unflanked	 bex	 6	 5.000000	 0.000000	 unflanked_bex_freq_6_amplitude_5_rep_7_l_D.png	 D	 l	 l	 n.a.	 2.878999e-01
7	 2	 106	 unflanked	 bex	 6	 1.000000	 0.000000	 unflanked_bex_freq_6_amplitude_1_rep_8_r_K.png	 K	 r	 r	 n.a.	 3.852744e-01
7	 2	 107	 unflanked	 bex	 8	 3.000000	 0.000000	 unflanked_bex_freq_8_amplitude_3_rep_0_b_D.png	 D	 b	 b	 n.a.	 3.554333e-01
7	 2	 108	 unflanked	 bex	 16	 1.500000	 0.000000	 unflanked_bex_freq_16_amplitude_1.5_rep_4_l_D.png	 D	 l	 l	 n.a.	 3.160499e-01
7	 2	 109	 unflanked	 bex	 16	 1.000000	 0.000000	 unflanked_bex_freq_16_amplitude_1_rep_8_t_H.png	 H	 t	 r	 n.a.	 4.922057e-01
7	 2	 110	 unflanked	 bex	 16	 2.500000	 0.000000	 unflanked_bex_freq_16_amplitude_2.5_rep_6_r_K.png	 K	 r	 r	 n.a.	 4.426779e-01
7	 2	 111	 unflanked	 bex	 4	 1.500000	 0.000000	 unflanked_bex_freq_4_amplitude_1.5_rep_5_r_K.png	 K	 r	 t	 n.a.	 5.560395e-01
7	 2	 112	 unflanked	 bex	 32	 2.000000	 0.000000	 unflanked_bex_freq_32_amplitude_2_rep_3_l_N.png	 N	 l	 l	 n.a.	 3.707779e-01
7	 2	 113	 unflanked	 bex	 4	 1.000000	 0.000000	 unflanked_bex_freq_4_amplitude_1_rep_4_b_N.png	 N	 b	 t	 n.a.	 5.942902e-01
7	 2	 114	 unflanked	 bex	 16	 1.000000	 0.000000	 unflanked_bex_freq_16_amplitude_1_rep_0_r_N.png	 N	 r	 r	 n.a.	 4.333763e-01
7	 2	 115	 unflanked	 bex	 16	 1.000000	 0.000000	 unflanked_bex_freq_16_amplitude_1_rep_5_r_D.png	 D	 r	 r	 n.a.	 4.961806e-01
7	 2	 116	 unflanked	 bex	 6	 0.500000	 0.000000	 unflanked_bex_freq_6_amplitude_0.5_rep_9_t_H.png	 H	 t	 r	 n.a.	 6.239737e-01
7	 2	 117	 unflanked	 bex	 2	 0.500000	 0.000000	 unflanked_bex_freq_2_amplitude_0.5_rep_1_r_H.png	 H	 r	 t	 n.a.	 6.538685e-01
7	 2	 118	 unflanked	 bex	 32	 2.500000	 0.000000	 unflanked_bex_freq_32_amplitude_2.5_rep_5_r_H.png	 H	 r	 r	 n.a.	 4.338718e-01
7	 2	 119	 unflanked	 bex	 4	 2.000000	 0.000000	 unflanked_bex_freq_4_amplitude_2_rep_4_l_K.png	 K	 l	 l	 n.a.	 5.819703e-01
7	 2	 120	 unflanked	 bex	 4	 1.500000	 0.000000	 unflanked_bex_freq_4_amplitude_1.5_rep_3_b_K.png	 K	 b	 r	 n.a.	 4.298309e-01
7	 2	 121	 unflanked	 bex	 6	 1.500000	 0.000000	 unflanked_bex_freq_6_amplitude_1.5_rep_7_b_K.png	 K	 b	 t	 n.a.	 4.177833e-01
7	 2	 122	 unflanked	 bex	 2	 1.500000	 0.000000	 unflanked_bex_freq_2_amplitude_1.5_rep_9_t_H.png	 H	 t	 r	 n.a.	 3.566317e-01
7	 2	 123	 unflanked	 bex	 32	 1.500000	 0.000000	 unflanked_bex_freq_32_amplitude_1.5_rep_6_l_D.png	 D	 l	 b	 n.a.	 5.314071e-01
7	 2	 124	 unflanked	 bex	 4	 5.000000	 0.000000	 unflanked_bex_freq_4_amplitude_5_rep_1_l_N.png	 N	 l	 l	 n.a.	 3.314763e-01
7	 2	 125	 unflanked	 bex	 2	 2.000000	 0.000000	 unflanked_bex_freq_2_amplitude_2_rep_6_b_N.png	 N	 b	 t	 n.a.	 4.422922e-01
7	 2	 126	 unflanked	 bex	 4	 2.000000	 0.000000	 unflanked_bex_freq_4_amplitude_2_rep_2_b_N.png	 N	 b	 b	 n.a.	 5.713649e-01
7	 2	 127	 unflanked	 bex	 2	 5.000000	 0.000000	 unflanked_bex_freq_2_amplitude_5_rep_3_l_N.png	 N	 l	 l	 n.a.	 4.751647e-01
7	 2	 128	 unflanked	 bex	 32	 1.500000	 0.000000	 unflanked_bex_freq_32_amplitude_1.5_rep_0_l_D.png	 D	 l	 t	 n.a.	 3.703413e-01
7	 2	 129	 unflanked	 bex	 8	 2.000000	 0.000000	 unflanked_bex_freq_8_amplitude_2_rep_8_t_K.png	 K	 t	 r	 n.a.	 3.465552e-01
7	 2	 130	 unflanked	 bex	 32	 3.000000	 0.000000	 unflanked_bex_freq_32_amplitude_3_rep_6_l_N.png	 N	 l	 l	 n.a.	 2.659036e-01
7	 2	 131	 unflanked	 bex	 4	 1.000000	 0.000000	 unflanked_bex_freq_4_amplitude_1_rep_1_r_H.png	 H	 r	 t	 n.a.	 6.422016e-01
7	 2	 132	 unflanked	 bex	 16	 1.500000	 0.000000	 unflanked_bex_freq_16_amplitude_1.5_rep_8_r_D.png	 D	 r	 r	 n.a.	 4.304427e-01
7	 2	 133	 unflanked	 bex	 4	 1.000000	 0.000000	 unflanked_bex_freq_4_amplitude_1_rep_0_b_H.png	 H	 b	 l	 n.a.	 8.128667e-01
7	 2	 134	 unflanked	 bex	 32	 5.000000	 0.000000	 unflanked_bex_freq_32_amplitude_5_rep_1_b_H.png	 H	 b	 b	 n.a.	 4.723089e-01
7	 2	 135	 unflanked	 bex	 8	 0.500000	 0.000000	 unflanked_bex_freq_8_amplitude_0.5_rep_7_l_K.png	 K	 l	 l	 n.a.	 4.009340e-01
7	 2	 136	 unflanked	 bex	 32	 1.500000	 0.000000	 unflanked_bex_freq_32_amplitude_1.5_rep_5_t_H.png	 H	 t	 t	 n.a.	 6.867452e-01
7	 2	 137	 unflanked	 bex	 16	 5.000000	 0.000000	 unflanked_bex_freq_16_amplitude_5_rep_3_l_H.png	 H	 l	 r	 n.a.	 5.318863e-01
7	 2	 138	 unflanked	 bex	 4	 1.000000	 0.000000	 unflanked_bex_freq_4_amplitude_1_rep_6_l_N.png	 N	 l	 r	 n.a.	 5.580480e-01
7	 2	 139	 unflanked	 bex	 16	 1.500000	 0.000000	 unflanked_bex_freq_16_amplitude_1.5_rep_5_t_H.png	 H	 t	 r	 n.a.	 5.253982e-01
7	 2	 140	 unflanked	 bex	 2	 3.000000	 0.000000	 unflanked_bex_freq_2_amplitude_3_rep_6_b_D.png	 D	 b	 b	 n.a.	 7.008509e-01
7	 2	 141	 unflanked	 bex	 32	 3.000000	 0.000000	 unflanked_bex_freq_32_amplitude_3_rep_7_b_N.png	 N	 b	 r	 n.a.	 4.537914e-01
7	 2	 142	 unflanked	 bex	 2	 3.000000	 0.000000	 unflanked_bex_freq_2_amplitude_3_rep_8_t_K.png	 K	 t	 t	 n.a.	 4.487720e-01
7	 2	 143	 unflanked	 bex	 32	 5.000000	 0.000000	 unflanked_bex_freq_32_amplitude_5_rep_7_r_D.png	 D	 r	 r	 n.a.	 2.672117e-01
7	 2	 144	 unflanked	 bex	 4	 1.500000	 0.000000	 unflanked_bex_freq_4_amplitude_1.5_rep_1_b_D.png	 D	 b	 b	 n.a.	 3.703341e-01
7	 2	 145	 unflanked	 bex	 32	 1.000000	 0.000000	 unflanked_bex_freq_32_amplitude_1_rep_2_t_N.png	 N	 t	 t	 n.a.	 4.474096e-01
7	 2	 146	 unflanked	 bex	 6	 3.000000	 0.000000	 unflanked_bex_freq_6_amplitude_3_rep_8_l_N.png	 N	 l	 l	 n.a.	 2.715476e-01
7	 2	 147	 unflanked	 bex	 6	 3.000000	 0.000000	 unflanked_bex_freq_6_amplitude_3_rep_6_l_K.png	 K	 l	 l	 n.a.	 3.576472e-01
7	 2	 148	 unflanked	 bex	 2	 3.000000	 0.000000	 unflanked_bex_freq_2_amplitude_3_rep_4_r_H.png	 H	 r	 r	 n.a.	 2.945267e-01
7	 2	 149	 unflanked	 bex	 32	 2.500000	 0.000000	 unflanked_bex_freq_32_amplitude_2.5_rep_6_b_H.png	 H	 b	 r	 n.a.	 4.235361e-01
7	 2	 150	 unflanked	 bex	 32	 2.000000	 0.000000	 unflanked_bex_freq_32_amplitude_2_rep_2_t_H.png	 H	 t	 t	 n.a.	 4.018339e-01
7	 2	 151	 unflanked	 bex	 32	 5.000000	 0.000000	 unflanked_bex_freq_32_amplitude_5_rep_8_l_N.png	 N	 l	 l	 n.a.	 3.805755e-01
7	 2	 152	 unflanked	 bex	 8	 3.000000	 0.000000	 unflanked_bex_freq_8_amplitude_3_rep_6_b_H.png	 H	 b	 r	 n.a.	 3.714983e-01
7	 2	 153	 unflanked	 bex	 8	 5.000000	 0.000000	 unflanked_bex_freq_8_amplitude_5_rep_9_b_H.png	 H	 b	 b	 n.a.	 2.947717e-01
7	 2	 154	 unflanked	 bex	 8	 0.500000	 0.000000	 unflanked_bex_freq_8_amplitude_0.5_rep_2_b_K.png	 K	 b	 r	 n.a.	 5.260185e-01
7	 2	 155	 unflanked	 bex	 16	 2.000000	 0.000000	 unflanked_bex_freq_16_amplitude_2_rep_8_b_D.png	 D	 b	 b	 n.a.	 5.584855e-01
7	 2	 156	 unflanked	 bex	 4	 1.500000	 0.000000	 unflanked_bex_freq_4_amplitude_1.5_rep_7_b_N.png	 N	 b	 t	 n.a.	 7.535840e-01
7	 2	 157	 unflanked	 bex	 8	 2.500000	 0.000000	 unflanked_bex_freq_8_amplitude_2.5_rep_2_b_D.png	 D	 b	 b	 n.a.	 4.239355e-01
7	 2	 158	 unflanked	 bex	 2	 2.500000	 0.000000	 unflanked_bex_freq_2_amplitude_2.5_rep_5_b_K.png	 K	 b	 t	 n.a.	 5.908796e-01
7	 2	 159	 unflanked	 bex	 6	 1.500000	 0.000000	 unflanked_bex_freq_6_amplitude_1.5_rep_3_t_N.png	 N	 t	 t	 n.a.	 6.233880e-01
7	 2	 160	 unflanked	 bex	 16	 3.000000	 0.000000	 unflanked_bex_freq_16_amplitude_3_rep_1_r_K.png	 K	 r	 r	 n.a.	 2.651666e-01
7	 2	 161	 unflanked	 bex	 32	 1.500000	 0.000000	 unflanked_bex_freq_32_amplitude_1.5_rep_2_l_D.png	 D	 l	 b	 n.a.	 6.765398e-01
7	 2	 162	 unflanked	 bex	 16	 0.500000	 0.000000	 unflanked_bex_freq_16_amplitude_0.5_rep_4_l_K.png	 K	 l	 t	 n.a.	 6.970798e-01
7	 2	 163	 unflanked	 bex	 8	 2.500000	 0.000000	 unflanked_bex_freq_8_amplitude_2.5_rep_6_l_K.png	 K	 l	 l	 n.a.	 3.027080e-01
7	 2	 164	 unflanked	 bex	 2	 1.000000	 0.000000	 unflanked_bex_freq_2_amplitude_1_rep_5_l_D.png	 D	 l	 r	 n.a.	 5.536405e-01
7	 2	 165	 unflanked	 bex	 16	 1.000000	 0.000000	 unflanked_bex_freq_16_amplitude_1_rep_4_t_K.png	 K	 t	 t	 n.a.	 8.120521e-01
7	 2	 166	 unflanked	 bex	 2	 3.000000	 0.000000	 unflanked_bex_freq_2_amplitude_3_rep_7_r_D.png	 D	 r	 r	 n.a.	 4.589129e-01
7	 2	 167	 unflanked	 bex	 6	 1.500000	 0.000000	 unflanked_bex_freq_6_amplitude_1.5_rep_0_t_D.png	 D	 t	 t	 n.a.	 3.871155e-01
7	 2	 168	 unflanked	 bex	 8	 5.000000	 0.000000	 unflanked_bex_freq_8_amplitude_5_rep_3_l_N.png	 N	 l	 l	 n.a.	 2.888007e-01
7	 2	 169	 unflanked	 bex	 6	 5.000000	 0.000000	 unflanked_bex_freq_6_amplitude_5_rep_3_b_D.png	 D	 b	 b	 n.a.	 2.704986e-01
7	 2	 170	 unflanked	 bex	 32	 3.000000	 0.000000	 unflanked_bex_freq_32_amplitude_3_rep_0_t_N.png	 N	 t	 t	 n.a.	 3.892589e-01
7	 2	 171	 unflanked	 bex	 8	 5.000000	 0.000000	 unflanked_bex_freq_8_amplitude_5_rep_2_b_N.png	 N	 b	 b	 n.a.	 3.050714e-01
7	 2	 172	 unflanked	 bex	 6	 2.500000	 0.000000	 unflanked_bex_freq_6_amplitude_2.5_rep_4_t_K.png	 K	 t	 t	 n.a.	 2.787037e-01
7	 2	 173	 unflanked	 bex	 4	 0.500000	 0.000000	 unflanked_bex_freq_4_amplitude_0.5_rep_0_r_D.png	 D	 r	 r	 n.a.	 5.314468e-01
7	 2	 174	 unflanked	 bex	 4	 2.500000	 0.000000	 unflanked_bex_freq_4_amplitude_2.5_rep_6_l_K.png	 K	 l	 l	 n.a.	 4.415151e-01
7	 2	 175	 unflanked	 bex	 6	 0.500000	 0.000000	 unflanked_bex_freq_6_amplitude_0.5_rep_0_t_N.png	 N	 t	 t	 n.a.	 5.149492e-01
7	 2	 176	 unflanked	 bex	 32	 1.000000	 0.000000	 unflanked_bex_freq_32_amplitude_1_rep_8_l_H.png	 H	 l	 t	 n.a.	 5.737107e-01
7	 2	 177	 unflanked	 bex	 4	 0.500000	 0.000000	 unflanked_bex_freq_4_amplitude_0.5_rep_7_r_D.png	 D	 r	 t	 n.a.	 7.263399e-01
7	 2	 178	 unflanked	 bex	 16	 1.000000	 0.000000	 unflanked_bex_freq_16_amplitude_1_rep_7_l_H.png	 H	 l	 b	 n.a.	 7.251001e-01
7	 2	 179	 unflanked	 bex	 2	 2.000000	 0.000000	 unflanked_bex_freq_2_amplitude_2_rep_9_b_N.png	 N	 b	 b	 n.a.	 8.145844e-01
7	 2	 180	 unflanked	 bex	 6	 1.000000	 0.000000	 unflanked_bex_freq_6_amplitude_1_rep_3_b_K.png	 K	 b	 t	 n.a.	 8.636139e-01
7	 2	 181	 unflanked	 bex	 2	 3.000000	 0.000000	 unflanked_bex_freq_2_amplitude_3_rep_9_l_H.png	 H	 l	 l	 n.a.	 9.872249e-01
7	 2	 182	 unflanked	 bex	 2	 0.500000	 0.000000	 unflanked_bex_freq_2_amplitude_0.5_rep_0_l_N.png	 N	 l	 l	 n.a.	 7.541433e-01
7	 2	 183	 unflanked	 bex	 16	 2.500000	 0.000000	 unflanked_bex_freq_16_amplitude_2.5_rep_1_t_N.png	 N	 t	 t	 n.a.	 4.689288e-01
7	 2	 184	 unflanked	 bex	 16	 5.000000	 0.000000	 unflanked_bex_freq_16_amplitude_5_rep_9_b_N.png	 N	 b	 b	 n.a.	 4.714146e-01
7	 2	 185	 unflanked	 bex	 6	 0.500000	 0.000000	 unflanked_bex_freq_6_amplitude_0.5_rep_5_t_N.png	 N	 t	 t	 n.a.	 5.215406e-01
7	 2	 186	 unflanked	 bex	 2	 1.500000	 0.000000	 unflanked_bex_freq_2_amplitude_1.5_rep_7_b_N.png	 N	 b	 t	 n.a.	 7.724252e-01
7	 2	 187	 unflanked	 bex	 32	 0.500000	 0.000000	 unflanked_bex_freq_32_amplitude_0.5_rep_2_r_D.png	 D	 r	 r	 n.a.	 8.140375e-01
7	 2	 188	 unflanked	 bex	 8	 1.000000	 0.000000	 unflanked_bex_freq_8_amplitude_1_rep_6_r_H.png	 H	 r	 r	 n.a.	 8.064199e-01
7	 2	 189	 unflanked	 bex	 4	 3.000000	 0.000000	 unflanked_bex_freq_4_amplitude_3_rep_7_t_D.png	 D	 t	 t	 n.a.	 5.949004e-01
7	 2	 190	 unflanked	 bex	 8	 1.000000	 0.000000	 unflanked_bex_freq_8_amplitude_1_rep_9_b_K.png	 K	 b	 l	 n.a.	 7.071924e-01
7	 2	 191	 unflanked	 bex	 6	 2.000000	 0.000000	 unflanked_bex_freq_6_amplitude_2_rep_1_b_D.png	 D	 b	 t	 n.a.	 6.875517e-01
7	 2	 192	 unflanked	 bex	 32	 2.000000	 0.000000	 unflanked_bex_freq_32_amplitude_2_rep_8_b_H.png	 H	 b	 l	 n.a.	 6.373437e-01
7	 2	 193	 unflanked	 bex	 2	 5.000000	 0.000000	 unflanked_bex_freq_2_amplitude_5_rep_5_r_K.png	 K	 r	 r	 n.a.	 4.758724e-01
7	 2	 194	 unflanked	 bex	 6	 3.000000	 0.000000	 unflanked_bex_freq_6_amplitude_3_rep_2_l_H.png	 H	 l	 l	 n.a.	 4.704874e-01
7	 2	 195	 unflanked	 bex	 6	 2.500000	 0.000000	 unflanked_bex_freq_6_amplitude_2.5_rep_5_t_K.png	 K	 t	 t	 n.a.	 4.115391e-01
7	 2	 196	 unflanked	 bex	 32	 5.000000	 0.000000	 unflanked_bex_freq_32_amplitude_5_rep_0_b_D.png	 D	 b	 b	 n.a.	 4.594219e-01
7	 2	 197	 unflanked	 bex	 16	 0.500000	 0.000000	 unflanked_bex_freq_16_amplitude_0.5_rep_3_r_K.png	 K	 r	 t	 n.a.	 4.988676e-01
7	 2	 198	 unflanked	 bex	 6	 1.500000	 0.000000	 unflanked_bex_freq_6_amplitude_1.5_rep_8_l_H.png	 H	 l	 r	 n.a.	 5.360405e-01
7	 2	 199	 unflanked	 bex	 2	 0.500000	 0.000000	 unflanked_bex_freq_2_amplitude_0.5_rep_9_t_H.png	 H	 t	 t	 n.a.	 4.017393e-01
7	 2	 200	 unflanked	 bex	 16	 0.500000	 0.000000	 unflanked_bex_freq_16_amplitude_0.5_rep_0_r_N.png	 N	 r	 r	 n.a.	 5.765869e-01
7	 2	 201	 unflanked	 bex	 2	 5.000000	 0.000000	 unflanked_bex_freq_2_amplitude_5_rep_0_l_H.png	 H	 l	 l	 n.a.	 4.964228e-01
7	 2	 202	 unflanked	 bex	 32	 1.000000	 0.000000	 unflanked_bex_freq_32_amplitude_1_rep_3_l_H.png	 H	 l	 t	 n.a.	 5.015568e-01
7	 2	 203	 unflanked	 bex	 8	 3.000000	 0.000000	 unflanked_bex_freq_8_amplitude_3_rep_3_l_H.png	 H	 l	 l	 n.a.	 3.104364e-01
7	 2	 204	 unflanked	 bex	 6	 0.500000	 0.000000	 unflanked_bex_freq_6_amplitude_0.5_rep_8_r_K.png	 K	 r	 r	 n.a.	 5.233893e-01
7	 2	 205	 unflanked	 bex	 8	 2.500000	 0.000000	 unflanked_bex_freq_8_amplitude_2.5_rep_0_t_N.png	 N	 t	 t	 n.a.	 3.252178e-01
7	 2	 206	 unflanked	 bex	 2	 1.500000	 0.000000	 unflanked_bex_freq_2_amplitude_1.5_rep_5_l_H.png	 H	 l	 t	 n.a.	 5.785067e-01
7	 2	 207	 unflanked	 bex	 4	 2.500000	 0.000000	 unflanked_bex_freq_4_amplitude_2.5_rep_7_t_K.png	 K	 t	 t	 n.a.	 4.412571e-01
7	 2	 208	 unflanked	 bex	 32	 1.500000	 0.000000	 unflanked_bex_freq_32_amplitude_1.5_rep_8_l_H.png	 H	 l	 l	 n.a.	 6.461510e-01
7	 2	 209	 unflanked	 bex	 16	 2.500000	 0.000000	 unflanked_bex_freq_16_amplitude_2.5_rep_4_r_H.png	 H	 r	 r	 n.a.	 4.902050e-01
7	 2	 210	 unflanked	 bex	 6	 5.000000	 0.000000	 unflanked_bex_freq_6_amplitude_5_rep_2_t_K.png	 K	 t	 t	 n.a.	 2.580096e-01
7	 2	 211	 unflanked	 bex	 4	 2.500000	 0.000000	 unflanked_bex_freq_4_amplitude_2.5_rep_8_b_K.png	 K	 b	 b	 n.a.	 7.567302e-01
7	 2	 212	 unflanked	 bex	 16	 1.000000	 0.000000	 unflanked_bex_freq_16_amplitude_1_rep_1_l_K.png	 K	 l	 l	 n.a.	 5.712535e-01
7	 2	 213	 unflanked	 bex	 4	 3.000000	 0.000000	 unflanked_bex_freq_4_amplitude_3_rep_2_t_D.png	 D	 t	 t	 n.a.	 3.398484e-01
7	 2	 214	 unflanked	 bex	 2	 2.000000	 0.000000	 unflanked_bex_freq_2_amplitude_2_rep_8_t_D.png	 D	 t	 t	 n.a.	 3.660735e-01
7	 2	 215	 unflanked	 bex	 4	 0.500000	 0.000000	 unflanked_bex_freq_4_amplitude_0.5_rep_3_b_H.png	 H	 b	 t	 n.a.	 4.103748e-01
7	 2	 216	 unflanked	 bex	 6	 2.000000	 0.000000	 unflanked_bex_freq_6_amplitude_2_rep_2_l_K.png	 K	 l	 l	 n.a.	 2.689610e-01
7	 2	 217	 unflanked	 bex	 4	 3.000000	 0.000000	 unflanked_bex_freq_4_amplitude_3_rep_5_r_K.png	 K	 r	 r	 n.a.	 3.963446e-01
7	 2	 218	 unflanked	 bex	 32	 2.500000	 0.000000	 unflanked_bex_freq_32_amplitude_2.5_rep_4_r_N.png	 N	 r	 t	 n.a.	 4.666234e-01
7	 2	 219	 unflanked	 bex	 16	 3.000000	 0.000000	 unflanked_bex_freq_16_amplitude_3_rep_9_r_K.png	 K	 r	 r	 n.a.	 2.565995e-01
7	 2	 220	 unflanked	 bex	 2	 1.000000	 0.000000	 unflanked_bex_freq_2_amplitude_1_rep_4_b_D.png	 D	 b	 b	 n.a.	 5.241777e-01
7	 2	 221	 unflanked	 bex	 4	 2.000000	 0.000000	 unflanked_bex_freq_4_amplitude_2_rep_6_l_D.png	 D	 l	 l	 n.a.	 3.388072e-01
7	 2	 222	 unflanked	 bex	 6	 3.000000	 0.000000	 unflanked_bex_freq_6_amplitude_3_rep_0_b_K.png	 K	 b	 t	 n.a.	 7.190402e-01
7	 2	 223	 unflanked	 bex	 4	 0.500000	 0.000000	 unflanked_bex_freq_4_amplitude_0.5_rep_2_r_D.png	 D	 r	 t	 n.a.	 8.067994e-01
7	 2	 224	 unflanked	 bex	 2	 1.500000	 0.000000	 unflanked_bex_freq_2_amplitude_1.5_rep_0_b_K.png	 K	 b	 r	 n.a.	 7.957922e-01
7	 2	 225	 unflanked	 bex	 2	 3.000000	 0.000000	 unflanked_bex_freq_2_amplitude_3_rep_3_r_N.png	 N	 r	 r	 n.a.	 6.733387e-01
7	 2	 226	 unflanked	 bex	 16	 0.500000	 0.000000	 unflanked_bex_freq_16_amplitude_0.5_rep_1_r_H.png	 H	 r	 r	 n.a.	 1.032540e+00
7	 2	 227	 unflanked	 bex	 6	 1.500000	 0.000000	 unflanked_bex_freq_6_amplitude_1.5_rep_5_b_N.png	 N	 b	 t	 n.a.	 6.540760e-01
7	 2	 228	 unflanked	 bex	 2	 5.000000	 0.000000	 unflanked_bex_freq_2_amplitude_5_rep_4_b_N.png	 N	 b	 b	 n.a.	 3.568762e-01
7	 2	 229	 unflanked	 bex	 8	 1.000000	 0.000000	 unflanked_bex_freq_8_amplitude_1_rep_2_l_K.png	 K	 l	 l	 n.a.	 4.756735e-01
7	 2	 230	 unflanked	 bex	 2	 1.500000	 0.000000	 unflanked_bex_freq_2_amplitude_1.5_rep_2_r_K.png	 K	 r	 t	 n.a.	 6.141520e-01
7	 2	 231	 unflanked	 bex	 2	 5.000000	 0.000000	 unflanked_bex_freq_2_amplitude_5_rep_7_r_H.png	 H	 r	 r	 n.a.	 4.113567e-01
7	 2	 232	 unflanked	 bex	 16	 1.500000	 0.000000	 unflanked_bex_freq_16_amplitude_1.5_rep_3_t_D.png	 D	 t	 t	 n.a.	 8.144774e-01
7	 2	 233	 unflanked	 bex	 16	 1.500000	 0.000000	 unflanked_bex_freq_16_amplitude_1.5_rep_0_b_H.png	 H	 b	 r	 n.a.	 6.728079e-01
7	 2	 234	 unflanked	 bex	 32	 1.000000	 0.000000	 unflanked_bex_freq_32_amplitude_1_rep_9_r_K.png	 K	 r	 t	 n.a.	 6.423487e-01
7	 2	 235	 unflanked	 bex	 8	 0.500000	 0.000000	 unflanked_bex_freq_8_amplitude_0.5_rep_9_t_N.png	 N	 t	 r	 n.a.	 5.374951e-01
7	 2	 236	 unflanked	 bex	 6	 2.500000	 0.000000	 unflanked_bex_freq_6_amplitude_2.5_rep_6_b_D.png	 D	 b	 b	 n.a.	 3.233321e-01
7	 2	 237	 unflanked	 bex	 8	 2.500000	 0.000000	 unflanked_bex_freq_8_amplitude_2.5_rep_3_t_H.png	 H	 t	 t	 n.a.	 4.291104e-01
7	 2	 238	 unflanked	 bex	 8	 1.000000	 0.000000	 unflanked_bex_freq_8_amplitude_1_rep_0_b_N.png	 N	 b	 t	 n.a.	 6.301218e-01
7	 2	 239	 unflanked	 bex	 4	 0.500000	 0.000000	 unflanked_bex_freq_4_amplitude_0.5_rep_6_b_H.png	 H	 b	 r	 n.a.	 5.004912e-01
7	 2	 240	 unflanked	 bex	 2	 0.500000	 0.000000	 unflanked_bex_freq_2_amplitude_0.5_rep_7_r_K.png	 K	 r	 t	 n.a.	 6.743781e-01
7	 2	 241	 unflanked	 bex	 4	 1.500000	 0.000000	 unflanked_bex_freq_4_amplitude_1.5_rep_4_l_H.png	 H	 l	 l	 n.a.	 6.073625e-01
7	 2	 242	 unflanked	 bex	 32	 3.000000	 0.000000	 unflanked_bex_freq_32_amplitude_3_rep_5_r_N.png	 N	 r	 r	 n.a.	 5.118953e-01
7	 2	 243	 unflanked	 bex	 16	 2.000000	 0.000000	 unflanked_bex_freq_16_amplitude_2_rep_5_l_D.png	 D	 l	 l	 n.a.	 4.521143e-01
7	 2	 244	 unflanked	 bex	 8	 1.500000	 0.000000	 unflanked_bex_freq_8_amplitude_1.5_rep_5_t_K.png	 K	 t	 t	 n.a.	 4.196054e-01
7	 2	 245	 unflanked	 bex	 8	 2.500000	 0.000000	 unflanked_bex_freq_8_amplitude_2.5_rep_4_l_K.png	 K	 l	 l	 n.a.	 4.616391e-01
7	 2	 246	 unflanked	 bex	 4	 5.000000	 0.000000	 unflanked_bex_freq_4_amplitude_5_rep_0_t_D.png	 D	 t	 t	 n.a.	 4.228884e-01
7	 2	 247	 unflanked	 bex	 8	 1.000000	 0.000000	 unflanked_bex_freq_8_amplitude_1_rep_5_b_K.png	 K	 b	 r	 n.a.	 6.106804e-01
7	 2	 248	 unflanked	 bex	 8	 3.000000	 0.000000	 unflanked_bex_freq_8_amplitude_3_rep_4_b_N.png	 N	 b	 b	 n.a.	 3.572769e-01
7	 2	 249	 unflanked	 bex	 2	 1.000000	 0.000000	 unflanked_bex_freq_2_amplitude_1_rep_8_l_D.png	 D	 l	 l	 n.a.	 6.513341e-01
7	 2	 250	 unflanked	 bex	 6	 1.000000	 0.000000	 unflanked_bex_freq_6_amplitude_1_rep_5_b_N.png	 N	 b	 t	 n.a.	 4.266265e-01
7	 2	 251	 unflanked	 bex	 6	 5.000000	 0.000000	 unflanked_bex_freq_6_amplitude_5_rep_8_l_D.png	 D	 l	 l	 n.a.	 3.013913e-01
7	 2	 252	 unflanked	 bex	 16	 2.000000	 0.000000	 unflanked_bex_freq_16_amplitude_2_rep_3_l_K.png	 K	 l	 t	 n.a.	 4.159408e-01
7	 2	 253	 unflanked	 bex	 32	 3.000000	 0.000000	 unflanked_bex_freq_32_amplitude_3_rep_3_r_H.png	 H	 r	 r	 n.a.	 3.002109e-01
7	 2	 254	 unflanked	 bex	 6	 3.000000	 0.000000	 unflanked_bex_freq_6_amplitude_3_rep_3_t_D.png	 D	 t	 t	 n.a.	 4.025152e-01
7	 2	 255	 unflanked	 bex	 16	 3.000000	 0.000000	 unflanked_bex_freq_16_amplitude_3_rep_5_r_H.png	 H	 r	 r	 n.a.	 4.196690e-01
7	 2	 256	 unflanked	 bex	 6	 1.000000	 0.000000	 unflanked_bex_freq_6_amplitude_1_rep_4_l_K.png	 K	 l	 l	 n.a.	 3.947443e-01
7	 2	 257	 unflanked	 bex	 6	 5.000000	 0.000000	 unflanked_bex_freq_6_amplitude_5_rep_1_r_D.png	 D	 r	 r	 n.a.	 3.923789e-01
7	 2	 258	 unflanked	 bex	 16	 5.000000	 0.000000	 unflanked_bex_freq_16_amplitude_5_rep_4_t_K.png	 K	 t	 t	 n.a.	 3.651572e-01
7	 2	 259	 unflanked	 bex	 2	 3.000000	 0.000000	 unflanked_bex_freq_2_amplitude_3_rep_5_r_K.png	 K	 r	 r	 n.a.	 3.879264e-01
7	 2	 260	 unflanked	 bex	 32	 0.500000	 0.000000	 unflanked_bex_freq_32_amplitude_0.5_rep_5_l_D.png	 D	 l	 l	 n.a.	 5.026162e-01
7	 2	 261	 unflanked	 bex	 32	 3.000000	 0.000000	 unflanked_bex_freq_32_amplitude_3_rep_1_l_K.png	 K	 l	 t	 n.a.	 4.548292e-01
7	 2	 262	 unflanked	 bex	 16	 2.500000	 0.000000	 unflanked_bex_freq_16_amplitude_2.5_rep_2_r_N.png	 N	 r	 r	 n.a.	 3.100142e-01
7	 2	 263	 unflanked	 bex	 6	 3.000000	 0.000000	 unflanked_bex_freq_6_amplitude_3_rep_5_b_K.png	 K	 b	 b	 n.a.	 3.767411e-01
7	 2	 264	 unflanked	 bex	 2	 2.500000	 0.000000	 unflanked_bex_freq_2_amplitude_2.5_rep_9_r_N.png	 N	 r	 l	 n.a.	 4.419456e-01
7	 2	 265	 unflanked	 bex	 16	 2.500000	 0.000000	 unflanked_bex_freq_16_amplitude_2.5_rep_7_b_K.png	 K	 b	 t	 n.a.	 4.486820e-01
7	 2	 266	 unflanked	 bex	 8	 2.000000	 0.000000	 unflanked_bex_freq_8_amplitude_2_rep_5_b_N.png	 N	 b	 r	 n.a.	 3.554713e-01
7	 2	 267	 unflanked	 bex	 16	 3.000000	 0.000000	 unflanked_bex_freq_16_amplitude_3_rep_8_b_N.png	 N	 b	 b	 n.a.	 4.324475e-01
7	 2	 268	 unflanked	 bex	 6	 2.500000	 0.000000	 unflanked_bex_freq_6_amplitude_2.5_rep_1_b_H.png	 H	 b	 b	 n.a.	 4.763004e-01
7	 2	 269	 unflanked	 bex	 6	 2.500000	 0.000000	 unflanked_bex_freq_6_amplitude_2.5_rep_8_r_N.png	 N	 r	 r	 n.a.	 3.769598e-01
7	 2	 270	 unflanked	 bex	 4	 0.500000	 0.000000	 unflanked_bex_freq_4_amplitude_0.5_rep_9_r_K.png	 K	 r	 t	 n.a.	 4.165450e-01
7	 2	 271	 unflanked	 bex	 16	 0.500000	 0.000000	 unflanked_bex_freq_16_amplitude_0.5_rep_7_t_D.png	 D	 t	 l	 n.a.	 5.581265e-01
7	 2	 272	 unflanked	 bex	 6	 0.500000	 0.000000	 unflanked_bex_freq_6_amplitude_0.5_rep_1_r_K.png	 K	 r	 r	 n.a.	 4.251164e-01
7	 2	 273	 unflanked	 bex	 16	 0.500000	 0.000000	 unflanked_bex_freq_16_amplitude_0.5_rep_9_b_K.png	 K	 b	 t	 n.a.	 7.262089e-01
7	 2	 274	 unflanked	 bex	 32	 3.000000	 0.000000	 unflanked_bex_freq_32_amplitude_3_rep_4_t_D.png	 D	 t	 t	 n.a.	 7.406506e-01
7	 2	 275	 unflanked	 bex	 4	 3.000000	 0.000000	 unflanked_bex_freq_4_amplitude_3_rep_0_r_H.png	 H	 r	 r	 n.a.	 5.478440e-01
7	 2	 276	 unflanked	 bex	 32	 2.500000	 0.000000	 unflanked_bex_freq_32_amplitude_2.5_rep_9_l_K.png	 K	 l	 l	 n.a.	 4.252926e-01
7	 2	 277	 unflanked	 bex	 6	 2.500000	 0.000000	 unflanked_bex_freq_6_amplitude_2.5_rep_0_t_K.png	 K	 t	 t	 n.a.	 3.901987e-01
7	 2	 278	 unflanked	 bex	 4	 3.000000	 0.000000	 unflanked_bex_freq_4_amplitude_3_rep_8_l_N.png	 N	 l	 l	 n.a.	 8.023775e-01
7	 2	 279	 unflanked	 bex	 32	 1.000000	 0.000000	 unflanked_bex_freq_32_amplitude_1_rep_1_l_K.png	 K	 l	 l	 n.a.	 7.736588e-01
7	 2	 280	 unflanked	 bex	 2	 0.500000	 0.000000	 unflanked_bex_freq_2_amplitude_0.5_rep_2_t_D.png	 D	 t	 t	 n.a.	 6.884439e-01
7	 2	 281	 unflanked	 bex	 2	 3.000000	 0.000000	 unflanked_bex_freq_2_amplitude_3_rep_2_r_K.png	 K	 r	 r	 n.a.	 2.894307e-01
7	 2	 282	 unflanked	 bex	 32	 2.000000	 0.000000	 unflanked_bex_freq_32_amplitude_2_rep_4_t_H.png	 H	 t	 t	 n.a.	 4.348728e-01
7	 2	 283	 unflanked	 bex	 4	 1.000000	 0.000000	 unflanked_bex_freq_4_amplitude_1_rep_9_t_K.png	 K	 t	 t	 n.a.	 4.272662e-01
7	 2	 284	 unflanked	 bex	 32	 1.000000	 0.000000	 unflanked_bex_freq_32_amplitude_1_rep_7_l_K.png	 K	 l	 l	 n.a.	 5.512987e-01
7	 2	 285	 unflanked	 bex	 16	 2.000000	 0.000000	 unflanked_bex_freq_16_amplitude_2_rep_6_l_N.png	 N	 l	 l	 n.a.	 3.925752e-01
7	 2	 286	 unflanked	 bex	 8	 3.000000	 0.000000	 unflanked_bex_freq_8_amplitude_3_rep_5_b_N.png	 N	 b	 b	 n.a.	 3.954959e-01
7	 2	 287	 unflanked	 bex	 2	 3.000000	 0.000000	 unflanked_bex_freq_2_amplitude_3_rep_0_t_H.png	 H	 t	 t	 n.a.	 3.274126e-01
7	 2	 288	 unflanked	 bex	 4	 1.000000	 0.000000	 unflanked_bex_freq_4_amplitude_1_rep_8_t_H.png	 H	 t	 r	 n.a.	 4.468164e-01
7	 2	 289	 unflanked	 bex	 2	 0.500000	 0.000000	 unflanked_bex_freq_2_amplitude_0.5_rep_6_l_H.png	 H	 l	 t	 n.a.	 3.130645e-01
7	 2	 290	 unflanked	 bex	 8	 1.500000	 0.000000	 unflanked_bex_freq_8_amplitude_1.5_rep_9_t_H.png	 H	 t	 t	 n.a.	 4.168599e-01
7	 2	 291	 unflanked	 bex	 6	 0.500000	 0.000000	 unflanked_bex_freq_6_amplitude_0.5_rep_6_t_N.png	 N	 t	 b	 n.a.	 5.252921e-01
7	 2	 292	 unflanked	 bex	 2	 2.500000	 0.000000	 unflanked_bex_freq_2_amplitude_2.5_rep_3_b_K.png	 K	 b	 t	 n.a.	 6.419120e-01
7	 2	 293	 unflanked	 bex	 6	 3.000000	 0.000000	 unflanked_bex_freq_6_amplitude_3_rep_1_t_H.png	 H	 t	 t	 n.a.	 2.823786e-01
7	 2	 294	 unflanked	 bex	 6	 0.500000	 0.000000	 unflanked_bex_freq_6_amplitude_0.5_rep_4_t_K.png	 K	 t	 r	 n.a.	 6.597275e-01
7	 2	 295	 unflanked	 bex	 8	 2.500000	 0.000000	 unflanked_bex_freq_8_amplitude_2.5_rep_5_b_D.png	 D	 b	 b	 n.a.	 3.669121e-01
7	 2	 296	 unflanked	 bex	 4	 2.500000	 0.000000	 unflanked_bex_freq_4_amplitude_2.5_rep_4_b_D.png	 D	 b	 b	 n.a.	 4.718277e-01
7	 2	 297	 unflanked	 bex	 32	 2.000000	 0.000000	 unflanked_bex_freq_32_amplitude_2_rep_1_r_K.png	 K	 r	 r	 n.a.	 4.828032e-01
7	 2	 298	 unflanked	 bex	 2	 1.000000	 0.000000	 unflanked_bex_freq_2_amplitude_1_rep_7_t_K.png	 K	 t	 r	 n.a.	 7.622299e-01
7	 2	 299	 unflanked	 bex	 16	 1.500000	 0.000000	 unflanked_bex_freq_16_amplitude_1.5_rep_6_t_N.png	 N	 t	 t	 n.a.	 5.482691e-01
7	 2	 300	 unflanked	 bex	 32	 1.000000	 0.000000	 unflanked_bex_freq_32_amplitude_1_rep_6_b_K.png	 K	 b	 t	 n.a.	 6.060344e-01
7	 2	 301	 unflanked	 bex	 8	 3.000000	 0.000000	 unflanked_bex_freq_8_amplitude_3_rep_7_t_D.png	 D	 t	 t	 n.a.	 3.607795e-01
7	 2	 302	 unflanked	 bex	 4	 2.500000	 0.000000	 unflanked_bex_freq_4_amplitude_2.5_rep_3_r_H.png	 H	 r	 r	 n.a.	 3.996955e-01
7	 2	 303	 unflanked	 bex	 6	 1.000000	 0.000000	 unflanked_bex_freq_6_amplitude_1_rep_9_r_N.png	 N	 r	 r	 n.a.	 3.205143e-01
7	 2	 304	 unflanked	 bex	 4	 1.000000	 0.000000	 unflanked_bex_freq_4_amplitude_1_rep_7_l_K.png	 K	 l	 r	 n.a.	 7.525258e-01
7	 2	 305	 unflanked	 bex	 16	 2.000000	 0.000000	 unflanked_bex_freq_16_amplitude_2_rep_7_t_K.png	 K	 t	 t	 n.a.	 3.295495e-01
7	 2	 306	 unflanked	 bex	 4	 2.500000	 0.000000	 unflanked_bex_freq_4_amplitude_2.5_rep_2_t_N.png	 N	 t	 r	 n.a.	 4.401623e-01
7	 2	 307	 unflanked	 bex	 6	 1.500000	 0.000000	 unflanked_bex_freq_6_amplitude_1.5_rep_6_t_K.png	 K	 t	 l	 n.a.	 6.325579e-01
7	 2	 308	 unflanked	 bex	 4	 2.000000	 0.000000	 unflanked_bex_freq_4_amplitude_2_rep_7_l_N.png	 N	 l	 l	 n.a.	 4.078228e-01
7	 2	 309	 unflanked	 bex	 8	 5.000000	 0.000000	 unflanked_bex_freq_8_amplitude_5_rep_5_r_D.png	 D	 r	 r	 n.a.	 2.898511e-01
7	 2	 310	 unflanked	 bex	 8	 2.500000	 0.000000	 unflanked_bex_freq_8_amplitude_2.5_rep_9_b_N.png	 N	 b	 b	 n.a.	 3.281930e-01
7	 2	 311	 unflanked	 bex	 2	 2.000000	 0.000000	 unflanked_bex_freq_2_amplitude_2_rep_3_l_D.png	 D	 l	 r	 n.a.	 5.793852e-01
7	 2	 312	 unflanked	 bex	 2	 0.500000	 0.000000	 unflanked_bex_freq_2_amplitude_0.5_rep_8_t_D.png	 D	 t	 t	 n.a.	 5.210258e-01
7	 2	 313	 unflanked	 bex	 16	 5.000000	 0.000000	 unflanked_bex_freq_16_amplitude_5_rep_7_l_N.png	 N	 l	 l	 n.a.	 3.351710e-01
7	 2	 314	 unflanked	 bex	 32	 1.000000	 0.000000	 unflanked_bex_freq_32_amplitude_1_rep_4_r_D.png	 D	 r	 r	 n.a.	 3.886291e-01
7	 2	 315	 unflanked	 bex	 4	 0.500000	 0.000000	 unflanked_bex_freq_4_amplitude_0.5_rep_4_l_K.png	 K	 l	 r	 n.a.	 1.235281e+00
7	 2	 316	 unflanked	 bex	 16	 2.000000	 0.000000	 unflanked_bex_freq_16_amplitude_2_rep_2_t_H.png	 H	 t	 t	 n.a.	 5.312834e-01
7	 2	 317	 unflanked	 bex	 2	 0.500000	 0.000000	 unflanked_bex_freq_2_amplitude_0.5_rep_4_r_K.png	 K	 r	 r	 n.a.	 3.979127e-01
7	 2	 318	 unflanked	 bex	 6	 2.000000	 0.000000	 unflanked_bex_freq_6_amplitude_2_rep_7_t_N.png	 N	 t	 t	 n.a.	 3.610599e-01
7	 2	 319	 unflanked	 bex	 32	 5.000000	 0.000000	 unflanked_bex_freq_32_amplitude_5_rep_2_r_K.png	 K	 r	 r	 n.a.	 3.327437e-01
7	 2	 320	 unflanked	 bex	 6	 5.000000	 0.000000	 unflanked_bex_freq_6_amplitude_5_rep_9_t_H.png	 H	 t	 t	 n.a.	 3.280496e-01
7	 2	 321	 unflanked	 bex	 8	 2.000000	 0.000000	 unflanked_bex_freq_8_amplitude_2_rep_1_l_D.png	 D	 l	 l	 n.a.	 3.321926e-01
7	 2	 322	 unflanked	 bex	 2	 1.000000	 0.000000	 unflanked_bex_freq_2_amplitude_1_rep_9_t_N.png	 N	 t	 t	 n.a.	 3.674206e-01
7	 2	 323	 unflanked	 bex	 2	 1.500000	 0.000000	 unflanked_bex_freq_2_amplitude_1.5_rep_6_t_H.png	 H	 t	 b	 n.a.	 4.360775e-01
7	 2	 324	 unflanked	 bex	 6	 1.000000	 0.000000	 unflanked_bex_freq_6_amplitude_1_rep_0_r_H.png	 H	 r	 l	 n.a.	 5.369266e-01
7	 2	 325	 unflanked	 bex	 6	 0.500000	 0.000000	 unflanked_bex_freq_6_amplitude_0.5_rep_3_b_D.png	 D	 b	 t	 n.a.	 4.068414e-01
7	 2	 326	 unflanked	 bex	 32	 2.500000	 0.000000	 unflanked_bex_freq_32_amplitude_2.5_rep_7_l_H.png	 H	 l	 r	 n.a.	 6.076252e-01
7	 2	 327	 unflanked	 bex	 32	 3.000000	 0.000000	 unflanked_bex_freq_32_amplitude_3_rep_9_r_H.png	 H	 r	 r	 n.a.	 3.963972e-01
7	 2	 328	 unflanked	 bex	 8	 0.500000	 0.000000	 unflanked_bex_freq_8_amplitude_0.5_rep_4_r_D.png	 D	 r	 t	 n.a.	 4.082410e-01
7	 2	 329	 unflanked	 bex	 8	 3.000000	 0.000000	 unflanked_bex_freq_8_amplitude_3_rep_1_r_K.png	 K	 r	 r	 n.a.	 3.669935e-01
7	 2	 330	 unflanked	 bex	 8	 1.500000	 0.000000	 unflanked_bex_freq_8_amplitude_1.5_rep_8_l_D.png	 D	 l	 l	 n.a.	 2.487344e-01
7	 2	 331	 unflanked	 bex	 2	 2.000000	 0.000000	 unflanked_bex_freq_2_amplitude_2_rep_7_b_H.png	 H	 b	 l	 n.a.	 5.499236e-01
7	 2	 332	 unflanked	 bex	 4	 3.000000	 0.000000	 unflanked_bex_freq_4_amplitude_3_rep_1_r_K.png	 K	 r	 r	 n.a.	 3.403819e-01
7	 2	 333	 unflanked	 bex	 8	 1.000000	 0.000000	 unflanked_bex_freq_8_amplitude_1_rep_4_b_H.png	 H	 b	 l	 n.a.	 7.710960e-01
7	 2	 334	 unflanked	 bex	 8	 1.500000	 0.000000	 unflanked_bex_freq_8_amplitude_1.5_rep_7_r_K.png	 K	 r	 r	 n.a.	 3.953102e-01
7	 2	 335	 unflanked	 bex	 32	 0.500000	 0.000000	 unflanked_bex_freq_32_amplitude_0.5_rep_1_b_K.png	 K	 b	 t	 n.a.	 4.018561e-01
7	 2	 336	 unflanked	 bex	 2	 1.500000	 0.000000	 unflanked_bex_freq_2_amplitude_1.5_rep_1_t_N.png	 N	 t	 l	 n.a.	 1.062146e+00
7	 2	 337	 unflanked	 bex	 32	 5.000000	 0.000000	 unflanked_bex_freq_32_amplitude_5_rep_5_b_K.png	 K	 b	 b	 n.a.	 4.340572e-01
7	 2	 338	 unflanked	 bex	 4	 1.500000	 0.000000	 unflanked_bex_freq_4_amplitude_1.5_rep_8_t_K.png	 K	 t	 t	 n.a.	 3.887043e-01
7	 2	 339	 unflanked	 bex	 6	 2.000000	 0.000000	 unflanked_bex_freq_6_amplitude_2_rep_6_l_N.png	 N	 l	 l	 n.a.	 2.633363e-01
7	 2	 340	 unflanked	 bex	 2	 2.500000	 0.000000	 unflanked_bex_freq_2_amplitude_2.5_rep_0_r_H.png	 H	 r	 r	 n.a.	 3.501711e-01
7	 2	 341	 unflanked	 bex	 8	 1.500000	 0.000000	 unflanked_bex_freq_8_amplitude_1.5_rep_6_r_D.png	 D	 r	 r	 n.a.	 5.214083e-01
7	 2	 342	 unflanked	 bex	 16	 3.000000	 0.000000	 unflanked_bex_freq_16_amplitude_3_rep_7_l_H.png	 H	 l	 l	 n.a.	 3.994745e-01
7	 2	 343	 unflanked	 bex	 2	 1.500000	 0.000000	 unflanked_bex_freq_2_amplitude_1.5_rep_8_l_K.png	 K	 l	 t	 n.a.	 4.090784e-01
7	 2	 344	 unflanked	 bex	 6	 1.500000	 0.000000	 unflanked_bex_freq_6_amplitude_1.5_rep_1_b_N.png	 N	 b	 b	 n.a.	 5.102608e-01
7	 2	 345	 unflanked	 bex	 2	 0.500000	 0.000000	 unflanked_bex_freq_2_amplitude_0.5_rep_5_t_N.png	 N	 t	 t	 n.a.	 4.665629e-01
7	 2	 346	 unflanked	 bex	 2	 2.000000	 0.000000	 unflanked_bex_freq_2_amplitude_2_rep_4_l_N.png	 N	 l	 l	 n.a.	 3.360545e-01
7	 2	 347	 unflanked	 bex	 6	 0.500000	 0.000000	 unflanked_bex_freq_6_amplitude_0.5_rep_2_t_K.png	 K	 t	 t	 n.a.	 3.291338e-01
7	 2	 348	 unflanked	 bex	 2	 2.500000	 0.000000	 unflanked_bex_freq_2_amplitude_2.5_rep_7_t_K.png	 K	 t	 t	 n.a.	 3.865765e-01
7	 2	 349	 unflanked	 bex	 32	 1.500000	 0.000000	 unflanked_bex_freq_32_amplitude_1.5_rep_9_b_H.png	 H	 b	 r	 n.a.	 3.823842e-01
7	 2	 350	 unflanked	 bex	 32	 2.500000	 0.000000	 unflanked_bex_freq_32_amplitude_2.5_rep_8_b_N.png	 N	 b	 b	 n.a.	 4.835239e-01
7	 2	 351	 unflanked	 bex	 4	 2.000000	 0.000000	 unflanked_bex_freq_4_amplitude_2_rep_8_b_K.png	 K	 b	 b	 n.a.	 5.651634e-01
7	 2	 352	 unflanked	 bex	 32	 5.000000	 0.000000	 unflanked_bex_freq_32_amplitude_5_rep_4_t_D.png	 D	 t	 t	 n.a.	 3.232036e-01
7	 2	 353	 unflanked	 bex	 32	 5.000000	 0.000000	 unflanked_bex_freq_32_amplitude_5_rep_6_b_N.png	 N	 b	 r	 n.a.	 4.337046e-01
7	 2	 354	 unflanked	 bex	 8	 0.500000	 0.000000	 unflanked_bex_freq_8_amplitude_0.5_rep_8_r_K.png	 K	 r	 t	 n.a.	 3.638121e-01
7	 2	 355	 unflanked	 bex	 16	 1.500000	 0.000000	 unflanked_bex_freq_16_amplitude_1.5_rep_7_r_K.png	 K	 r	 r	 n.a.	 8.714490e-01
7	 2	 356	 unflanked	 bex	 6	 5.000000	 0.000000	 unflanked_bex_freq_6_amplitude_5_rep_5_l_N.png	 N	 l	 l	 n.a.	 2.962780e-01
7	 2	 357	 unflanked	 bex	 8	 2.500000	 0.000000	 unflanked_bex_freq_8_amplitude_2.5_rep_7_t_K.png	 K	 t	 t	 n.a.	 2.440236e-01
7	 2	 358	 unflanked	 bex	 8	 2.000000	 0.000000	 unflanked_bex_freq_8_amplitude_2_rep_0_r_N.png	 N	 r	 r	 n.a.	 4.961482e-01
7	 2	 359	 unflanked	 bex	 4	 2.500000	 0.000000	 unflanked_bex_freq_4_amplitude_2.5_rep_9_l_H.png	 H	 l	 l	 n.a.	 5.926527e-01
7	 2	 360	 unflanked	 bex	 4	 0.500000	 0.000000	 unflanked_bex_freq_4_amplitude_0.5_rep_8_r_H.png	 H	 r	 t	 n.a.	 3.792827e-01
7	 2	 361	 unflanked	 bex	 6	 5.000000	 0.000000	 unflanked_bex_freq_6_amplitude_5_rep_6_t_N.png	 N	 t	 t	 n.a.	 2.990206e-01
7	 2	 362	 unflanked	 bex	 16	 2.500000	 0.000000	 unflanked_bex_freq_16_amplitude_2.5_rep_9_l_D.png	 D	 l	 l	 n.a.	 3.172916e-01
7	 2	 363	 unflanked	 bex	 32	 5.000000	 0.000000	 unflanked_bex_freq_32_amplitude_5_rep_9_l_H.png	 H	 l	 l	 n.a.	 2.960628e-01
7	 2	 364	 unflanked	 bex	 4	 2.000000	 0.000000	 unflanked_bex_freq_4_amplitude_2_rep_0_r_K.png	 K	 r	 r	 n.a.	 3.636188e-01
7	 2	 365	 unflanked	 bex	 8	 5.000000	 0.000000	 unflanked_bex_freq_8_amplitude_5_rep_1_l_D.png	 D	 l	 l	 n.a.	 2.895558e-01
7	 2	 366	 unflanked	 bex	 2	 1.000000	 0.000000	 unflanked_bex_freq_2_amplitude_1_rep_0_r_D.png	 D	 r	 t	 n.a.	 4.073452e-01
7	 2	 367	 unflanked	 bex	 2	 1.500000	 0.000000	 unflanked_bex_freq_2_amplitude_1.5_rep_4_r_H.png	 H	 r	 t	 n.a.	 4.899714e-01
7	 2	 368	 unflanked	 bex	 32	 0.500000	 0.000000	 unflanked_bex_freq_32_amplitude_0.5_rep_4_b_H.png	 H	 b	 b	 n.a.	 6.417442e-01
7	 2	 369	 unflanked	 bex	 2	 5.000000	 0.000000	 unflanked_bex_freq_2_amplitude_5_rep_8_t_D.png	 D	 t	 t	 n.a.	 3.046415e-01
7	 2	 370	 unflanked	 bex	 32	 2.000000	 0.000000	 unflanked_bex_freq_32_amplitude_2_rep_5_b_K.png	 K	 b	 r	 n.a.	 5.002635e-01
7	 2	 371	 unflanked	 bex	 4	 5.000000	 0.000000	 unflanked_bex_freq_4_amplitude_5_rep_2_l_K.png	 K	 l	 l	 n.a.	 2.340722e-01
7	 2	 372	 unflanked	 bex	 16	 1.000000	 0.000000	 unflanked_bex_freq_16_amplitude_1_rep_3_r_K.png	 K	 r	 r	 n.a.	 4.391002e-01
7	 2	 373	 unflanked	 bex	 32	 2.500000	 0.000000	 unflanked_bex_freq_32_amplitude_2.5_rep_1_l_H.png	 H	 l	 l	 n.a.	 3.319982e-01
7	 2	 374	 unflanked	 bex	 16	 5.000000	 0.000000	 unflanked_bex_freq_16_amplitude_5_rep_8_l_D.png	 D	 l	 l	 n.a.	 2.876145e-01
7	 2	 375	 unflanked	 bex	 8	 3.000000	 0.000000	 unflanked_bex_freq_8_amplitude_3_rep_8_l_H.png	 H	 l	 l	 n.a.	 2.664727e-01
7	 2	 376	 unflanked	 bex	 16	 3.000000	 0.000000	 unflanked_bex_freq_16_amplitude_3_rep_2_t_D.png	 D	 t	 t	 n.a.	 3.163389e-01
7	 2	 377	 unflanked	 bex	 16	 2.500000	 0.000000	 unflanked_bex_freq_16_amplitude_2.5_rep_8_t_K.png	 K	 t	 t	 n.a.	 3.632144e-01
7	 2	 378	 unflanked	 bex	 6	 2.000000	 0.000000	 unflanked_bex_freq_6_amplitude_2_rep_9_l_K.png	 K	 l	 l	 n.a.	 2.589477e-01
7	 2	 379	 unflanked	 bex	 4	 1.500000	 0.000000	 unflanked_bex_freq_4_amplitude_1.5_rep_2_t_H.png	 H	 t	 l	 n.a.	 2.027893e-01
7	 2	 380	 unflanked	 bex	 4	 2.500000	 0.000000	 unflanked_bex_freq_4_amplitude_2.5_rep_0_b_K.png	 K	 b	 b	 n.a.	 3.461234e-01
7	 2	 381	 unflanked	 bex	 32	 2.000000	 0.000000	 unflanked_bex_freq_32_amplitude_2_rep_0_r_N.png	 N	 r	 t	 n.a.	 2.452551e-01
7	 2	 382	 unflanked	 bex	 32	 0.500000	 0.000000	 unflanked_bex_freq_32_amplitude_0.5_rep_7_l_N.png	 N	 l	 r	 n.a.	 3.369235e-01
7	 2	 383	 unflanked	 bex	 2	 5.000000	 0.000000	 unflanked_bex_freq_2_amplitude_5_rep_1_r_K.png	 K	 r	 r	 n.a.	 3.286682e-01
7	 2	 384	 unflanked	 bex	 16	 2.000000	 0.000000	 unflanked_bex_freq_16_amplitude_2_rep_4_b_D.png	 D	 b	 b	 n.a.	 3.957985e-01
7	 2	 385	 unflanked	 bex	 8	 0.500000	 0.000000	 unflanked_bex_freq_8_amplitude_0.5_rep_1_r_D.png	 D	 r	 t	 n.a.	 4.994471e-01
7	 2	 386	 unflanked	 bex	 32	 1.500000	 0.000000	 unflanked_bex_freq_32_amplitude_1.5_rep_3_l_N.png	 N	 l	 r	 n.a.	 4.601505e-01
7	 2	 387	 unflanked	 bex	 8	 2.500000	 0.000000	 unflanked_bex_freq_8_amplitude_2.5_rep_8_r_K.png	 K	 r	 r	 n.a.	 2.964230e-01
7	 2	 388	 unflanked	 bex	 2	 2.000000	 0.000000	 unflanked_bex_freq_2_amplitude_2_rep_5_r_K.png	 K	 r	 t	 n.a.	 4.288444e-01
7	 2	 389	 unflanked	 bex	 32	 2.000000	 0.000000	 unflanked_bex_freq_32_amplitude_2_rep_6_r_K.png	 K	 r	 r	 n.a.	 3.594352e-01
7	 2	 390	 unflanked	 bex	 8	 1.000000	 0.000000	 unflanked_bex_freq_8_amplitude_1_rep_1_l_H.png	 H	 l	 l	 n.a.	 4.884211e-01
7	 2	 391	 unflanked	 bex	 2	 3.000000	 0.000000	 unflanked_bex_freq_2_amplitude_3_rep_1_l_K.png	 K	 l	 l	 n.a.	 3.489050e-01
7	 2	 392	 unflanked	 bex	 6	 1.500000	 0.000000	 unflanked_bex_freq_6_amplitude_1.5_rep_2_b_D.png	 D	 b	 b	 n.a.	 4.284702e-01
7	 2	 393	 unflanked	 bex	 6	 2.000000	 0.000000	 unflanked_bex_freq_6_amplitude_2_rep_0_r_H.png	 H	 r	 r	 n.a.	 3.991197e-01
7	 2	 394	 unflanked	 bex	 2	 1.500000	 0.000000	 unflanked_bex_freq_2_amplitude_1.5_rep_3_b_H.png	 H	 b	 t	 n.a.	 4.683161e-01
7	 2	 395	 unflanked	 bex	 16	 1.000000	 0.000000	 unflanked_bex_freq_16_amplitude_1_rep_6_t_D.png	 D	 t	 r	 n.a.	 3.706438e-01
7	 2	 396	 unflanked	 bex	 8	 2.500000	 0.000000	 unflanked_bex_freq_8_amplitude_2.5_rep_1_t_H.png	 H	 t	 t	 n.a.	 3.889977e-01
7	 2	 397	 unflanked	 bex	 2	 2.500000	 0.000000	 unflanked_bex_freq_2_amplitude_2.5_rep_1_b_K.png	 K	 b	 b	 n.a.	 3.615443e-01
7	 2	 398	 unflanked	 bex	 4	 1.000000	 0.000000	 unflanked_bex_freq_4_amplitude_1_rep_3_l_K.png	 K	 l	 t	 n.a.	 4.159258e-01
7	 2	 399	 unflanked	 bex	 16	 2.000000	 0.000000	 unflanked_bex_freq_16_amplitude_2_rep_0_l_K.png	 K	 l	 l	 n.a.	 4.169303e-01
7	 2	 400	 unflanked	 bex	 8	 0.500000	 0.000000	 unflanked_bex_freq_8_amplitude_0.5_rep_0_b_N.png	 N	 b	 r	 n.a.	 5.744570e-01
7	 2	 401	 unflanked	 bex	 4	 3.000000	 0.000000	 unflanked_bex_freq_4_amplitude_3_rep_3_b_D.png	 D	 b	 b	 n.a.	 3.518549e-01
7	 2	 402	 unflanked	 bex	 6	 0.500000	 0.000000	 unflanked_bex_freq_6_amplitude_0.5_rep_7_l_D.png	 D	 l	 t	 n.a.	 4.185659e-01
7	 2	 403	 unflanked	 bex	 4	 5.000000	 0.000000	 unflanked_bex_freq_4_amplitude_5_rep_5_r_K.png	 K	 r	 r	 n.a.	 2.962238e-01
7	 2	 404	 unflanked	 bex	 8	 5.000000	 0.000000	 unflanked_bex_freq_8_amplitude_5_rep_4_l_D.png	 D	 l	 l	 n.a.	 2.564427e-01
7	 2	 405	 unflanked	 bex	 16	 1.500000	 0.000000	 unflanked_bex_freq_16_amplitude_1.5_rep_9_t_H.png	 H	 t	 b	 n.a.	 8.268580e-01
7	 2	 406	 unflanked	 bex	 16	 0.500000	 0.000000	 unflanked_bex_freq_16_amplitude_0.5_rep_8_l_D.png	 D	 l	 b	 n.a.	 5.676551e-01
7	 2	 407	 unflanked	 bex	 16	 3.000000	 0.000000	 unflanked_bex_freq_16_amplitude_3_rep_4_l_N.png	 N	 l	 l	 n.a.	 4.468401e-01
7	 2	 408	 unflanked	 bex	 2	 1.000000	 0.000000	 unflanked_bex_freq_2_amplitude_1_rep_2_r_K.png	 K	 r	 r	 n.a.	 2.817874e-01
7	 2	 409	 unflanked	 bex	 2	 2.000000	 0.000000	 unflanked_bex_freq_2_amplitude_2_rep_0_r_N.png	 N	 r	 l	 n.a.	 5.505944e-01
7	 2	 410	 unflanked	 bex	 16	 0.500000	 0.000000	 unflanked_bex_freq_16_amplitude_0.5_rep_2_r_N.png	 N	 r	 r	 n.a.	 3.092156e-01
7	 2	 411	 unflanked	 bex	 8	 5.000000	 0.000000	 unflanked_bex_freq_8_amplitude_5_rep_6_t_N.png	 N	 t	 t	 n.a.	 2.955650e-01
7	 2	 412	 unflanked	 bex	 4	 1.500000	 0.000000	 unflanked_bex_freq_4_amplitude_1.5_rep_9_r_K.png	 K	 r	 r	 n.a.	 3.222041e-01
7	 2	 413	 unflanked	 bex	 4	 2.000000	 0.000000	 unflanked_bex_freq_4_amplitude_2_rep_5_t_H.png	 H	 t	 r	 n.a.	 4.302587e-01
7	 2	 414	 unflanked	 bex	 16	 5.000000	 0.000000	 unflanked_bex_freq_16_amplitude_5_rep_5_r_N.png	 N	 r	 r	 n.a.	 3.068651e-01
7	 2	 415	 unflanked	 bex	 2	 0.500000	 0.000000	 unflanked_bex_freq_2_amplitude_0.5_rep_3_r_H.png	 H	 r	 r	 n.a.	 4.200837e-01
7	 2	 416	 unflanked	 bex	 32	 1.000000	 0.000000	 unflanked_bex_freq_32_amplitude_1_rep_0_t_D.png	 D	 t	 t	 n.a.	 5.041999e-01
7	 2	 417	 unflanked	 bex	 6	 2.500000	 0.000000	 unflanked_bex_freq_6_amplitude_2.5_rep_2_b_K.png	 K	 b	 b	 n.a.	 3.111249e-01
7	 2	 418	 unflanked	 bex	 8	 2.000000	 0.000000	 unflanked_bex_freq_8_amplitude_2_rep_3_t_H.png	 H	 t	 t	 n.a.	 5.016195e-01
7	 2	 419	 unflanked	 bex	 16	 0.500000	 0.000000	 unflanked_bex_freq_16_amplitude_0.5_rep_5_l_K.png	 K	 l	 t	 n.a.	 6.972466e-01
7	 2	 420	 unflanked	 bex	 2	 2.500000	 0.000000	 unflanked_bex_freq_2_amplitude_2.5_rep_8_b_N.png	 N	 b	 b	 n.a.	 3.969091e-01
