subject	 session	 trial	 flanked	 distortion	 freq	 amplitude	 spacing	 im_name	 targ_letter	 targ_pos	 response	 eyemovement	 RT
2	 1	 1	 flanked	 rf	 12	 0.268300	 2.000000	 flanked_rf_freq_12_amplitude_0.2683_rep_8_l_D_2.0.png	 D	 l	 l	 n.a.	 5.649826e-01
2	 1	 2	 flanked	 rf	 2	 0.061700	 2.000000	 flanked_rf_freq_2_amplitude_0.0617_rep_0_t_N_2.0.png	 N	 t	 b	 n.a.	 4.101534e-01
2	 1	 3	 flanked	 rf	 4	 0.320000	 2.000000	 flanked_rf_freq_4_amplitude_0.32_rep_6_r_N_2.0.png	 N	 r	 r	 n.a.	 3.032312e-01
2	 1	 4	 flanked	 rf	 8	 0.268300	 2.000000	 flanked_rf_freq_8_amplitude_0.2683_rep_9_t_H_2.0.png	 H	 t	 t	 n.a.	 4.329710e-01
2	 1	 5	 flanked	 rf	 2	 0.113300	 2.000000	 flanked_rf_freq_2_amplitude_0.1133_rep_7_r_N_2.0.png	 N	 r	 l	 n.a.	 3.437736e-01
2	 1	 6	 flanked	 rf	 3	 0.010000	 2.000000	 flanked_rf_freq_3_amplitude_0.01_rep_8_b_H_2.0.png	 H	 b	 b	 n.a.	 2.097445e-01
2	 1	 7	 flanked	 rf	 8	 0.061700	 2.000000	 flanked_rf_freq_8_amplitude_0.0617_rep_9_b_K_2.0.png	 K	 b	 t	 n.a.	 3.545082e-01
2	 1	 8	 flanked	 rf	 2	 0.113300	 2.000000	 flanked_rf_freq_2_amplitude_0.1133_rep_5_b_K_2.0.png	 K	 b	 l	 n.a.	 1.723389e-01
2	 1	 9	 flanked	 rf	 8	 0.320000	 2.000000	 flanked_rf_freq_8_amplitude_0.32_rep_7_b_H_2.0.png	 H	 b	 r	 n.a.	 2.346080e-01
2	 1	 10	 flanked	 rf	 8	 0.010000	 2.000000	 flanked_rf_freq_8_amplitude_0.01_rep_0_t_H_2.0.png	 H	 t	 b	 n.a.	 3.244639e-01
2	 1	 11	 flanked	 rf	 8	 0.113300	 2.000000	 flanked_rf_freq_8_amplitude_0.1133_rep_5_b_H_2.0.png	 H	 b	 b	 n.a.	 4.227577e-01
2	 1	 12	 flanked	 rf	 3	 0.061700	 2.000000	 flanked_rf_freq_3_amplitude_0.0617_rep_8_t_H_2.0.png	 H	 t	 l	 n.a.	 2.817054e-01
2	 1	 13	 flanked	 rf	 12	 0.165000	 2.000000	 flanked_rf_freq_12_amplitude_0.165_rep_5_l_K_2.0.png	 K	 l	 l	 n.a.	 4.422204e-01
2	 1	 14	 flanked	 rf	 8	 0.061700	 2.000000	 flanked_rf_freq_8_amplitude_0.0617_rep_1_l_N_2.0.png	 N	 l	 l	 n.a.	 3.882411e-01
2	 1	 15	 flanked	 rf	 4	 0.216700	 2.000000	 flanked_rf_freq_4_amplitude_0.2167_rep_5_t_D_2.0.png	 D	 t	 t	 n.a.	 3.524783e-01
2	 1	 16	 flanked	 rf	 3	 0.061700	 2.000000	 flanked_rf_freq_3_amplitude_0.0617_rep_2_t_K_2.0.png	 K	 t	 r	 n.a.	 1.763607e-01
2	 1	 17	 flanked	 rf	 5	 0.165000	 2.000000	 flanked_rf_freq_5_amplitude_0.165_rep_0_r_D_2.0.png	 D	 r	 b	 n.a.	 2.552177e-01
2	 1	 18	 flanked	 rf	 3	 0.268300	 2.000000	 flanked_rf_freq_3_amplitude_0.2683_rep_7_b_N_2.0.png	 N	 b	 l	 n.a.	 3.578704e-01
2	 1	 19	 flanked	 rf	 3	 0.113300	 2.000000	 flanked_rf_freq_3_amplitude_0.1133_rep_7_r_D_2.0.png	 D	 r	 l	 n.a.	 4.663247e-01
2	 1	 20	 flanked	 rf	 4	 0.010000	 2.000000	 flanked_rf_freq_4_amplitude_0.01_rep_8_b_H_2.0.png	 H	 b	 t	 n.a.	 4.840899e-01
2	 1	 21	 flanked	 rf	 12	 0.320000	 2.000000	 flanked_rf_freq_12_amplitude_0.32_rep_8_b_N_2.0.png	 N	 b	 b	 n.a.	 3.138816e-01
2	 1	 22	 flanked	 rf	 4	 0.061700	 2.000000	 flanked_rf_freq_4_amplitude_0.0617_rep_8_l_D_2.0.png	 D	 l	 b	 n.a.	 5.549911e-01
2	 1	 23	 flanked	 rf	 8	 0.113300	 2.000000	 flanked_rf_freq_8_amplitude_0.1133_rep_3_l_H_2.0.png	 H	 l	 l	 n.a.	 3.382456e-01
2	 1	 24	 flanked	 rf	 5	 0.010000	 2.000000	 flanked_rf_freq_5_amplitude_0.01_rep_7_r_H_2.0.png	 H	 r	 l	 n.a.	 5.914963e-01
2	 1	 25	 flanked	 rf	 4	 0.216700	 2.000000	 flanked_rf_freq_4_amplitude_0.2167_rep_7_b_K_2.0.png	 K	 b	 l	 n.a.	 4.697400e-01
2	 1	 26	 flanked	 rf	 12	 0.320000	 2.000000	 flanked_rf_freq_12_amplitude_0.32_rep_5_l_H_2.0.png	 H	 l	 l	 n.a.	 3.122940e-01
2	 1	 27	 flanked	 rf	 5	 0.216700	 2.000000	 flanked_rf_freq_5_amplitude_0.2167_rep_5_r_H_2.0.png	 H	 r	 r	 n.a.	 4.340628e-01
2	 1	 28	 flanked	 rf	 12	 0.061700	 2.000000	 flanked_rf_freq_12_amplitude_0.0617_rep_0_b_D_2.0.png	 D	 b	 b	 n.a.	 3.344082e-01
2	 1	 29	 flanked	 rf	 8	 0.061700	 2.000000	 flanked_rf_freq_8_amplitude_0.0617_rep_0_r_N_2.0.png	 N	 r	 b	 n.a.	 4.072523e-01
2	 1	 30	 flanked	 rf	 12	 0.216700	 2.000000	 flanked_rf_freq_12_amplitude_0.2167_rep_4_l_N_2.0.png	 N	 l	 l	 n.a.	 2.994997e-01
2	 1	 31	 flanked	 rf	 3	 0.268300	 2.000000	 flanked_rf_freq_3_amplitude_0.2683_rep_9_r_K_2.0.png	 K	 r	 r	 n.a.	 3.414440e-01
2	 1	 32	 flanked	 rf	 5	 0.216700	 2.000000	 flanked_rf_freq_5_amplitude_0.2167_rep_0_t_K_2.0.png	 K	 t	 b	 n.a.	 4.397748e-01
2	 1	 33	 flanked	 rf	 8	 0.165000	 2.000000	 flanked_rf_freq_8_amplitude_0.165_rep_3_l_K_2.0.png	 K	 l	 l	 n.a.	 4.082007e-01
2	 1	 34	 flanked	 rf	 5	 0.061700	 2.000000	 flanked_rf_freq_5_amplitude_0.0617_rep_7_t_D_2.0.png	 D	 t	 b	 n.a.	 4.084904e-01
2	 1	 35	 flanked	 rf	 3	 0.320000	 2.000000	 flanked_rf_freq_3_amplitude_0.32_rep_2_l_H_2.0.png	 H	 l	 l	 n.a.	 4.484462e-01
2	 1	 36	 flanked	 rf	 2	 0.268300	 2.000000	 flanked_rf_freq_2_amplitude_0.2683_rep_2_b_N_2.0.png	 N	 b	 l	 n.a.	 4.535363e-01
2	 1	 37	 flanked	 rf	 8	 0.268300	 2.000000	 flanked_rf_freq_8_amplitude_0.2683_rep_1_r_H_2.0.png	 H	 r	 r	 n.a.	 3.558573e-01
2	 1	 38	 flanked	 rf	 2	 0.320000	 2.000000	 flanked_rf_freq_2_amplitude_0.32_rep_0_t_H_2.0.png	 H	 t	 b	 n.a.	 3.713499e-01
2	 1	 39	 flanked	 rf	 5	 0.320000	 2.000000	 flanked_rf_freq_5_amplitude_0.32_rep_2_t_D_2.0.png	 D	 t	 t	 n.a.	 4.536215e-01
2	 1	 40	 flanked	 rf	 5	 0.320000	 2.000000	 flanked_rf_freq_5_amplitude_0.32_rep_3_l_D_2.0.png	 D	 l	 l	 n.a.	 3.086414e-01
2	 1	 41	 flanked	 rf	 5	 0.010000	 2.000000	 flanked_rf_freq_5_amplitude_0.01_rep_2_b_N_2.0.png	 N	 b	 b	 n.a.	 6.071954e-01
2	 1	 42	 flanked	 rf	 5	 0.165000	 2.000000	 flanked_rf_freq_5_amplitude_0.165_rep_9_b_H_2.0.png	 H	 b	 b	 n.a.	 3.730604e-01
2	 1	 43	 flanked	 rf	 5	 0.113300	 2.000000	 flanked_rf_freq_5_amplitude_0.1133_rep_1_b_N_2.0.png	 N	 b	 r	 n.a.	 4.348235e-01
2	 1	 44	 flanked	 rf	 12	 0.165000	 2.000000	 flanked_rf_freq_12_amplitude_0.165_rep_6_l_H_2.0.png	 H	 l	 l	 n.a.	 2.854209e-01
2	 1	 45	 flanked	 rf	 3	 0.165000	 2.000000	 flanked_rf_freq_3_amplitude_0.165_rep_2_t_D_2.0.png	 D	 t	 b	 n.a.	 4.363899e-01
2	 1	 46	 flanked	 rf	 12	 0.113300	 2.000000	 flanked_rf_freq_12_amplitude_0.1133_rep_8_r_N_2.0.png	 N	 r	 r	 n.a.	 3.549973e-01
2	 1	 47	 flanked	 rf	 2	 0.010000	 2.000000	 flanked_rf_freq_2_amplitude_0.01_rep_6_b_D_2.0.png	 D	 b	 b	 n.a.	 5.143318e-01
2	 1	 48	 flanked	 rf	 5	 0.216700	 2.000000	 flanked_rf_freq_5_amplitude_0.2167_rep_3_r_N_2.0.png	 N	 r	 r	 n.a.	 3.234790e-01
2	 1	 49	 flanked	 rf	 5	 0.216700	 2.000000	 flanked_rf_freq_5_amplitude_0.2167_rep_2_r_K_2.0.png	 K	 r	 r	 n.a.	 3.153610e-01
2	 1	 50	 flanked	 rf	 12	 0.320000	 2.000000	 flanked_rf_freq_12_amplitude_0.32_rep_7_r_H_2.0.png	 H	 r	 r	 n.a.	 2.601347e-01
2	 1	 51	 flanked	 rf	 2	 0.010000	 2.000000	 flanked_rf_freq_2_amplitude_0.01_rep_4_b_K_2.0.png	 K	 b	 b	 n.a.	 3.429591e-01
2	 1	 52	 flanked	 rf	 5	 0.216700	 2.000000	 flanked_rf_freq_5_amplitude_0.2167_rep_4_t_K_2.0.png	 K	 t	 l	 n.a.	 4.856569e-01
2	 1	 53	 flanked	 rf	 3	 0.113300	 2.000000	 flanked_rf_freq_3_amplitude_0.1133_rep_9_t_N_2.0.png	 N	 t	 l	 n.a.	 4.426022e-01
2	 1	 54	 flanked	 rf	 4	 0.320000	 2.000000	 flanked_rf_freq_4_amplitude_0.32_rep_1_t_K_2.0.png	 K	 t	 b	 n.a.	 4.088365e-01
2	 1	 55	 flanked	 rf	 8	 0.268300	 2.000000	 flanked_rf_freq_8_amplitude_0.2683_rep_2_l_N_2.0.png	 N	 l	 l	 n.a.	 5.423672e-01
2	 1	 56	 flanked	 rf	 8	 0.216700	 2.000000	 flanked_rf_freq_8_amplitude_0.2167_rep_9_r_D_2.0.png	 D	 r	 t	 n.a.	 4.012194e-01
2	 1	 57	 flanked	 rf	 3	 0.113300	 2.000000	 flanked_rf_freq_3_amplitude_0.1133_rep_1_t_K_2.0.png	 K	 t	 r	 n.a.	 4.095403e-01
2	 1	 58	 flanked	 rf	 5	 0.061700	 2.000000	 flanked_rf_freq_5_amplitude_0.0617_rep_5_b_D_2.0.png	 D	 b	 b	 n.a.	 2.959841e-01
2	 1	 59	 flanked	 rf	 8	 0.320000	 2.000000	 flanked_rf_freq_8_amplitude_0.32_rep_8_r_N_2.0.png	 N	 r	 r	 n.a.	 2.630659e-01
2	 1	 60	 flanked	 rf	 2	 0.010000	 2.000000	 flanked_rf_freq_2_amplitude_0.01_rep_0_t_D_2.0.png	 D	 t	 b	 n.a.	 3.551836e-01
2	 1	 61	 flanked	 rf	 2	 0.061700	 2.000000	 flanked_rf_freq_2_amplitude_0.0617_rep_7_l_N_2.0.png	 N	 l	 l	 n.a.	 3.453161e-01
2	 1	 62	 flanked	 rf	 8	 0.061700	 2.000000	 flanked_rf_freq_8_amplitude_0.0617_rep_4_l_K_2.0.png	 K	 l	 b	 n.a.	 3.650457e-01
2	 1	 63	 flanked	 rf	 12	 0.061700	 2.000000	 flanked_rf_freq_12_amplitude_0.0617_rep_5_t_K_2.0.png	 K	 t	 t	 n.a.	 4.137030e-01
2	 1	 64	 flanked	 rf	 12	 0.010000	 2.000000	 flanked_rf_freq_12_amplitude_0.01_rep_0_t_D_2.0.png	 D	 t	 b	 n.a.	 4.788468e-01
2	 1	 65	 flanked	 rf	 2	 0.320000	 2.000000	 flanked_rf_freq_2_amplitude_0.32_rep_6_t_D_2.0.png	 D	 t	 l	 n.a.	 4.116402e-01
2	 1	 66	 flanked	 rf	 2	 0.320000	 2.000000	 flanked_rf_freq_2_amplitude_0.32_rep_9_t_K_2.0.png	 K	 t	 b	 n.a.	 3.137927e-01
2	 1	 67	 flanked	 rf	 3	 0.061700	 2.000000	 flanked_rf_freq_3_amplitude_0.0617_rep_5_b_N_2.0.png	 N	 b	 l	 n.a.	 4.570831e-01
2	 1	 68	 flanked	 rf	 12	 0.010000	 2.000000	 flanked_rf_freq_12_amplitude_0.01_rep_8_b_K_2.0.png	 K	 b	 b	 n.a.	 3.246282e-01
2	 1	 69	 flanked	 rf	 3	 0.113300	 2.000000	 flanked_rf_freq_3_amplitude_0.1133_rep_5_t_K_2.0.png	 K	 t	 b	 n.a.	 4.294586e-01
2	 1	 70	 flanked	 rf	 4	 0.165000	 2.000000	 flanked_rf_freq_4_amplitude_0.165_rep_8_r_H_2.0.png	 H	 r	 r	 n.a.	 3.181697e-01
2	 1	 71	 flanked	 rf	 2	 0.268300	 2.000000	 flanked_rf_freq_2_amplitude_0.2683_rep_0_l_H_2.0.png	 H	 l	 b	 n.a.	 4.457277e-01
2	 1	 72	 flanked	 rf	 5	 0.165000	 2.000000	 flanked_rf_freq_5_amplitude_0.165_rep_5_t_D_2.0.png	 D	 t	 l	 n.a.	 5.514468e-01
2	 1	 73	 flanked	 rf	 8	 0.165000	 2.000000	 flanked_rf_freq_8_amplitude_0.165_rep_0_b_H_2.0.png	 H	 b	 b	 n.a.	 3.462561e-01
2	 1	 74	 flanked	 rf	 2	 0.113300	 2.000000	 flanked_rf_freq_2_amplitude_0.1133_rep_4_b_D_2.0.png	 D	 b	 r	 n.a.	 3.776243e-01
2	 1	 75	 flanked	 rf	 12	 0.061700	 2.000000	 flanked_rf_freq_12_amplitude_0.0617_rep_2_b_D_2.0.png	 D	 b	 b	 n.a.	 2.591993e-01
2	 1	 76	 flanked	 rf	 8	 0.216700	 2.000000	 flanked_rf_freq_8_amplitude_0.2167_rep_0_b_N_2.0.png	 N	 b	 b	 n.a.	 5.101982e-01
2	 1	 77	 flanked	 rf	 3	 0.216700	 2.000000	 flanked_rf_freq_3_amplitude_0.2167_rep_1_r_D_2.0.png	 D	 r	 t	 n.a.	 3.825029e-01
2	 1	 78	 flanked	 rf	 8	 0.010000	 2.000000	 flanked_rf_freq_8_amplitude_0.01_rep_9_b_K_2.0.png	 K	 b	 l	 n.a.	 4.432647e-01
2	 1	 79	 flanked	 rf	 8	 0.010000	 2.000000	 flanked_rf_freq_8_amplitude_0.01_rep_5_b_N_2.0.png	 N	 b	 b	 n.a.	 3.239338e-01
2	 1	 80	 flanked	 rf	 8	 0.320000	 2.000000	 flanked_rf_freq_8_amplitude_0.32_rep_6_b_N_2.0.png	 N	 b	 b	 n.a.	 2.924387e-01
2	 1	 81	 flanked	 rf	 4	 0.268300	 2.000000	 flanked_rf_freq_4_amplitude_0.2683_rep_1_l_D_2.0.png	 D	 l	 b	 n.a.	 3.038838e-01
2	 1	 82	 flanked	 rf	 12	 0.216700	 2.000000	 flanked_rf_freq_12_amplitude_0.2167_rep_3_t_D_2.0.png	 D	 t	 t	 n.a.	 3.479063e-01
2	 1	 83	 flanked	 rf	 3	 0.061700	 2.000000	 flanked_rf_freq_3_amplitude_0.0617_rep_4_r_N_2.0.png	 N	 r	 l	 n.a.	 6.269019e-01
2	 1	 84	 flanked	 rf	 5	 0.268300	 2.000000	 flanked_rf_freq_5_amplitude_0.2683_rep_8_b_H_2.0.png	 H	 b	 b	 n.a.	 3.174072e-01
2	 1	 85	 flanked	 rf	 4	 0.113300	 2.000000	 flanked_rf_freq_4_amplitude_0.1133_rep_0_b_D_2.0.png	 D	 b	 b	 n.a.	 2.918760e-01
2	 1	 86	 flanked	 rf	 5	 0.010000	 2.000000	 flanked_rf_freq_5_amplitude_0.01_rep_9_r_D_2.0.png	 D	 r	 b	 n.a.	 2.462591e-01
2	 1	 87	 flanked	 rf	 5	 0.268300	 2.000000	 flanked_rf_freq_5_amplitude_0.2683_rep_7_r_K_2.0.png	 K	 r	 r	 n.a.	 3.062185e-01
2	 1	 88	 flanked	 rf	 3	 0.165000	 2.000000	 flanked_rf_freq_3_amplitude_0.165_rep_9_l_K_2.0.png	 K	 l	 b	 n.a.	 3.834924e-01
2	 1	 89	 flanked	 rf	 8	 0.165000	 2.000000	 flanked_rf_freq_8_amplitude_0.165_rep_6_l_H_2.0.png	 H	 l	 l	 n.a.	 3.488468e-01
2	 1	 90	 flanked	 rf	 12	 0.061700	 2.000000	 flanked_rf_freq_12_amplitude_0.0617_rep_3_t_N_2.0.png	 N	 t	 b	 n.a.	 3.120728e-01
2	 1	 91	 flanked	 rf	 2	 0.165000	 2.000000	 flanked_rf_freq_2_amplitude_0.165_rep_0_t_N_2.0.png	 N	 t	 b	 n.a.	 3.496431e-01
2	 1	 92	 flanked	 rf	 4	 0.268300	 2.000000	 flanked_rf_freq_4_amplitude_0.2683_rep_8_b_K_2.0.png	 K	 b	 b	 n.a.	 3.297679e-01
2	 1	 93	 flanked	 rf	 8	 0.320000	 2.000000	 flanked_rf_freq_8_amplitude_0.32_rep_4_b_D_2.0.png	 D	 b	 b	 n.a.	 2.893027e-01
2	 1	 94	 flanked	 rf	 8	 0.320000	 2.000000	 flanked_rf_freq_8_amplitude_0.32_rep_9_l_H_2.0.png	 H	 l	 l	 n.a.	 3.176900e-01
2	 1	 95	 flanked	 rf	 12	 0.268300	 2.000000	 flanked_rf_freq_12_amplitude_0.2683_rep_2_b_K_2.0.png	 K	 b	 b	 n.a.	 2.538169e-01
2	 1	 96	 flanked	 rf	 4	 0.216700	 2.000000	 flanked_rf_freq_4_amplitude_0.2167_rep_2_t_N_2.0.png	 N	 t	 l	 n.a.	 5.024805e-01
2	 1	 97	 flanked	 rf	 8	 0.165000	 2.000000	 flanked_rf_freq_8_amplitude_0.165_rep_5_l_D_2.0.png	 D	 l	 l	 n.a.	 5.263600e-01
2	 1	 98	 flanked	 rf	 4	 0.113300	 2.000000	 flanked_rf_freq_4_amplitude_0.1133_rep_2_t_D_2.0.png	 D	 t	 b	 n.a.	 3.275643e-01
2	 1	 99	 flanked	 rf	 8	 0.320000	 2.000000	 flanked_rf_freq_8_amplitude_0.32_rep_3_r_N_2.0.png	 N	 r	 r	 n.a.	 3.333091e-01
2	 1	 100	 flanked	 rf	 2	 0.010000	 2.000000	 flanked_rf_freq_2_amplitude_0.01_rep_9_b_K_2.0.png	 K	 b	 b	 n.a.	 3.144928e-01
2	 1	 101	 flanked	 rf	 3	 0.010000	 2.000000	 flanked_rf_freq_3_amplitude_0.01_rep_4_r_D_2.0.png	 D	 r	 b	 n.a.	 3.194979e-01
2	 1	 102	 flanked	 rf	 4	 0.010000	 2.000000	 flanked_rf_freq_4_amplitude_0.01_rep_7_l_K_2.0.png	 K	 l	 l	 n.a.	 3.575976e-01
2	 1	 103	 flanked	 rf	 5	 0.165000	 2.000000	 flanked_rf_freq_5_amplitude_0.165_rep_2_t_D_2.0.png	 D	 t	 b	 n.a.	 2.785535e-01
2	 1	 104	 flanked	 rf	 8	 0.216700	 2.000000	 flanked_rf_freq_8_amplitude_0.2167_rep_3_l_K_2.0.png	 K	 l	 l	 n.a.	 3.117639e-01
2	 1	 105	 flanked	 rf	 5	 0.320000	 2.000000	 flanked_rf_freq_5_amplitude_0.32_rep_4_t_H_2.0.png	 H	 t	 t	 n.a.	 3.981218e-01
2	 1	 106	 flanked	 rf	 12	 0.113300	 2.000000	 flanked_rf_freq_12_amplitude_0.1133_rep_6_b_D_2.0.png	 D	 b	 b	 n.a.	 2.940402e-01
2	 1	 107	 flanked	 rf	 3	 0.165000	 2.000000	 flanked_rf_freq_3_amplitude_0.165_rep_0_t_H_2.0.png	 H	 t	 r	 n.a.	 3.807227e-01
2	 1	 108	 flanked	 rf	 12	 0.320000	 2.000000	 flanked_rf_freq_12_amplitude_0.32_rep_4_r_D_2.0.png	 D	 r	 r	 n.a.	 3.316870e-01
2	 1	 109	 flanked	 rf	 5	 0.010000	 2.000000	 flanked_rf_freq_5_amplitude_0.01_rep_1_r_K_2.0.png	 K	 r	 b	 n.a.	 3.850776e-01
2	 1	 110	 flanked	 rf	 4	 0.320000	 2.000000	 flanked_rf_freq_4_amplitude_0.32_rep_0_b_N_2.0.png	 N	 b	 b	 n.a.	 3.916384e-01
2	 1	 111	 flanked	 rf	 3	 0.010000	 2.000000	 flanked_rf_freq_3_amplitude_0.01_rep_0_t_N_2.0.png	 N	 t	 b	 n.a.	 5.219575e-01
2	 1	 112	 flanked	 rf	 12	 0.268300	 2.000000	 flanked_rf_freq_12_amplitude_0.2683_rep_6_l_K_2.0.png	 K	 l	 l	 n.a.	 2.742393e-01
2	 1	 113	 flanked	 rf	 12	 0.320000	 2.000000	 flanked_rf_freq_12_amplitude_0.32_rep_1_b_H_2.0.png	 H	 b	 b	 n.a.	 2.995867e-01
2	 1	 114	 flanked	 rf	 5	 0.268300	 2.000000	 flanked_rf_freq_5_amplitude_0.2683_rep_5_l_K_2.0.png	 K	 l	 l	 n.a.	 2.981959e-01
2	 1	 115	 flanked	 rf	 3	 0.216700	 2.000000	 flanked_rf_freq_3_amplitude_0.2167_rep_7_l_H_2.0.png	 H	 l	 b	 n.a.	 2.970352e-01
2	 1	 116	 flanked	 rf	 5	 0.061700	 2.000000	 flanked_rf_freq_5_amplitude_0.0617_rep_0_b_H_2.0.png	 H	 b	 t	 n.a.	 4.993171e-01
2	 1	 117	 flanked	 rf	 4	 0.320000	 2.000000	 flanked_rf_freq_4_amplitude_0.32_rep_9_b_K_2.0.png	 K	 b	 b	 n.a.	 2.562148e-01
2	 1	 118	 flanked	 rf	 3	 0.113300	 2.000000	 flanked_rf_freq_3_amplitude_0.1133_rep_3_t_N_2.0.png	 N	 t	 l	 n.a.	 5.283579e-01
2	 1	 119	 flanked	 rf	 8	 0.010000	 2.000000	 flanked_rf_freq_8_amplitude_0.01_rep_3_t_K_2.0.png	 K	 t	 b	 n.a.	 3.732583e-01
2	 1	 120	 flanked	 rf	 4	 0.010000	 2.000000	 flanked_rf_freq_4_amplitude_0.01_rep_5_l_H_2.0.png	 H	 l	 b	 n.a.	 3.967949e-01
2	 1	 121	 flanked	 rf	 2	 0.268300	 2.000000	 flanked_rf_freq_2_amplitude_0.2683_rep_1_r_H_2.0.png	 H	 r	 r	 n.a.	 3.192323e-01
2	 1	 122	 flanked	 rf	 5	 0.165000	 2.000000	 flanked_rf_freq_5_amplitude_0.165_rep_7_b_N_2.0.png	 N	 b	 b	 n.a.	 4.545538e-01
2	 1	 123	 flanked	 rf	 4	 0.061700	 2.000000	 flanked_rf_freq_4_amplitude_0.0617_rep_2_t_N_2.0.png	 N	 t	 b	 n.a.	 3.213645e-01
2	 1	 124	 flanked	 rf	 3	 0.113300	 2.000000	 flanked_rf_freq_3_amplitude_0.1133_rep_4_t_H_2.0.png	 H	 t	 l	 n.a.	 4.135833e-01
2	 1	 125	 flanked	 rf	 2	 0.268300	 2.000000	 flanked_rf_freq_2_amplitude_0.2683_rep_4_r_N_2.0.png	 N	 r	 b	 n.a.	 3.188500e-01
2	 1	 126	 flanked	 rf	 2	 0.320000	 2.000000	 flanked_rf_freq_2_amplitude_0.32_rep_3_r_D_2.0.png	 D	 r	 r	 n.a.	 3.170790e-01
2	 1	 127	 flanked	 rf	 5	 0.010000	 2.000000	 flanked_rf_freq_5_amplitude_0.01_rep_8_r_H_2.0.png	 H	 r	 b	 n.a.	 3.885131e-01
2	 1	 128	 flanked	 rf	 2	 0.010000	 2.000000	 flanked_rf_freq_2_amplitude_0.01_rep_8_t_H_2.0.png	 H	 t	 b	 n.a.	 3.512892e-01
2	 1	 129	 flanked	 rf	 4	 0.165000	 2.000000	 flanked_rf_freq_4_amplitude_0.165_rep_9_b_D_2.0.png	 D	 b	 r	 n.a.	 4.808016e-01
2	 1	 130	 flanked	 rf	 12	 0.061700	 2.000000	 flanked_rf_freq_12_amplitude_0.0617_rep_4_l_N_2.0.png	 N	 l	 b	 n.a.	 3.567999e-01
2	 1	 131	 flanked	 rf	 2	 0.268300	 2.000000	 flanked_rf_freq_2_amplitude_0.2683_rep_5_b_H_2.0.png	 H	 b	 b	 n.a.	 4.817853e-01
2	 1	 132	 flanked	 rf	 2	 0.320000	 2.000000	 flanked_rf_freq_2_amplitude_0.32_rep_2_l_N_2.0.png	 N	 l	 l	 n.a.	 5.084265e-01
2	 1	 133	 flanked	 rf	 4	 0.268300	 2.000000	 flanked_rf_freq_4_amplitude_0.2683_rep_7_b_D_2.0.png	 D	 b	 b	 n.a.	 3.662756e-01
2	 1	 134	 flanked	 rf	 4	 0.268300	 2.000000	 flanked_rf_freq_4_amplitude_0.2683_rep_6_l_N_2.0.png	 N	 l	 l	 n.a.	 5.730332e-01
2	 1	 135	 flanked	 rf	 8	 0.268300	 2.000000	 flanked_rf_freq_8_amplitude_0.2683_rep_3_b_K_2.0.png	 K	 b	 b	 n.a.	 3.099844e-01
2	 1	 136	 flanked	 rf	 2	 0.010000	 2.000000	 flanked_rf_freq_2_amplitude_0.01_rep_5_r_H_2.0.png	 H	 r	 l	 n.a.	 5.035911e-01
2	 1	 137	 flanked	 rf	 3	 0.061700	 2.000000	 flanked_rf_freq_3_amplitude_0.0617_rep_3_b_H_2.0.png	 H	 b	 b	 n.a.	 3.310357e-01
2	 1	 138	 flanked	 rf	 4	 0.320000	 2.000000	 flanked_rf_freq_4_amplitude_0.32_rep_2_r_H_2.0.png	 H	 r	 r	 n.a.	 2.854214e-01
2	 1	 139	 flanked	 rf	 4	 0.165000	 2.000000	 flanked_rf_freq_4_amplitude_0.165_rep_2_t_N_2.0.png	 N	 t	 b	 n.a.	 3.675579e-01
2	 1	 140	 flanked	 rf	 4	 0.165000	 2.000000	 flanked_rf_freq_4_amplitude_0.165_rep_4_l_H_2.0.png	 H	 l	 b	 n.a.	 4.619500e-01
2	 1	 141	 flanked	 rf	 4	 0.320000	 2.000000	 flanked_rf_freq_4_amplitude_0.32_rep_7_r_D_2.0.png	 D	 r	 r	 n.a.	 4.704943e-01
2	 1	 142	 flanked	 rf	 3	 0.061700	 2.000000	 flanked_rf_freq_3_amplitude_0.0617_rep_9_l_H_2.0.png	 H	 l	 b	 n.a.	 3.416353e-01
2	 1	 143	 flanked	 rf	 2	 0.268300	 2.000000	 flanked_rf_freq_2_amplitude_0.2683_rep_3_r_N_2.0.png	 N	 r	 b	 n.a.	 3.490370e-01
2	 1	 144	 flanked	 rf	 8	 0.165000	 2.000000	 flanked_rf_freq_8_amplitude_0.165_rep_4_l_H_2.0.png	 H	 l	 l	 n.a.	 3.250551e-01
2	 1	 145	 flanked	 rf	 2	 0.165000	 2.000000	 flanked_rf_freq_2_amplitude_0.165_rep_6_l_H_2.0.png	 H	 l	 b	 n.a.	 2.844136e-01
2	 1	 146	 flanked	 rf	 8	 0.165000	 2.000000	 flanked_rf_freq_8_amplitude_0.165_rep_2_t_N_2.0.png	 N	 t	 l	 n.a.	 4.155881e-01
2	 1	 147	 flanked	 rf	 4	 0.165000	 2.000000	 flanked_rf_freq_4_amplitude_0.165_rep_0_t_N_2.0.png	 N	 t	 b	 n.a.	 3.860317e-01
2	 1	 148	 flanked	 rf	 3	 0.061700	 2.000000	 flanked_rf_freq_3_amplitude_0.0617_rep_1_b_H_2.0.png	 H	 b	 r	 n.a.	 3.967078e-01
2	 1	 149	 flanked	 rf	 12	 0.165000	 2.000000	 flanked_rf_freq_12_amplitude_0.165_rep_2_b_N_2.0.png	 N	 b	 b	 n.a.	 2.687595e-01
2	 1	 150	 flanked	 rf	 12	 0.216700	 2.000000	 flanked_rf_freq_12_amplitude_0.2167_rep_5_t_D_2.0.png	 D	 t	 b	 n.a.	 2.999990e-01
2	 1	 151	 flanked	 rf	 8	 0.216700	 2.000000	 flanked_rf_freq_8_amplitude_0.2167_rep_8_b_K_2.0.png	 K	 b	 b	 n.a.	 2.577747e-01
2	 1	 152	 flanked	 rf	 2	 0.165000	 2.000000	 flanked_rf_freq_2_amplitude_0.165_rep_1_r_H_2.0.png	 H	 r	 b	 n.a.	 6.512035e-01
2	 1	 153	 flanked	 rf	 5	 0.010000	 2.000000	 flanked_rf_freq_5_amplitude_0.01_rep_3_t_D_2.0.png	 D	 t	 b	 n.a.	 5.346412e-01
2	 1	 154	 flanked	 rf	 2	 0.216700	 2.000000	 flanked_rf_freq_2_amplitude_0.2167_rep_5_l_H_2.0.png	 H	 l	 b	 n.a.	 4.482693e-01
2	 1	 155	 flanked	 rf	 3	 0.061700	 2.000000	 flanked_rf_freq_3_amplitude_0.0617_rep_7_l_K_2.0.png	 K	 l	 l	 n.a.	 4.124890e-01
2	 1	 156	 flanked	 rf	 12	 0.061700	 2.000000	 flanked_rf_freq_12_amplitude_0.0617_rep_8_t_H_2.0.png	 H	 t	 b	 n.a.	 3.565575e-01
2	 1	 157	 flanked	 rf	 4	 0.113300	 2.000000	 flanked_rf_freq_4_amplitude_0.1133_rep_1_r_H_2.0.png	 H	 r	 r	 n.a.	 3.849484e-01
2	 1	 158	 flanked	 rf	 5	 0.320000	 2.000000	 flanked_rf_freq_5_amplitude_0.32_rep_9_r_N_2.0.png	 N	 r	 r	 n.a.	 3.028308e-01
2	 1	 159	 flanked	 rf	 12	 0.268300	 2.000000	 flanked_rf_freq_12_amplitude_0.2683_rep_0_t_N_2.0.png	 N	 t	 t	 n.a.	 3.925755e-01
2	 1	 160	 flanked	 rf	 12	 0.113300	 2.000000	 flanked_rf_freq_12_amplitude_0.1133_rep_2_l_H_2.0.png	 H	 l	 l	 n.a.	 3.421419e-01
2	 1	 161	 flanked	 rf	 3	 0.320000	 2.000000	 flanked_rf_freq_3_amplitude_0.32_rep_1_t_H_2.0.png	 H	 t	 b	 n.a.	 2.843282e-01
2	 1	 162	 flanked	 rf	 12	 0.320000	 2.000000	 flanked_rf_freq_12_amplitude_0.32_rep_0_l_D_2.0.png	 D	 l	 l	 n.a.	 2.757488e-01
2	 1	 163	 flanked	 rf	 3	 0.165000	 2.000000	 flanked_rf_freq_3_amplitude_0.165_rep_8_b_H_2.0.png	 H	 b	 b	 n.a.	 3.318479e-01
2	 1	 164	 flanked	 rf	 4	 0.165000	 2.000000	 flanked_rf_freq_4_amplitude_0.165_rep_3_r_H_2.0.png	 H	 r	 r	 n.a.	 2.955230e-01
2	 1	 165	 flanked	 rf	 5	 0.320000	 2.000000	 flanked_rf_freq_5_amplitude_0.32_rep_6_r_N_2.0.png	 N	 r	 r	 n.a.	 2.740415e-01
2	 1	 166	 flanked	 rf	 12	 0.165000	 2.000000	 flanked_rf_freq_12_amplitude_0.165_rep_9_b_H_2.0.png	 H	 b	 b	 n.a.	 2.862840e-01
2	 1	 167	 flanked	 rf	 3	 0.010000	 2.000000	 flanked_rf_freq_3_amplitude_0.01_rep_7_t_H_2.0.png	 H	 t	 b	 n.a.	 2.875872e-01
2	 1	 168	 flanked	 rf	 8	 0.165000	 2.000000	 flanked_rf_freq_8_amplitude_0.165_rep_9_l_D_2.0.png	 D	 l	 l	 n.a.	 3.201994e-01
2	 1	 169	 flanked	 rf	 12	 0.165000	 2.000000	 flanked_rf_freq_12_amplitude_0.165_rep_8_l_H_2.0.png	 H	 l	 l	 n.a.	 3.052762e-01
2	 1	 170	 flanked	 rf	 8	 0.113300	 2.000000	 flanked_rf_freq_8_amplitude_0.1133_rep_0_l_D_2.0.png	 D	 l	 l	 n.a.	 4.729983e-01
2	 1	 171	 flanked	 rf	 2	 0.216700	 2.000000	 flanked_rf_freq_2_amplitude_0.2167_rep_9_t_N_2.0.png	 N	 t	 l	 n.a.	 4.721454e-01
2	 1	 172	 flanked	 rf	 2	 0.165000	 2.000000	 flanked_rf_freq_2_amplitude_0.165_rep_2_b_D_2.0.png	 D	 b	 l	 n.a.	 5.599806e-01
2	 1	 173	 flanked	 rf	 4	 0.216700	 2.000000	 flanked_rf_freq_4_amplitude_0.2167_rep_6_b_N_2.0.png	 N	 b	 b	 n.a.	 2.953714e-01
2	 1	 174	 flanked	 rf	 5	 0.113300	 2.000000	 flanked_rf_freq_5_amplitude_0.1133_rep_2_r_N_2.0.png	 N	 r	 l	 n.a.	 3.239300e-01
2	 1	 175	 flanked	 rf	 2	 0.113300	 2.000000	 flanked_rf_freq_2_amplitude_0.1133_rep_6_b_N_2.0.png	 N	 b	 l	 n.a.	 4.469391e-01
2	 1	 176	 flanked	 rf	 2	 0.216700	 2.000000	 flanked_rf_freq_2_amplitude_0.2167_rep_3_r_N_2.0.png	 N	 r	 b	 n.a.	 4.067316e-01
2	 1	 177	 flanked	 rf	 2	 0.165000	 2.000000	 flanked_rf_freq_2_amplitude_0.165_rep_5_b_H_2.0.png	 H	 b	 t	 n.a.	 4.379445e-01
2	 1	 178	 flanked	 rf	 5	 0.216700	 2.000000	 flanked_rf_freq_5_amplitude_0.2167_rep_6_t_K_2.0.png	 K	 t	 b	 n.a.	 3.974389e-01
2	 1	 179	 flanked	 rf	 4	 0.268300	 2.000000	 flanked_rf_freq_4_amplitude_0.2683_rep_3_l_N_2.0.png	 N	 l	 l	 n.a.	 3.061022e-01
2	 1	 180	 flanked	 rf	 12	 0.320000	 2.000000	 flanked_rf_freq_12_amplitude_0.32_rep_3_b_H_2.0.png	 H	 b	 b	 n.a.	 2.993931e-01
2	 1	 181	 flanked	 rf	 4	 0.061700	 2.000000	 flanked_rf_freq_4_amplitude_0.0617_rep_5_l_H_2.0.png	 H	 l	 b	 n.a.	 4.298417e-01
2	 1	 182	 flanked	 rf	 5	 0.268300	 2.000000	 flanked_rf_freq_5_amplitude_0.2683_rep_9_t_H_2.0.png	 H	 t	 r	 n.a.	 3.189490e-01
2	 1	 183	 flanked	 rf	 4	 0.165000	 2.000000	 flanked_rf_freq_4_amplitude_0.165_rep_5_b_K_2.0.png	 K	 b	 b	 n.a.	 3.221919e-01
2	 1	 184	 flanked	 rf	 3	 0.216700	 2.000000	 flanked_rf_freq_3_amplitude_0.2167_rep_6_b_D_2.0.png	 D	 b	 b	 n.a.	 4.539957e-01
2	 1	 185	 flanked	 rf	 5	 0.268300	 2.000000	 flanked_rf_freq_5_amplitude_0.2683_rep_1_b_H_2.0.png	 H	 b	 b	 n.a.	 3.388823e-01
2	 1	 186	 flanked	 rf	 4	 0.010000	 2.000000	 flanked_rf_freq_4_amplitude_0.01_rep_3_t_K_2.0.png	 K	 t	 b	 n.a.	 3.121922e-01
2	 1	 187	 flanked	 rf	 2	 0.113300	 2.000000	 flanked_rf_freq_2_amplitude_0.1133_rep_8_r_N_2.0.png	 N	 r	 b	 n.a.	 7.048946e-01
2	 1	 188	 flanked	 rf	 8	 0.320000	 2.000000	 flanked_rf_freq_8_amplitude_0.32_rep_2_r_H_2.0.png	 H	 r	 r	 n.a.	 3.456120e-01
2	 1	 189	 flanked	 rf	 5	 0.165000	 2.000000	 flanked_rf_freq_5_amplitude_0.165_rep_3_b_D_2.0.png	 D	 b	 t	 n.a.	 6.888390e-01
2	 1	 190	 flanked	 rf	 8	 0.320000	 2.000000	 flanked_rf_freq_8_amplitude_0.32_rep_5_t_D_2.0.png	 D	 t	 b	 n.a.	 2.907282e-01
2	 1	 191	 flanked	 rf	 8	 0.010000	 2.000000	 flanked_rf_freq_8_amplitude_0.01_rep_7_b_D_2.0.png	 D	 b	 b	 n.a.	 4.238678e-01
2	 1	 192	 flanked	 rf	 4	 0.216700	 2.000000	 flanked_rf_freq_4_amplitude_0.2167_rep_1_l_D_2.0.png	 D	 l	 b	 n.a.	 3.057303e-01
2	 1	 193	 flanked	 rf	 8	 0.113300	 2.000000	 flanked_rf_freq_8_amplitude_0.1133_rep_8_r_K_2.0.png	 K	 r	 r	 n.a.	 3.423135e-01
2	 1	 194	 flanked	 rf	 8	 0.113300	 2.000000	 flanked_rf_freq_8_amplitude_0.1133_rep_1_t_N_2.0.png	 N	 t	 b	 n.a.	 4.683316e-01
2	 1	 195	 flanked	 rf	 12	 0.216700	 2.000000	 flanked_rf_freq_12_amplitude_0.2167_rep_9_b_H_2.0.png	 H	 b	 b	 n.a.	 2.905730e-01
2	 1	 196	 flanked	 rf	 8	 0.010000	 2.000000	 flanked_rf_freq_8_amplitude_0.01_rep_4_r_H_2.0.png	 H	 r	 b	 n.a.	 3.347879e-01
2	 1	 197	 flanked	 rf	 3	 0.010000	 2.000000	 flanked_rf_freq_3_amplitude_0.01_rep_1_r_K_2.0.png	 K	 r	 b	 n.a.	 3.383433e-01
2	 1	 198	 flanked	 rf	 3	 0.268300	 2.000000	 flanked_rf_freq_3_amplitude_0.2683_rep_5_b_K_2.0.png	 K	 b	 b	 n.a.	 3.069613e-01
2	 1	 199	 flanked	 rf	 2	 0.061700	 2.000000	 flanked_rf_freq_2_amplitude_0.0617_rep_2_t_K_2.0.png	 K	 t	 r	 n.a.	 5.904642e-01
2	 1	 200	 flanked	 rf	 12	 0.216700	 2.000000	 flanked_rf_freq_12_amplitude_0.2167_rep_6_t_K_2.0.png	 K	 t	 t	 n.a.	 4.771962e-01
2	 1	 201	 flanked	 rf	 3	 0.010000	 2.000000	 flanked_rf_freq_3_amplitude_0.01_rep_3_l_D_2.0.png	 D	 l	 b	 n.a.	 3.926884e-01
2	 1	 202	 flanked	 rf	 4	 0.165000	 2.000000	 flanked_rf_freq_4_amplitude_0.165_rep_6_r_K_2.0.png	 K	 r	 r	 n.a.	 4.384872e-01
2	 1	 203	 flanked	 rf	 12	 0.113300	 2.000000	 flanked_rf_freq_12_amplitude_0.1133_rep_9_b_K_2.0.png	 K	 b	 b	 n.a.	 7.091009e-01
2	 1	 204	 flanked	 rf	 5	 0.268300	 2.000000	 flanked_rf_freq_5_amplitude_0.2683_rep_4_t_N_2.0.png	 N	 t	 t	 n.a.	 5.789659e-01
2	 1	 205	 flanked	 rf	 3	 0.061700	 2.000000	 flanked_rf_freq_3_amplitude_0.0617_rep_0_b_D_2.0.png	 D	 b	 b	 n.a.	 4.826892e-01
2	 1	 206	 flanked	 rf	 12	 0.061700	 2.000000	 flanked_rf_freq_12_amplitude_0.0617_rep_6_t_N_2.0.png	 N	 t	 l	 n.a.	 5.563567e-01
2	 1	 207	 flanked	 rf	 4	 0.010000	 2.000000	 flanked_rf_freq_4_amplitude_0.01_rep_1_r_H_2.0.png	 H	 r	 b	 n.a.	 3.869450e-01
2	 1	 208	 flanked	 rf	 5	 0.113300	 2.000000	 flanked_rf_freq_5_amplitude_0.1133_rep_3_l_H_2.0.png	 H	 l	 l	 n.a.	 5.701134e-01
2	 1	 209	 flanked	 rf	 2	 0.216700	 2.000000	 flanked_rf_freq_2_amplitude_0.2167_rep_1_r_K_2.0.png	 K	 r	 r	 n.a.	 3.948000e-01
2	 1	 210	 flanked	 rf	 3	 0.165000	 2.000000	 flanked_rf_freq_3_amplitude_0.165_rep_3_l_N_2.0.png	 N	 l	 b	 n.a.	 3.218903e-01
2	 1	 211	 flanked	 rf	 3	 0.216700	 2.000000	 flanked_rf_freq_3_amplitude_0.2167_rep_0_l_D_2.0.png	 D	 l	 b	 n.a.	 7.059600e-01
2	 1	 212	 flanked	 rf	 2	 0.268300	 2.000000	 flanked_rf_freq_2_amplitude_0.2683_rep_8_l_H_2.0.png	 H	 l	 l	 n.a.	 5.098988e-01
2	 1	 213	 flanked	 rf	 8	 0.165000	 2.000000	 flanked_rf_freq_8_amplitude_0.165_rep_8_b_H_2.0.png	 H	 b	 b	 n.a.	 3.132182e-01
2	 1	 214	 flanked	 rf	 2	 0.216700	 2.000000	 flanked_rf_freq_2_amplitude_0.2167_rep_8_r_H_2.0.png	 H	 r	 r	 n.a.	 3.656764e-01
2	 1	 215	 flanked	 rf	 5	 0.113300	 2.000000	 flanked_rf_freq_5_amplitude_0.1133_rep_4_l_K_2.0.png	 K	 l	 b	 n.a.	 3.613901e-01
2	 1	 216	 flanked	 rf	 12	 0.268300	 2.000000	 flanked_rf_freq_12_amplitude_0.2683_rep_7_l_H_2.0.png	 H	 l	 l	 n.a.	 2.930487e-01
2	 1	 217	 flanked	 rf	 5	 0.113300	 2.000000	 flanked_rf_freq_5_amplitude_0.1133_rep_8_l_D_2.0.png	 D	 l	 b	 n.a.	 3.436847e-01
2	 1	 218	 flanked	 rf	 2	 0.268300	 2.000000	 flanked_rf_freq_2_amplitude_0.2683_rep_7_r_N_2.0.png	 N	 r	 l	 n.a.	 4.032521e-01
2	 1	 219	 flanked	 rf	 3	 0.010000	 2.000000	 flanked_rf_freq_3_amplitude_0.01_rep_5_t_N_2.0.png	 N	 t	 b	 n.a.	 4.003578e-01
2	 1	 220	 flanked	 rf	 2	 0.061700	 2.000000	 flanked_rf_freq_2_amplitude_0.0617_rep_3_b_N_2.0.png	 N	 b	 t	 n.a.	 6.326258e-01
2	 1	 221	 flanked	 rf	 4	 0.061700	 2.000000	 flanked_rf_freq_4_amplitude_0.0617_rep_4_b_D_2.0.png	 D	 b	 l	 n.a.	 2.876887e-01
2	 1	 222	 flanked	 rf	 4	 0.216700	 2.000000	 flanked_rf_freq_4_amplitude_0.2167_rep_9_l_H_2.0.png	 H	 l	 b	 n.a.	 4.896474e-01
2	 1	 223	 flanked	 rf	 8	 0.010000	 2.000000	 flanked_rf_freq_8_amplitude_0.01_rep_8_t_K_2.0.png	 K	 t	 l	 n.a.	 2.967259e-01
2	 1	 224	 flanked	 rf	 5	 0.165000	 2.000000	 flanked_rf_freq_5_amplitude_0.165_rep_1_r_N_2.0.png	 N	 r	 b	 n.a.	 3.102762e-01
2	 1	 225	 flanked	 rf	 3	 0.320000	 2.000000	 flanked_rf_freq_3_amplitude_0.32_rep_0_b_K_2.0.png	 K	 b	 b	 n.a.	 2.733298e-01
2	 1	 226	 flanked	 rf	 5	 0.061700	 2.000000	 flanked_rf_freq_5_amplitude_0.0617_rep_2_l_K_2.0.png	 K	 l	 l	 n.a.	 4.053112e-01
2	 1	 227	 flanked	 rf	 2	 0.061700	 2.000000	 flanked_rf_freq_2_amplitude_0.0617_rep_8_b_K_2.0.png	 K	 b	 b	 n.a.	 3.348100e-01
2	 1	 228	 flanked	 rf	 8	 0.113300	 2.000000	 flanked_rf_freq_8_amplitude_0.1133_rep_6_t_H_2.0.png	 H	 t	 b	 n.a.	 4.761130e-01
2	 1	 229	 flanked	 rf	 4	 0.216700	 2.000000	 flanked_rf_freq_4_amplitude_0.2167_rep_8_b_H_2.0.png	 H	 b	 b	 n.a.	 4.032992e-01
2	 1	 230	 flanked	 rf	 3	 0.320000	 2.000000	 flanked_rf_freq_3_amplitude_0.32_rep_6_l_H_2.0.png	 H	 l	 l	 n.a.	 4.130105e-01
2	 1	 231	 flanked	 rf	 4	 0.113300	 2.000000	 flanked_rf_freq_4_amplitude_0.1133_rep_9_r_H_2.0.png	 H	 r	 b	 n.a.	 3.889947e-01
2	 1	 232	 flanked	 rf	 12	 0.216700	 2.000000	 flanked_rf_freq_12_amplitude_0.2167_rep_7_r_H_2.0.png	 H	 r	 r	 n.a.	 2.339445e-01
2	 1	 233	 flanked	 rf	 8	 0.010000	 2.000000	 flanked_rf_freq_8_amplitude_0.01_rep_1_t_N_2.0.png	 N	 t	 b	 n.a.	 4.460538e-01
2	 1	 234	 flanked	 rf	 4	 0.216700	 2.000000	 flanked_rf_freq_4_amplitude_0.2167_rep_0_r_K_2.0.png	 K	 r	 r	 n.a.	 4.029976e-01
2	 1	 235	 flanked	 rf	 3	 0.010000	 2.000000	 flanked_rf_freq_3_amplitude_0.01_rep_6_b_H_2.0.png	 H	 b	 b	 n.a.	 4.282786e-01
2	 1	 236	 flanked	 rf	 2	 0.320000	 2.000000	 flanked_rf_freq_2_amplitude_0.32_rep_4_b_N_2.0.png	 N	 b	 b	 n.a.	 3.236209e-01
2	 1	 237	 flanked	 rf	 8	 0.268300	 2.000000	 flanked_rf_freq_8_amplitude_0.2683_rep_8_b_H_2.0.png	 H	 b	 b	 n.a.	 2.535842e-01
2	 1	 238	 flanked	 rf	 2	 0.010000	 2.000000	 flanked_rf_freq_2_amplitude_0.01_rep_2_r_N_2.0.png	 N	 r	 b	 n.a.	 4.327232e-01
2	 1	 239	 flanked	 rf	 3	 0.320000	 2.000000	 flanked_rf_freq_3_amplitude_0.32_rep_8_t_H_2.0.png	 H	 t	 l	 n.a.	 3.849792e-01
2	 1	 240	 flanked	 rf	 4	 0.216700	 2.000000	 flanked_rf_freq_4_amplitude_0.2167_rep_3_l_H_2.0.png	 H	 l	 l	 n.a.	 4.712753e-01
2	 1	 241	 flanked	 rf	 12	 0.320000	 2.000000	 flanked_rf_freq_12_amplitude_0.32_rep_9_t_D_2.0.png	 D	 t	 t	 n.a.	 3.703037e-01
2	 1	 242	 flanked	 rf	 12	 0.320000	 2.000000	 flanked_rf_freq_12_amplitude_0.32_rep_6_l_N_2.0.png	 N	 l	 l	 n.a.	 4.017840e-01
2	 1	 243	 flanked	 rf	 8	 0.268300	 2.000000	 flanked_rf_freq_8_amplitude_0.2683_rep_5_b_D_2.0.png	 D	 b	 b	 n.a.	 2.490604e-01
2	 1	 244	 flanked	 rf	 8	 0.113300	 2.000000	 flanked_rf_freq_8_amplitude_0.1133_rep_2_r_N_2.0.png	 N	 r	 b	 n.a.	 2.912952e-01
2	 1	 245	 flanked	 rf	 12	 0.061700	 2.000000	 flanked_rf_freq_12_amplitude_0.0617_rep_9_l_H_2.0.png	 H	 l	 b	 n.a.	 2.980773e-01
2	 1	 246	 flanked	 rf	 8	 0.268300	 2.000000	 flanked_rf_freq_8_amplitude_0.2683_rep_6_l_N_2.0.png	 N	 l	 l	 n.a.	 2.330599e-01
2	 1	 247	 flanked	 rf	 4	 0.268300	 2.000000	 flanked_rf_freq_4_amplitude_0.2683_rep_2_r_D_2.0.png	 D	 r	 r	 n.a.	 2.534710e-01
2	 1	 248	 flanked	 rf	 3	 0.268300	 2.000000	 flanked_rf_freq_3_amplitude_0.2683_rep_3_l_H_2.0.png	 H	 l	 b	 n.a.	 2.429732e-01
2	 1	 249	 flanked	 rf	 2	 0.113300	 2.000000	 flanked_rf_freq_2_amplitude_0.1133_rep_0_l_K_2.0.png	 K	 l	 l	 n.a.	 3.665400e-01
2	 1	 250	 flanked	 rf	 5	 0.010000	 2.000000	 flanked_rf_freq_5_amplitude_0.01_rep_0_l_H_2.0.png	 H	 l	 b	 n.a.	 2.703458e-01
2	 1	 251	 flanked	 rf	 12	 0.010000	 2.000000	 flanked_rf_freq_12_amplitude_0.01_rep_1_l_D_2.0.png	 D	 l	 b	 n.a.	 3.275101e-01
2	 1	 252	 flanked	 rf	 12	 0.113300	 2.000000	 flanked_rf_freq_12_amplitude_0.1133_rep_0_b_N_2.0.png	 N	 b	 l	 n.a.	 3.392949e-01
2	 1	 253	 flanked	 rf	 5	 0.165000	 2.000000	 flanked_rf_freq_5_amplitude_0.165_rep_6_b_N_2.0.png	 N	 b	 b	 n.a.	 2.878302e-01
2	 1	 254	 flanked	 rf	 8	 0.320000	 2.000000	 flanked_rf_freq_8_amplitude_0.32_rep_1_t_N_2.0.png	 N	 t	 t	 n.a.	 3.484182e-01
2	 1	 255	 flanked	 rf	 12	 0.165000	 2.000000	 flanked_rf_freq_12_amplitude_0.165_rep_0_l_H_2.0.png	 H	 l	 l	 n.a.	 4.121156e-01
2	 1	 256	 flanked	 rf	 3	 0.320000	 2.000000	 flanked_rf_freq_3_amplitude_0.32_rep_4_r_D_2.0.png	 D	 r	 b	 n.a.	 3.897587e-01
2	 1	 257	 flanked	 rf	 5	 0.320000	 2.000000	 flanked_rf_freq_5_amplitude_0.32_rep_1_l_H_2.0.png	 H	 l	 l	 n.a.	 3.376004e-01
2	 1	 258	 flanked	 rf	 8	 0.216700	 2.000000	 flanked_rf_freq_8_amplitude_0.2167_rep_4_l_N_2.0.png	 N	 l	 l	 n.a.	 3.306708e-01
2	 1	 259	 flanked	 rf	 8	 0.113300	 2.000000	 flanked_rf_freq_8_amplitude_0.1133_rep_9_r_H_2.0.png	 H	 r	 r	 n.a.	 5.933978e-01
2	 1	 260	 flanked	 rf	 5	 0.320000	 2.000000	 flanked_rf_freq_5_amplitude_0.32_rep_0_l_K_2.0.png	 K	 l	 l	 n.a.	 3.137507e-01
2	 1	 261	 flanked	 rf	 8	 0.165000	 2.000000	 flanked_rf_freq_8_amplitude_0.165_rep_7_t_D_2.0.png	 D	 t	 t	 n.a.	 4.091191e-01
2	 1	 262	 flanked	 rf	 2	 0.320000	 2.000000	 flanked_rf_freq_2_amplitude_0.32_rep_1_r_H_2.0.png	 H	 r	 r	 n.a.	 4.589850e-01
2	 1	 263	 flanked	 rf	 2	 0.010000	 2.000000	 flanked_rf_freq_2_amplitude_0.01_rep_1_b_N_2.0.png	 N	 b	 l	 n.a.	 4.885443e-01
2	 1	 264	 flanked	 rf	 4	 0.165000	 2.000000	 flanked_rf_freq_4_amplitude_0.165_rep_1_l_N_2.0.png	 N	 l	 l	 n.a.	 4.871963e-01
2	 1	 265	 flanked	 rf	 8	 0.165000	 2.000000	 flanked_rf_freq_8_amplitude_0.165_rep_1_b_K_2.0.png	 K	 b	 b	 n.a.	 2.734183e-01
2	 1	 266	 flanked	 rf	 4	 0.113300	 2.000000	 flanked_rf_freq_4_amplitude_0.1133_rep_5_l_K_2.0.png	 K	 l	 l	 n.a.	 3.594080e-01
2	 1	 267	 flanked	 rf	 12	 0.061700	 2.000000	 flanked_rf_freq_12_amplitude_0.0617_rep_1_r_K_2.0.png	 K	 r	 r	 n.a.	 3.292291e-01
2	 1	 268	 flanked	 rf	 8	 0.061700	 2.000000	 flanked_rf_freq_8_amplitude_0.0617_rep_7_r_K_2.0.png	 K	 r	 t	 n.a.	 7.247840e-01
2	 1	 269	 flanked	 rf	 8	 0.113300	 2.000000	 flanked_rf_freq_8_amplitude_0.1133_rep_4_r_H_2.0.png	 H	 r	 b	 n.a.	 3.674915e-01
2	 1	 270	 flanked	 rf	 4	 0.268300	 2.000000	 flanked_rf_freq_4_amplitude_0.2683_rep_5_r_K_2.0.png	 K	 r	 r	 n.a.	 3.336382e-01
2	 1	 271	 flanked	 rf	 3	 0.216700	 2.000000	 flanked_rf_freq_3_amplitude_0.2167_rep_3_t_N_2.0.png	 N	 t	 b	 n.a.	 3.693404e-01
2	 1	 272	 flanked	 rf	 12	 0.268300	 2.000000	 flanked_rf_freq_12_amplitude_0.2683_rep_3_l_K_2.0.png	 K	 l	 l	 n.a.	 3.329012e-01
2	 1	 273	 flanked	 rf	 2	 0.061700	 2.000000	 flanked_rf_freq_2_amplitude_0.0617_rep_6_t_H_2.0.png	 H	 t	 b	 n.a.	 5.511532e-01
2	 1	 274	 flanked	 rf	 5	 0.216700	 2.000000	 flanked_rf_freq_5_amplitude_0.2167_rep_7_t_D_2.0.png	 D	 t	 r	 n.a.	 8.243860e-01
2	 1	 275	 flanked	 rf	 12	 0.268300	 2.000000	 flanked_rf_freq_12_amplitude_0.2683_rep_5_b_K_2.0.png	 K	 b	 b	 n.a.	 4.101324e-01
2	 1	 276	 flanked	 rf	 2	 0.320000	 2.000000	 flanked_rf_freq_2_amplitude_0.32_rep_7_l_D_2.0.png	 D	 l	 l	 n.a.	 3.696425e-01
2	 1	 277	 flanked	 rf	 5	 0.113300	 2.000000	 flanked_rf_freq_5_amplitude_0.1133_rep_6_l_D_2.0.png	 D	 l	 b	 n.a.	 5.196120e-01
2	 1	 278	 flanked	 rf	 8	 0.061700	 2.000000	 flanked_rf_freq_8_amplitude_0.0617_rep_6_b_N_2.0.png	 N	 b	 b	 n.a.	 4.898477e-01
2	 1	 279	 flanked	 rf	 5	 0.165000	 2.000000	 flanked_rf_freq_5_amplitude_0.165_rep_4_l_K_2.0.png	 K	 l	 l	 n.a.	 4.582318e-01
2	 1	 280	 flanked	 rf	 3	 0.165000	 2.000000	 flanked_rf_freq_3_amplitude_0.165_rep_1_l_N_2.0.png	 N	 l	 l	 n.a.	 7.502839e-01
2	 1	 281	 flanked	 rf	 3	 0.216700	 2.000000	 flanked_rf_freq_3_amplitude_0.2167_rep_8_t_K_2.0.png	 K	 t	 l	 n.a.	 6.589065e-01
2	 1	 282	 flanked	 rf	 4	 0.113300	 2.000000	 flanked_rf_freq_4_amplitude_0.1133_rep_8_b_D_2.0.png	 D	 b	 b	 n.a.	 6.997473e-01
2	 1	 283	 flanked	 rf	 4	 0.320000	 2.000000	 flanked_rf_freq_4_amplitude_0.32_rep_5_t_N_2.0.png	 N	 t	 l	 n.a.	 4.771085e-01
2	 1	 284	 flanked	 rf	 3	 0.010000	 2.000000	 flanked_rf_freq_3_amplitude_0.01_rep_9_b_K_2.0.png	 K	 b	 b	 n.a.	 3.787714e-01
2	 1	 285	 flanked	 rf	 12	 0.165000	 2.000000	 flanked_rf_freq_12_amplitude_0.165_rep_1_r_H_2.0.png	 H	 r	 r	 n.a.	 2.477314e-01
2	 1	 286	 flanked	 rf	 4	 0.113300	 2.000000	 flanked_rf_freq_4_amplitude_0.1133_rep_6_l_D_2.0.png	 D	 l	 b	 n.a.	 6.469410e-01
2	 1	 287	 flanked	 rf	 4	 0.320000	 2.000000	 flanked_rf_freq_4_amplitude_0.32_rep_4_r_K_2.0.png	 K	 r	 r	 n.a.	 2.939808e-01
2	 1	 288	 flanked	 rf	 3	 0.268300	 2.000000	 flanked_rf_freq_3_amplitude_0.2683_rep_2_l_K_2.0.png	 K	 l	 l	 n.a.	 3.617575e-01
2	 1	 289	 flanked	 rf	 12	 0.010000	 2.000000	 flanked_rf_freq_12_amplitude_0.01_rep_5_t_H_2.0.png	 H	 t	 l	 n.a.	 5.441012e-01
2	 1	 290	 flanked	 rf	 5	 0.268300	 2.000000	 flanked_rf_freq_5_amplitude_0.2683_rep_2_t_H_2.0.png	 H	 t	 b	 n.a.	 3.220558e-01
2	 1	 291	 flanked	 rf	 4	 0.061700	 2.000000	 flanked_rf_freq_4_amplitude_0.0617_rep_9_t_N_2.0.png	 N	 t	 b	 n.a.	 4.211764e-01
2	 1	 292	 flanked	 rf	 8	 0.113300	 2.000000	 flanked_rf_freq_8_amplitude_0.1133_rep_7_r_D_2.0.png	 D	 r	 l	 n.a.	 5.339837e-01
2	 1	 293	 flanked	 rf	 5	 0.268300	 2.000000	 flanked_rf_freq_5_amplitude_0.2683_rep_0_b_N_2.0.png	 N	 b	 b	 n.a.	 7.240723e-01
2	 1	 294	 flanked	 rf	 12	 0.113300	 2.000000	 flanked_rf_freq_12_amplitude_0.1133_rep_1_b_N_2.0.png	 N	 b	 b	 n.a.	 3.801374e-01
2	 1	 295	 flanked	 rf	 5	 0.113300	 2.000000	 flanked_rf_freq_5_amplitude_0.1133_rep_0_t_K_2.0.png	 K	 t	 t	 n.a.	 6.764405e-01
2	 1	 296	 flanked	 rf	 3	 0.165000	 2.000000	 flanked_rf_freq_3_amplitude_0.165_rep_4_r_K_2.0.png	 K	 r	 r	 n.a.	 3.488128e-01
2	 1	 297	 flanked	 rf	 2	 0.061700	 2.000000	 flanked_rf_freq_2_amplitude_0.0617_rep_5_t_K_2.0.png	 K	 t	 b	 n.a.	 4.724707e-01
2	 1	 298	 flanked	 rf	 3	 0.320000	 2.000000	 flanked_rf_freq_3_amplitude_0.32_rep_3_r_N_2.0.png	 N	 r	 r	 n.a.	 3.210528e-01
2	 1	 299	 flanked	 rf	 12	 0.165000	 2.000000	 flanked_rf_freq_12_amplitude_0.165_rep_3_l_N_2.0.png	 N	 l	 l	 n.a.	 4.425653e-01
2	 1	 300	 flanked	 rf	 5	 0.061700	 2.000000	 flanked_rf_freq_5_amplitude_0.0617_rep_9_l_K_2.0.png	 K	 l	 l	 n.a.	 3.848983e-01
2	 1	 301	 flanked	 rf	 3	 0.165000	 2.000000	 flanked_rf_freq_3_amplitude_0.165_rep_6_l_D_2.0.png	 D	 l	 b	 n.a.	 3.798820e-01
2	 1	 302	 flanked	 rf	 5	 0.320000	 2.000000	 flanked_rf_freq_5_amplitude_0.32_rep_5_t_N_2.0.png	 N	 t	 b	 n.a.	 6.599702e-01
2	 1	 303	 flanked	 rf	 2	 0.165000	 2.000000	 flanked_rf_freq_2_amplitude_0.165_rep_9_l_N_2.0.png	 N	 l	 l	 n.a.	 4.337782e-01
2	 1	 304	 flanked	 rf	 2	 0.216700	 2.000000	 flanked_rf_freq_2_amplitude_0.2167_rep_6_l_K_2.0.png	 K	 l	 l	 n.a.	 4.238135e-01
2	 1	 305	 flanked	 rf	 2	 0.165000	 2.000000	 flanked_rf_freq_2_amplitude_0.165_rep_8_l_H_2.0.png	 H	 l	 b	 n.a.	 3.633709e-01
2	 1	 306	 flanked	 rf	 4	 0.320000	 2.000000	 flanked_rf_freq_4_amplitude_0.32_rep_3_t_H_2.0.png	 H	 t	 t	 n.a.	 4.884972e-01
2	 1	 307	 flanked	 rf	 5	 0.061700	 2.000000	 flanked_rf_freq_5_amplitude_0.0617_rep_8_r_D_2.0.png	 D	 r	 l	 n.a.	 5.083814e-01
2	 1	 308	 flanked	 rf	 8	 0.010000	 2.000000	 flanked_rf_freq_8_amplitude_0.01_rep_2_b_D_2.0.png	 D	 b	 t	 n.a.	 6.700837e-01
2	 1	 309	 flanked	 rf	 5	 0.061700	 2.000000	 flanked_rf_freq_5_amplitude_0.0617_rep_3_b_N_2.0.png	 N	 b	 l	 n.a.	 5.052580e-01
2	 1	 310	 flanked	 rf	 3	 0.165000	 2.000000	 flanked_rf_freq_3_amplitude_0.165_rep_7_r_K_2.0.png	 K	 r	 r	 n.a.	 3.432866e-01
2	 1	 311	 flanked	 rf	 12	 0.216700	 2.000000	 flanked_rf_freq_12_amplitude_0.2167_rep_1_l_N_2.0.png	 N	 l	 l	 n.a.	 3.688465e-01
2	 1	 312	 flanked	 rf	 12	 0.113300	 2.000000	 flanked_rf_freq_12_amplitude_0.1133_rep_5_r_D_2.0.png	 D	 r	 r	 n.a.	 3.254375e-01
2	 1	 313	 flanked	 rf	 2	 0.010000	 2.000000	 flanked_rf_freq_2_amplitude_0.01_rep_3_b_K_2.0.png	 K	 b	 t	 n.a.	 7.014519e-01
2	 1	 314	 flanked	 rf	 4	 0.010000	 2.000000	 flanked_rf_freq_4_amplitude_0.01_rep_9_r_H_2.0.png	 H	 r	 b	 n.a.	 3.266705e-01
2	 1	 315	 flanked	 rf	 3	 0.268300	 2.000000	 flanked_rf_freq_3_amplitude_0.2683_rep_4_t_N_2.0.png	 N	 t	 t	 n.a.	 4.840279e-01
2	 1	 316	 flanked	 rf	 3	 0.113300	 2.000000	 flanked_rf_freq_3_amplitude_0.1133_rep_6_t_N_2.0.png	 N	 t	 l	 n.a.	 4.375604e-01
2	 1	 317	 flanked	 rf	 4	 0.268300	 2.000000	 flanked_rf_freq_4_amplitude_0.2683_rep_0_t_K_2.0.png	 K	 t	 b	 n.a.	 3.350798e-01
2	 1	 318	 flanked	 rf	 3	 0.268300	 2.000000	 flanked_rf_freq_3_amplitude_0.2683_rep_0_b_K_2.0.png	 K	 b	 b	 n.a.	 4.155141e-01
2	 1	 319	 flanked	 rf	 8	 0.061700	 2.000000	 flanked_rf_freq_8_amplitude_0.0617_rep_3_b_H_2.0.png	 H	 b	 b	 n.a.	 7.365431e-01
2	 1	 320	 flanked	 rf	 2	 0.268300	 2.000000	 flanked_rf_freq_2_amplitude_0.2683_rep_9_b_H_2.0.png	 H	 b	 l	 n.a.	 5.679610e-01
2	 1	 321	 flanked	 rf	 3	 0.113300	 2.000000	 flanked_rf_freq_3_amplitude_0.1133_rep_0_b_K_2.0.png	 K	 b	 b	 n.a.	 3.170668e-01
2	 1	 322	 flanked	 rf	 8	 0.216700	 2.000000	 flanked_rf_freq_8_amplitude_0.2167_rep_5_l_H_2.0.png	 H	 l	 l	 n.a.	 4.270843e-01
2	 1	 323	 flanked	 rf	 12	 0.010000	 2.000000	 flanked_rf_freq_12_amplitude_0.01_rep_7_b_N_2.0.png	 N	 b	 t	 n.a.	 6.286195e-01
2	 1	 324	 flanked	 rf	 3	 0.320000	 2.000000	 flanked_rf_freq_3_amplitude_0.32_rep_5_b_H_2.0.png	 H	 b	 b	 n.a.	 3.495536e-01
2	 1	 325	 flanked	 rf	 4	 0.010000	 2.000000	 flanked_rf_freq_4_amplitude_0.01_rep_2_b_H_2.0.png	 H	 b	 l	 n.a.	 4.605550e-01
2	 1	 326	 flanked	 rf	 5	 0.268300	 2.000000	 flanked_rf_freq_5_amplitude_0.2683_rep_6_b_N_2.0.png	 N	 b	 b	 n.a.	 3.145428e-01
2	 1	 327	 flanked	 rf	 5	 0.216700	 2.000000	 flanked_rf_freq_5_amplitude_0.2167_rep_9_b_D_2.0.png	 D	 b	 b	 n.a.	 4.005067e-01
2	 1	 328	 flanked	 rf	 2	 0.216700	 2.000000	 flanked_rf_freq_2_amplitude_0.2167_rep_2_b_D_2.0.png	 D	 b	 b	 n.a.	 3.367614e-01
2	 1	 329	 flanked	 rf	 3	 0.216700	 2.000000	 flanked_rf_freq_3_amplitude_0.2167_rep_5_b_N_2.0.png	 N	 b	 b	 n.a.	 3.681573e-01
2	 1	 330	 flanked	 rf	 8	 0.268300	 2.000000	 flanked_rf_freq_8_amplitude_0.2683_rep_0_b_D_2.0.png	 D	 b	 b	 n.a.	 2.634423e-01
2	 1	 331	 flanked	 rf	 12	 0.113300	 2.000000	 flanked_rf_freq_12_amplitude_0.1133_rep_7_t_D_2.0.png	 D	 t	 r	 n.a.	 5.502019e-01
2	 1	 332	 flanked	 rf	 2	 0.061700	 2.000000	 flanked_rf_freq_2_amplitude_0.0617_rep_1_r_D_2.0.png	 D	 r	 l	 n.a.	 6.742130e-01
2	 1	 333	 flanked	 rf	 12	 0.010000	 2.000000	 flanked_rf_freq_12_amplitude_0.01_rep_4_b_N_2.0.png	 N	 b	 t	 n.a.	 6.185662e-01
2	 1	 334	 flanked	 rf	 4	 0.061700	 2.000000	 flanked_rf_freq_4_amplitude_0.0617_rep_3_r_K_2.0.png	 K	 r	 b	 n.a.	 2.481653e-01
2	 1	 335	 flanked	 rf	 5	 0.113300	 2.000000	 flanked_rf_freq_5_amplitude_0.1133_rep_7_r_D_2.0.png	 D	 r	 b	 n.a.	 4.386813e-01
2	 1	 336	 flanked	 rf	 2	 0.113300	 2.000000	 flanked_rf_freq_2_amplitude_0.1133_rep_1_t_K_2.0.png	 K	 t	 b	 n.a.	 3.549626e-01
2	 1	 337	 flanked	 rf	 8	 0.320000	 2.000000	 flanked_rf_freq_8_amplitude_0.32_rep_0_l_H_2.0.png	 H	 l	 l	 n.a.	 2.952267e-01
2	 1	 338	 flanked	 rf	 12	 0.010000	 2.000000	 flanked_rf_freq_12_amplitude_0.01_rep_3_l_K_2.0.png	 K	 l	 b	 n.a.	 3.756054e-01
2	 1	 339	 flanked	 rf	 3	 0.320000	 2.000000	 flanked_rf_freq_3_amplitude_0.32_rep_7_r_D_2.0.png	 D	 r	 r	 n.a.	 3.048148e-01
2	 1	 340	 flanked	 rf	 3	 0.061700	 2.000000	 flanked_rf_freq_3_amplitude_0.0617_rep_6_r_H_2.0.png	 H	 r	 b	 n.a.	 4.979564e-01
2	 1	 341	 flanked	 rf	 3	 0.216700	 2.000000	 flanked_rf_freq_3_amplitude_0.2167_rep_4_l_D_2.0.png	 D	 l	 b	 n.a.	 4.102561e-01
2	 1	 342	 flanked	 rf	 2	 0.268300	 2.000000	 flanked_rf_freq_2_amplitude_0.2683_rep_6_b_N_2.0.png	 N	 b	 r	 n.a.	 5.805490e-01
2	 1	 343	 flanked	 rf	 5	 0.010000	 2.000000	 flanked_rf_freq_5_amplitude_0.01_rep_4_b_N_2.0.png	 N	 b	 l	 n.a.	 3.630123e-01
2	 1	 344	 flanked	 rf	 8	 0.061700	 2.000000	 flanked_rf_freq_8_amplitude_0.0617_rep_2_r_K_2.0.png	 K	 r	 b	 n.a.	 6.535441e-01
2	 1	 345	 flanked	 rf	 4	 0.061700	 2.000000	 flanked_rf_freq_4_amplitude_0.0617_rep_6_b_N_2.0.png	 N	 b	 r	 n.a.	 3.394298e-01
2	 1	 346	 flanked	 rf	 12	 0.010000	 2.000000	 flanked_rf_freq_12_amplitude_0.01_rep_2_t_K_2.0.png	 K	 t	 l	 n.a.	 5.560561e-01
2	 1	 347	 flanked	 rf	 2	 0.165000	 2.000000	 flanked_rf_freq_2_amplitude_0.165_rep_4_r_N_2.0.png	 N	 r	 b	 n.a.	 3.885501e-01
2	 1	 348	 flanked	 rf	 4	 0.010000	 2.000000	 flanked_rf_freq_4_amplitude_0.01_rep_4_t_D_2.0.png	 D	 t	 b	 n.a.	 3.596628e-01
2	 1	 349	 flanked	 rf	 5	 0.320000	 2.000000	 flanked_rf_freq_5_amplitude_0.32_rep_7_t_D_2.0.png	 D	 t	 t	 n.a.	 3.956025e-01
2	 1	 350	 flanked	 rf	 3	 0.268300	 2.000000	 flanked_rf_freq_3_amplitude_0.2683_rep_1_r_N_2.0.png	 N	 r	 r	 n.a.	 4.459973e-01
2	 1	 351	 flanked	 rf	 2	 0.165000	 2.000000	 flanked_rf_freq_2_amplitude_0.165_rep_3_b_K_2.0.png	 K	 b	 l	 n.a.	 6.056552e-01
2	 1	 352	 flanked	 rf	 4	 0.061700	 2.000000	 flanked_rf_freq_4_amplitude_0.0617_rep_0_r_H_2.0.png	 H	 r	 b	 n.a.	 3.548530e-01
2	 1	 353	 flanked	 rf	 5	 0.216700	 2.000000	 flanked_rf_freq_5_amplitude_0.2167_rep_8_b_N_2.0.png	 N	 b	 b	 n.a.	 3.923171e-01
2	 1	 354	 flanked	 rf	 4	 0.113300	 2.000000	 flanked_rf_freq_4_amplitude_0.1133_rep_3_r_K_2.0.png	 K	 r	 r	 n.a.	 3.796737e-01
2	 1	 355	 flanked	 rf	 5	 0.061700	 2.000000	 flanked_rf_freq_5_amplitude_0.0617_rep_4_l_D_2.0.png	 D	 l	 b	 n.a.	 3.357514e-01
2	 1	 356	 flanked	 rf	 3	 0.216700	 2.000000	 flanked_rf_freq_3_amplitude_0.2167_rep_2_r_D_2.0.png	 D	 r	 r	 n.a.	 2.924887e-01
2	 1	 357	 flanked	 rf	 8	 0.268300	 2.000000	 flanked_rf_freq_8_amplitude_0.2683_rep_4_b_H_2.0.png	 H	 b	 b	 n.a.	 3.032807e-01
2	 1	 358	 flanked	 rf	 2	 0.216700	 2.000000	 flanked_rf_freq_2_amplitude_0.2167_rep_4_t_N_2.0.png	 N	 t	 l	 n.a.	 4.457745e-01
2	 1	 359	 flanked	 rf	 2	 0.010000	 2.000000	 flanked_rf_freq_2_amplitude_0.01_rep_7_r_K_2.0.png	 K	 r	 b	 n.a.	 2.476625e-01
2	 1	 360	 flanked	 rf	 8	 0.216700	 2.000000	 flanked_rf_freq_8_amplitude_0.2167_rep_1_b_D_2.0.png	 D	 b	 b	 n.a.	 3.916909e-01
2	 1	 361	 flanked	 rf	 12	 0.113300	 2.000000	 flanked_rf_freq_12_amplitude_0.1133_rep_3_b_H_2.0.png	 H	 b	 b	 n.a.	 3.684198e-01
2	 1	 362	 flanked	 rf	 12	 0.010000	 2.000000	 flanked_rf_freq_12_amplitude_0.01_rep_6_b_N_2.0.png	 N	 b	 l	 n.a.	 2.412621e-01
2	 1	 363	 flanked	 rf	 5	 0.113300	 2.000000	 flanked_rf_freq_5_amplitude_0.1133_rep_5_b_D_2.0.png	 D	 b	 b	 n.a.	 3.425494e-01
2	 1	 364	 flanked	 rf	 4	 0.268300	 2.000000	 flanked_rf_freq_4_amplitude_0.2683_rep_4_b_H_2.0.png	 H	 b	 b	 n.a.	 2.842042e-01
2	 1	 365	 flanked	 rf	 8	 0.216700	 2.000000	 flanked_rf_freq_8_amplitude_0.2167_rep_2_l_D_2.0.png	 D	 l	 l	 n.a.	 2.741013e-01
2	 1	 366	 flanked	 rf	 5	 0.010000	 2.000000	 flanked_rf_freq_5_amplitude_0.01_rep_6_t_H_2.0.png	 H	 t	 b	 n.a.	 4.524367e-01
2	 1	 367	 flanked	 rf	 12	 0.165000	 2.000000	 flanked_rf_freq_12_amplitude_0.165_rep_7_l_H_2.0.png	 H	 l	 l	 n.a.	 3.489778e-01
2	 1	 368	 flanked	 rf	 2	 0.320000	 2.000000	 flanked_rf_freq_2_amplitude_0.32_rep_5_b_H_2.0.png	 H	 b	 b	 n.a.	 2.874442e-01
2	 1	 369	 flanked	 rf	 3	 0.268300	 2.000000	 flanked_rf_freq_3_amplitude_0.2683_rep_6_r_D_2.0.png	 D	 r	 r	 n.a.	 3.556222e-01
2	 1	 370	 flanked	 rf	 2	 0.061700	 2.000000	 flanked_rf_freq_2_amplitude_0.0617_rep_4_r_H_2.0.png	 H	 r	 b	 n.a.	 2.989485e-01
2	 1	 371	 flanked	 rf	 4	 0.010000	 2.000000	 flanked_rf_freq_4_amplitude_0.01_rep_0_l_D_2.0.png	 D	 l	 l	 n.a.	 4.003158e-01
2	 1	 372	 flanked	 rf	 4	 0.216700	 2.000000	 flanked_rf_freq_4_amplitude_0.2167_rep_4_r_D_2.0.png	 D	 r	 r	 n.a.	 3.571609e-01
2	 1	 373	 flanked	 rf	 5	 0.165000	 2.000000	 flanked_rf_freq_5_amplitude_0.165_rep_8_l_K_2.0.png	 K	 l	 l	 n.a.	 2.684033e-01
2	 1	 374	 flanked	 rf	 12	 0.268300	 2.000000	 flanked_rf_freq_12_amplitude_0.2683_rep_9_t_D_2.0.png	 D	 t	 t	 n.a.	 3.367021e-01
2	 1	 375	 flanked	 rf	 2	 0.113300	 2.000000	 flanked_rf_freq_2_amplitude_0.1133_rep_3_b_K_2.0.png	 K	 b	 b	 n.a.	 2.693216e-01
2	 1	 376	 flanked	 rf	 12	 0.165000	 2.000000	 flanked_rf_freq_12_amplitude_0.165_rep_4_t_N_2.0.png	 N	 t	 b	 n.a.	 3.829603e-01
2	 1	 377	 flanked	 rf	 3	 0.010000	 2.000000	 flanked_rf_freq_3_amplitude_0.01_rep_2_t_D_2.0.png	 D	 t	 l	 n.a.	 4.318097e-01
2	 1	 378	 flanked	 rf	 8	 0.061700	 2.000000	 flanked_rf_freq_8_amplitude_0.0617_rep_5_b_K_2.0.png	 K	 b	 b	 n.a.	 3.538252e-01
2	 1	 379	 flanked	 rf	 4	 0.320000	 2.000000	 flanked_rf_freq_4_amplitude_0.32_rep_8_r_N_2.0.png	 N	 r	 r	 n.a.	 2.866191e-01
2	 1	 380	 flanked	 rf	 2	 0.320000	 2.000000	 flanked_rf_freq_2_amplitude_0.32_rep_8_r_H_2.0.png	 H	 r	 r	 n.a.	 3.017424e-01
2	 1	 381	 flanked	 rf	 5	 0.061700	 2.000000	 flanked_rf_freq_5_amplitude_0.0617_rep_6_b_D_2.0.png	 D	 b	 b	 n.a.	 3.707653e-01
2	 1	 382	 flanked	 rf	 4	 0.165000	 2.000000	 flanked_rf_freq_4_amplitude_0.165_rep_7_r_D_2.0.png	 D	 r	 b	 n.a.	 3.600167e-01
2	 1	 383	 flanked	 rf	 3	 0.113300	 2.000000	 flanked_rf_freq_3_amplitude_0.1133_rep_2_l_K_2.0.png	 K	 l	 b	 n.a.	 4.893287e-01
2	 1	 384	 flanked	 rf	 8	 0.216700	 2.000000	 flanked_rf_freq_8_amplitude_0.2167_rep_7_b_K_2.0.png	 K	 b	 b	 n.a.	 3.400096e-01
2	 1	 385	 flanked	 rf	 12	 0.113300	 2.000000	 flanked_rf_freq_12_amplitude_0.1133_rep_4_t_N_2.0.png	 N	 t	 t	 n.a.	 4.054634e-01
2	 1	 386	 flanked	 rf	 4	 0.061700	 2.000000	 flanked_rf_freq_4_amplitude_0.0617_rep_1_r_K_2.0.png	 K	 r	 b	 n.a.	 6.121800e-01
2	 1	 387	 flanked	 rf	 8	 0.268300	 2.000000	 flanked_rf_freq_8_amplitude_0.2683_rep_7_l_N_2.0.png	 N	 l	 l	 n.a.	 3.316529e-01
2	 1	 388	 flanked	 rf	 2	 0.165000	 2.000000	 flanked_rf_freq_2_amplitude_0.165_rep_7_b_H_2.0.png	 H	 b	 t	 n.a.	 4.476477e-01
2	 1	 389	 flanked	 rf	 3	 0.165000	 2.000000	 flanked_rf_freq_3_amplitude_0.165_rep_5_r_H_2.0.png	 H	 r	 r	 n.a.	 4.178146e-01
2	 1	 390	 flanked	 rf	 4	 0.113300	 2.000000	 flanked_rf_freq_4_amplitude_0.1133_rep_7_b_D_2.0.png	 D	 b	 b	 n.a.	 3.251808e-01
2	 1	 391	 flanked	 rf	 5	 0.320000	 2.000000	 flanked_rf_freq_5_amplitude_0.32_rep_8_b_K_2.0.png	 K	 b	 b	 n.a.	 3.194963e-01
2	 1	 392	 flanked	 rf	 8	 0.010000	 2.000000	 flanked_rf_freq_8_amplitude_0.01_rep_6_l_N_2.0.png	 N	 l	 t	 n.a.	 4.194997e-01
2	 1	 393	 flanked	 rf	 3	 0.320000	 2.000000	 flanked_rf_freq_3_amplitude_0.32_rep_9_t_N_2.0.png	 N	 t	 b	 n.a.	 3.848005e-01
2	 1	 394	 flanked	 rf	 2	 0.216700	 2.000000	 flanked_rf_freq_2_amplitude_0.2167_rep_0_t_N_2.0.png	 N	 t	 b	 n.a.	 3.974102e-01
2	 1	 395	 flanked	 rf	 3	 0.113300	 2.000000	 flanked_rf_freq_3_amplitude_0.1133_rep_8_r_N_2.0.png	 N	 r	 t	 n.a.	 4.909924e-01
2	 1	 396	 flanked	 rf	 12	 0.320000	 2.000000	 flanked_rf_freq_12_amplitude_0.32_rep_2_t_D_2.0.png	 D	 t	 t	 n.a.	 3.459794e-01
2	 1	 397	 flanked	 rf	 12	 0.061700	 2.000000	 flanked_rf_freq_12_amplitude_0.0617_rep_7_b_N_2.0.png	 N	 b	 b	 n.a.	 3.960797e-01
2	 1	 398	 flanked	 rf	 2	 0.113300	 2.000000	 flanked_rf_freq_2_amplitude_0.1133_rep_9_l_H_2.0.png	 H	 l	 b	 n.a.	 4.369510e-01
2	 1	 399	 flanked	 rf	 4	 0.061700	 2.000000	 flanked_rf_freq_4_amplitude_0.0617_rep_7_b_K_2.0.png	 K	 b	 b	 n.a.	 3.193750e-01
2	 1	 400	 flanked	 rf	 4	 0.268300	 2.000000	 flanked_rf_freq_4_amplitude_0.2683_rep_9_b_D_2.0.png	 D	 b	 b	 n.a.	 3.025946e-01
2	 1	 401	 flanked	 rf	 8	 0.216700	 2.000000	 flanked_rf_freq_8_amplitude_0.2167_rep_6_r_K_2.0.png	 K	 r	 r	 n.a.	 2.938857e-01
2	 1	 402	 flanked	 rf	 5	 0.113300	 2.000000	 flanked_rf_freq_5_amplitude_0.1133_rep_9_r_N_2.0.png	 N	 r	 b	 n.a.	 4.565692e-01
2	 1	 403	 flanked	 rf	 5	 0.268300	 2.000000	 flanked_rf_freq_5_amplitude_0.2683_rep_3_l_K_2.0.png	 K	 l	 l	 n.a.	 3.631520e-01
2	 1	 404	 flanked	 rf	 5	 0.216700	 2.000000	 flanked_rf_freq_5_amplitude_0.2167_rep_1_t_H_2.0.png	 H	 t	 b	 n.a.	 2.948335e-01
2	 1	 405	 flanked	 rf	 12	 0.216700	 2.000000	 flanked_rf_freq_12_amplitude_0.2167_rep_0_t_K_2.0.png	 K	 t	 t	 n.a.	 3.656853e-01
2	 1	 406	 flanked	 rf	 2	 0.061700	 2.000000	 flanked_rf_freq_2_amplitude_0.0617_rep_9_r_K_2.0.png	 K	 r	 b	 n.a.	 3.126111e-01
2	 1	 407	 flanked	 rf	 12	 0.268300	 2.000000	 flanked_rf_freq_12_amplitude_0.2683_rep_4_b_D_2.0.png	 D	 b	 b	 n.a.	 2.877724e-01
2	 1	 408	 flanked	 rf	 3	 0.268300	 2.000000	 flanked_rf_freq_3_amplitude_0.2683_rep_8_l_H_2.0.png	 H	 l	 l	 n.a.	 5.620284e-01
2	 1	 409	 flanked	 rf	 4	 0.010000	 2.000000	 flanked_rf_freq_4_amplitude_0.01_rep_6_r_H_2.0.png	 H	 r	 b	 n.a.	 3.331047e-01
2	 1	 410	 flanked	 rf	 2	 0.216700	 2.000000	 flanked_rf_freq_2_amplitude_0.2167_rep_7_l_K_2.0.png	 K	 l	 l	 n.a.	 3.379017e-01
2	 1	 411	 flanked	 rf	 12	 0.216700	 2.000000	 flanked_rf_freq_12_amplitude_0.2167_rep_8_t_N_2.0.png	 N	 t	 b	 n.a.	 2.940060e-01
2	 1	 412	 flanked	 rf	 12	 0.216700	 2.000000	 flanked_rf_freq_12_amplitude_0.2167_rep_2_b_N_2.0.png	 N	 b	 b	 n.a.	 3.140181e-01
2	 1	 413	 flanked	 rf	 5	 0.010000	 2.000000	 flanked_rf_freq_5_amplitude_0.01_rep_5_r_D_2.0.png	 D	 r	 b	 n.a.	 3.273880e-01
2	 1	 414	 flanked	 rf	 5	 0.061700	 2.000000	 flanked_rf_freq_5_amplitude_0.0617_rep_1_t_K_2.0.png	 K	 t	 b	 n.a.	 4.023268e-01
2	 1	 415	 flanked	 rf	 2	 0.113300	 2.000000	 flanked_rf_freq_2_amplitude_0.1133_rep_2_l_K_2.0.png	 K	 l	 l	 n.a.	 4.837914e-01
2	 1	 416	 flanked	 rf	 3	 0.216700	 2.000000	 flanked_rf_freq_3_amplitude_0.2167_rep_9_b_D_2.0.png	 D	 b	 b	 n.a.	 3.137552e-01
2	 1	 417	 flanked	 rf	 8	 0.061700	 2.000000	 flanked_rf_freq_8_amplitude_0.0617_rep_8_l_H_2.0.png	 H	 l	 b	 n.a.	 3.065027e-01
2	 1	 418	 flanked	 rf	 12	 0.010000	 2.000000	 flanked_rf_freq_12_amplitude_0.01_rep_9_l_K_2.0.png	 K	 l	 l	 n.a.	 3.603580e-01
2	 1	 419	 flanked	 rf	 12	 0.268300	 2.000000	 flanked_rf_freq_12_amplitude_0.2683_rep_1_b_H_2.0.png	 H	 b	 b	 n.a.	 2.974700e-01
2	 1	 420	 flanked	 rf	 4	 0.113300	 2.000000	 flanked_rf_freq_4_amplitude_0.1133_rep_4_t_H_2.0.png	 H	 t	 b	 n.a.	 4.208771e-01
