subject	 session	 trial	 flanked	 distortion	 freq	 amplitude	 spacing	 im_name	 targ_letter	 targ_pos	 response	 eyemovement	 RT
5	 6	 1	 unflanked	 rf	 3	 0.216700	 0.000000	 unflanked_rf_freq_3_amplitude_0.2167_rep_1_r_H.png	 H	 r	 r	 n.a.	 2.776472e-01
5	 6	 2	 unflanked	 rf	 2	 0.216700	 0.000000	 unflanked_rf_freq_2_amplitude_0.2167_rep_6_t_H.png	 H	 t	 t	 n.a.	 3.341185e-01
5	 6	 3	 unflanked	 rf	 12	 0.061700	 0.000000	 unflanked_rf_freq_12_amplitude_0.0617_rep_5_r_D.png	 D	 r	 r	 n.a.	 2.966824e-01
5	 6	 4	 unflanked	 rf	 2	 0.216700	 0.000000	 unflanked_rf_freq_2_amplitude_0.2167_rep_4_l_N.png	 N	 l	 l	 n.a.	 2.968467e-01
5	 6	 5	 unflanked	 rf	 2	 0.007500	 0.000000	 unflanked_rf_freq_2_amplitude_0.0075_rep_2_l_H.png	 H	 l	 t	 n.a.	 7.547237e-01
5	 6	 6	 unflanked	 rf	 3	 0.007500	 0.000000	 unflanked_rf_freq_3_amplitude_0.0075_rep_8_r_N.png	 N	 r	 l	 n.a.	 7.458842e-01
5	 6	 7	 unflanked	 rf	 12	 0.113300	 0.000000	 unflanked_rf_freq_12_amplitude_0.1133_rep_0_l_K.png	 K	 l	 l	 n.a.	 3.301299e-01
5	 6	 8	 unflanked	 rf	 12	 0.061700	 0.000000	 unflanked_rf_freq_12_amplitude_0.0617_rep_2_b_H.png	 H	 b	 b	 n.a.	 5.696846e-01
5	 6	 9	 unflanked	 rf	 4	 0.007500	 0.000000	 unflanked_rf_freq_4_amplitude_0.0075_rep_4_b_K.png	 K	 b	 b	 n.a.	 4.776843e-01
5	 6	 10	 unflanked	 rf	 4	 0.165000	 0.000000	 unflanked_rf_freq_4_amplitude_0.165_rep_2_t_K.png	 K	 t	 t	 n.a.	 4.933388e-01
5	 6	 11	 unflanked	 rf	 8	 0.216700	 0.000000	 unflanked_rf_freq_8_amplitude_0.2167_rep_1_l_N.png	 N	 l	 l	 n.a.	 2.949081e-01
5	 6	 12	 unflanked	 rf	 12	 0.268300	 0.000000	 unflanked_rf_freq_12_amplitude_0.2683_rep_8_r_D.png	 D	 r	 r	 n.a.	 3.005572e-01
5	 6	 13	 unflanked	 rf	 4	 0.010000	 0.000000	 unflanked_rf_freq_4_amplitude_0.01_rep_0_b_N.png	 N	 b	 l	 n.a.	 1.171623e+00
5	 6	 14	 unflanked	 rf	 3	 0.007500	 0.000000	 unflanked_rf_freq_3_amplitude_0.0075_rep_3_r_K.png	 K	 r	 t	 n.a.	 4.055050e-01
5	 6	 15	 unflanked	 rf	 12	 0.061700	 0.000000	 unflanked_rf_freq_12_amplitude_0.0617_rep_6_b_N.png	 N	 b	 t	 n.a.	 6.258064e-01
5	 6	 16	 unflanked	 rf	 5	 0.216700	 0.000000	 unflanked_rf_freq_5_amplitude_0.2167_rep_2_l_N.png	 N	 l	 l	 n.a.	 3.376667e-01
5	 6	 17	 unflanked	 rf	 3	 0.061700	 0.000000	 unflanked_rf_freq_3_amplitude_0.0617_rep_9_l_H.png	 H	 l	 t	 n.a.	 6.846612e-01
5	 6	 18	 unflanked	 rf	 8	 0.010000	 0.000000	 unflanked_rf_freq_8_amplitude_0.01_rep_8_b_D.png	 D	 b	 b	 n.a.	 7.926122e-01
5	 6	 19	 unflanked	 rf	 3	 0.113300	 0.000000	 unflanked_rf_freq_3_amplitude_0.1133_rep_8_b_D.png	 D	 b	 r	 n.a.	 9.634690e-01
5	 6	 20	 unflanked	 rf	 12	 0.113300	 0.000000	 unflanked_rf_freq_12_amplitude_0.1133_rep_6_b_D.png	 D	 b	 t	 n.a.	 3.967053e-01
5	 6	 21	 unflanked	 rf	 12	 0.113300	 0.000000	 unflanked_rf_freq_12_amplitude_0.1133_rep_7_r_K.png	 K	 r	 r	 n.a.	 2.901532e-01
5	 6	 22	 unflanked	 rf	 8	 0.165000	 0.000000	 unflanked_rf_freq_8_amplitude_0.165_rep_2_r_D.png	 D	 r	 r	 n.a.	 2.738075e-01
5	 6	 23	 unflanked	 rf	 5	 0.216700	 0.000000	 unflanked_rf_freq_5_amplitude_0.2167_rep_3_b_N.png	 N	 b	 b	 n.a.	 4.518086e-01
5	 6	 24	 unflanked	 rf	 4	 0.010000	 0.000000	 unflanked_rf_freq_4_amplitude_0.01_rep_4_b_D.png	 D	 b	 t	 n.a.	 7.450416e-01
5	 6	 25	 unflanked	 rf	 4	 0.061700	 0.000000	 unflanked_rf_freq_4_amplitude_0.0617_rep_4_b_H.png	 H	 b	 r	 n.a.	 4.233379e-01
5	 6	 26	 unflanked	 rf	 5	 0.007500	 0.000000	 unflanked_rf_freq_5_amplitude_0.0075_rep_7_l_N.png	 N	 l	 t	 n.a.	 5.250820e-01
5	 6	 27	 unflanked	 rf	 5	 0.113300	 0.000000	 unflanked_rf_freq_5_amplitude_0.1133_rep_3_t_K.png	 K	 t	 t	 n.a.	 3.807209e-01
5	 6	 28	 unflanked	 rf	 4	 0.165000	 0.000000	 unflanked_rf_freq_4_amplitude_0.165_rep_8_l_K.png	 K	 l	 l	 n.a.	 3.295134e-01
5	 6	 29	 unflanked	 rf	 3	 0.007500	 0.000000	 unflanked_rf_freq_3_amplitude_0.0075_rep_0_l_D.png	 D	 l	 t	 n.a.	 6.383280e-01
5	 6	 30	 unflanked	 rf	 12	 0.010000	 0.000000	 unflanked_rf_freq_12_amplitude_0.01_rep_8_b_D.png	 D	 b	 r	 n.a.	 7.225656e-01
5	 6	 31	 unflanked	 rf	 8	 0.010000	 0.000000	 unflanked_rf_freq_8_amplitude_0.01_rep_2_r_N.png	 N	 r	 t	 n.a.	 4.124141e-01
5	 6	 32	 unflanked	 rf	 2	 0.216700	 0.000000	 unflanked_rf_freq_2_amplitude_0.2167_rep_2_b_H.png	 H	 b	 b	 n.a.	 3.964948e-01
5	 6	 33	 unflanked	 rf	 5	 0.268300	 0.000000	 unflanked_rf_freq_5_amplitude_0.2683_rep_5_l_N.png	 N	 l	 l	 n.a.	 2.681890e-01
5	 6	 34	 unflanked	 rf	 2	 0.010000	 0.000000	 unflanked_rf_freq_2_amplitude_0.01_rep_3_t_N.png	 N	 t	 b	 n.a.	 7.011164e-01
5	 6	 35	 unflanked	 rf	 2	 0.165000	 0.000000	 unflanked_rf_freq_2_amplitude_0.165_rep_2_r_H.png	 H	 r	 r	 n.a.	 3.474965e-01
5	 6	 36	 unflanked	 rf	 5	 0.061700	 0.000000	 unflanked_rf_freq_5_amplitude_0.0617_rep_9_r_H.png	 H	 r	 r	 n.a.	 5.887397e-01
5	 6	 37	 unflanked	 rf	 5	 0.007500	 0.000000	 unflanked_rf_freq_5_amplitude_0.0075_rep_4_b_D.png	 D	 b	 t	 n.a.	 8.511234e-01
5	 6	 38	 unflanked	 rf	 4	 0.268300	 0.000000	 unflanked_rf_freq_4_amplitude_0.2683_rep_3_r_D.png	 D	 r	 r	 n.a.	 2.728325e-01
5	 6	 39	 unflanked	 rf	 12	 0.113300	 0.000000	 unflanked_rf_freq_12_amplitude_0.1133_rep_8_r_H.png	 H	 r	 r	 n.a.	 2.423662e-01
5	 6	 40	 unflanked	 rf	 4	 0.165000	 0.000000	 unflanked_rf_freq_4_amplitude_0.165_rep_0_r_K.png	 K	 r	 r	 n.a.	 3.152004e-01
5	 6	 41	 unflanked	 rf	 3	 0.268300	 0.000000	 unflanked_rf_freq_3_amplitude_0.2683_rep_7_r_K.png	 K	 r	 r	 n.a.	 3.080249e-01
5	 6	 42	 unflanked	 rf	 12	 0.061700	 0.000000	 unflanked_rf_freq_12_amplitude_0.0617_rep_0_r_N.png	 N	 r	 r	 n.a.	 3.789422e-01
5	 6	 43	 unflanked	 rf	 2	 0.007500	 0.000000	 unflanked_rf_freq_2_amplitude_0.0075_rep_9_t_H.png	 H	 t	 l	 n.a.	 4.882105e-01
5	 6	 44	 unflanked	 rf	 5	 0.010000	 0.000000	 unflanked_rf_freq_5_amplitude_0.01_rep_8_r_K.png	 K	 r	 r	 n.a.	 5.242288e-01
5	 6	 45	 unflanked	 rf	 5	 0.010000	 0.000000	 unflanked_rf_freq_5_amplitude_0.01_rep_7_l_N.png	 N	 l	 b	 n.a.	 8.776159e-01
5	 6	 46	 unflanked	 rf	 2	 0.113300	 0.000000	 unflanked_rf_freq_2_amplitude_0.1133_rep_2_r_D.png	 D	 r	 b	 n.a.	 7.319058e-01
5	 6	 47	 unflanked	 rf	 8	 0.165000	 0.000000	 unflanked_rf_freq_8_amplitude_0.165_rep_1_b_N.png	 N	 b	 b	 n.a.	 4.829239e-01
5	 6	 48	 unflanked	 rf	 4	 0.061700	 0.000000	 unflanked_rf_freq_4_amplitude_0.0617_rep_3_b_D.png	 D	 b	 b	 n.a.	 4.969025e-01
5	 6	 49	 unflanked	 rf	 2	 0.165000	 0.000000	 unflanked_rf_freq_2_amplitude_0.165_rep_7_r_K.png	 K	 r	 r	 n.a.	 4.621050e-01
5	 6	 50	 unflanked	 rf	 3	 0.268300	 0.000000	 unflanked_rf_freq_3_amplitude_0.2683_rep_4_b_N.png	 N	 b	 b	 n.a.	 4.916107e-01
5	 6	 51	 unflanked	 rf	 12	 0.268300	 0.000000	 unflanked_rf_freq_12_amplitude_0.2683_rep_6_l_K.png	 K	 l	 l	 n.a.	 2.501292e-01
5	 6	 52	 unflanked	 rf	 12	 0.061700	 0.000000	 unflanked_rf_freq_12_amplitude_0.0617_rep_9_b_K.png	 K	 b	 b	 n.a.	 2.946902e-01
5	 6	 53	 unflanked	 rf	 4	 0.113300	 0.000000	 unflanked_rf_freq_4_amplitude_0.1133_rep_8_l_H.png	 H	 l	 l	 n.a.	 5.822684e-01
5	 6	 54	 unflanked	 rf	 5	 0.165000	 0.000000	 unflanked_rf_freq_5_amplitude_0.165_rep_4_l_N.png	 N	 l	 l	 n.a.	 3.279277e-01
5	 6	 55	 unflanked	 rf	 2	 0.268300	 0.000000	 unflanked_rf_freq_2_amplitude_0.2683_rep_1_l_N.png	 N	 l	 l	 n.a.	 2.685131e-01
5	 6	 56	 unflanked	 rf	 2	 0.165000	 0.000000	 unflanked_rf_freq_2_amplitude_0.165_rep_0_l_D.png	 D	 l	 b	 n.a.	 7.729016e-01
5	 6	 57	 unflanked	 rf	 2	 0.216700	 0.000000	 unflanked_rf_freq_2_amplitude_0.2167_rep_8_t_D.png	 D	 t	 t	 n.a.	 4.839933e-01
5	 6	 58	 unflanked	 rf	 8	 0.216700	 0.000000	 unflanked_rf_freq_8_amplitude_0.2167_rep_3_l_D.png	 D	 l	 l	 n.a.	 2.334205e-01
5	 6	 59	 unflanked	 rf	 2	 0.007500	 0.000000	 unflanked_rf_freq_2_amplitude_0.0075_rep_0_t_N.png	 N	 t	 b	 n.a.	 7.569783e-01
5	 6	 60	 unflanked	 rf	 5	 0.165000	 0.000000	 unflanked_rf_freq_5_amplitude_0.165_rep_8_r_K.png	 K	 r	 r	 n.a.	 2.448870e-01
5	 6	 61	 unflanked	 rf	 3	 0.268300	 0.000000	 unflanked_rf_freq_3_amplitude_0.2683_rep_8_r_H.png	 H	 r	 r	 n.a.	 2.552139e-01
5	 6	 62	 unflanked	 rf	 4	 0.113300	 0.000000	 unflanked_rf_freq_4_amplitude_0.1133_rep_5_t_K.png	 K	 t	 t	 n.a.	 4.254933e-01
5	 6	 63	 unflanked	 rf	 3	 0.165000	 0.000000	 unflanked_rf_freq_3_amplitude_0.165_rep_3_b_H.png	 H	 b	 b	 n.a.	 4.528561e-01
5	 6	 64	 unflanked	 rf	 12	 0.216700	 0.000000	 unflanked_rf_freq_12_amplitude_0.2167_rep_3_r_N.png	 N	 r	 r	 n.a.	 3.575542e-01
5	 6	 65	 unflanked	 rf	 8	 0.216700	 0.000000	 unflanked_rf_freq_8_amplitude_0.2167_rep_8_t_D.png	 D	 t	 t	 n.a.	 3.777687e-01
5	 6	 66	 unflanked	 rf	 5	 0.165000	 0.000000	 unflanked_rf_freq_5_amplitude_0.165_rep_7_t_K.png	 K	 t	 t	 n.a.	 6.293847e-01
5	 6	 67	 unflanked	 rf	 2	 0.010000	 0.000000	 unflanked_rf_freq_2_amplitude_0.01_rep_6_t_H.png	 H	 t	 r	 n.a.	 6.145712e-01
5	 6	 68	 unflanked	 rf	 4	 0.268300	 0.000000	 unflanked_rf_freq_4_amplitude_0.2683_rep_2_l_N.png	 N	 l	 l	 n.a.	 3.131630e-01
5	 6	 69	 unflanked	 rf	 3	 0.007500	 0.000000	 unflanked_rf_freq_3_amplitude_0.0075_rep_2_r_N.png	 N	 r	 b	 n.a.	 5.875457e-01
5	 6	 70	 unflanked	 rf	 2	 0.268300	 0.000000	 unflanked_rf_freq_2_amplitude_0.2683_rep_0_r_H.png	 H	 r	 r	 n.a.	 3.343315e-01
5	 6	 71	 unflanked	 rf	 3	 0.165000	 0.000000	 unflanked_rf_freq_3_amplitude_0.165_rep_8_t_H.png	 H	 t	 t	 n.a.	 3.758158e-01
5	 6	 72	 unflanked	 rf	 12	 0.216700	 0.000000	 unflanked_rf_freq_12_amplitude_0.2167_rep_9_t_D.png	 D	 t	 t	 n.a.	 2.320041e-01
5	 6	 73	 unflanked	 rf	 8	 0.268300	 0.000000	 unflanked_rf_freq_8_amplitude_0.2683_rep_6_b_D.png	 D	 b	 b	 n.a.	 3.256443e-01
5	 6	 74	 unflanked	 rf	 3	 0.113300	 0.000000	 unflanked_rf_freq_3_amplitude_0.1133_rep_2_r_H.png	 H	 r	 r	 n.a.	 5.475186e-01
5	 6	 75	 unflanked	 rf	 12	 0.010000	 0.000000	 unflanked_rf_freq_12_amplitude_0.01_rep_9_t_K.png	 K	 t	 b	 n.a.	 6.617231e-01
5	 6	 76	 unflanked	 rf	 8	 0.061700	 0.000000	 unflanked_rf_freq_8_amplitude_0.0617_rep_2_r_K.png	 K	 r	 r	 n.a.	 3.305478e-01
5	 6	 77	 unflanked	 rf	 4	 0.061700	 0.000000	 unflanked_rf_freq_4_amplitude_0.0617_rep_9_b_D.png	 D	 b	 b	 n.a.	 4.261817e-01
5	 6	 78	 unflanked	 rf	 8	 0.007500	 0.000000	 unflanked_rf_freq_8_amplitude_0.0075_rep_2_r_N.png	 N	 r	 t	 n.a.	 4.585452e-01
5	 6	 79	 unflanked	 rf	 3	 0.113300	 0.000000	 unflanked_rf_freq_3_amplitude_0.1133_rep_4_l_D.png	 D	 l	 l	 n.a.	 2.806783e-01
5	 6	 80	 unflanked	 rf	 3	 0.216700	 0.000000	 unflanked_rf_freq_3_amplitude_0.2167_rep_0_r_D.png	 D	 r	 r	 n.a.	 2.235612e-01
5	 6	 81	 unflanked	 rf	 2	 0.216700	 0.000000	 unflanked_rf_freq_2_amplitude_0.2167_rep_7_t_H.png	 H	 t	 r	 n.a.	 6.825671e-01
5	 6	 82	 unflanked	 rf	 5	 0.113300	 0.000000	 unflanked_rf_freq_5_amplitude_0.1133_rep_7_l_D.png	 D	 l	 l	 n.a.	 3.061460e-01
5	 6	 83	 unflanked	 rf	 4	 0.113300	 0.000000	 unflanked_rf_freq_4_amplitude_0.1133_rep_0_t_K.png	 K	 t	 t	 n.a.	 3.868138e-01
5	 6	 84	 unflanked	 rf	 8	 0.010000	 0.000000	 unflanked_rf_freq_8_amplitude_0.01_rep_5_r_H.png	 H	 r	 b	 n.a.	 8.939331e-01
5	 6	 85	 unflanked	 rf	 8	 0.268300	 0.000000	 unflanked_rf_freq_8_amplitude_0.2683_rep_1_r_H.png	 H	 r	 r	 n.a.	 2.198010e-01
5	 6	 86	 unflanked	 rf	 8	 0.007500	 0.000000	 unflanked_rf_freq_8_amplitude_0.0075_rep_4_l_H.png	 H	 l	 t	 n.a.	 5.234650e-01
5	 6	 87	 unflanked	 rf	 3	 0.268300	 0.000000	 unflanked_rf_freq_3_amplitude_0.2683_rep_9_l_H.png	 H	 l	 l	 n.a.	 2.633420e-01
5	 6	 88	 unflanked	 rf	 8	 0.268300	 0.000000	 unflanked_rf_freq_8_amplitude_0.2683_rep_0_t_K.png	 K	 t	 t	 n.a.	 3.818704e-01
5	 6	 89	 unflanked	 rf	 5	 0.165000	 0.000000	 unflanked_rf_freq_5_amplitude_0.165_rep_2_r_D.png	 D	 r	 r	 n.a.	 2.698421e-01
5	 6	 90	 unflanked	 rf	 12	 0.061700	 0.000000	 unflanked_rf_freq_12_amplitude_0.0617_rep_7_b_D.png	 D	 b	 r	 n.a.	 7.713761e-01
5	 6	 91	 unflanked	 rf	 3	 0.010000	 0.000000	 unflanked_rf_freq_3_amplitude_0.01_rep_3_t_N.png	 N	 t	 l	 n.a.	 7.672839e-01
5	 6	 92	 unflanked	 rf	 12	 0.165000	 0.000000	 unflanked_rf_freq_12_amplitude_0.165_rep_5_t_N.png	 N	 t	 t	 n.a.	 2.438126e-01
5	 6	 93	 unflanked	 rf	 2	 0.216700	 0.000000	 unflanked_rf_freq_2_amplitude_0.2167_rep_5_r_H.png	 H	 r	 r	 n.a.	 3.260025e-01
5	 6	 94	 unflanked	 rf	 2	 0.268300	 0.000000	 unflanked_rf_freq_2_amplitude_0.2683_rep_5_l_K.png	 K	 l	 l	 n.a.	 2.944992e-01
5	 6	 95	 unflanked	 rf	 4	 0.216700	 0.000000	 unflanked_rf_freq_4_amplitude_0.2167_rep_1_r_D.png	 D	 r	 r	 n.a.	 2.499439e-01
5	 6	 96	 unflanked	 rf	 12	 0.165000	 0.000000	 unflanked_rf_freq_12_amplitude_0.165_rep_6_b_K.png	 K	 b	 b	 n.a.	 3.781592e-01
5	 6	 97	 unflanked	 rf	 3	 0.010000	 0.000000	 unflanked_rf_freq_3_amplitude_0.01_rep_5_t_K.png	 K	 t	 r	 n.a.	 4.458420e-01
5	 6	 98	 unflanked	 rf	 4	 0.268300	 0.000000	 unflanked_rf_freq_4_amplitude_0.2683_rep_9_t_N.png	 N	 t	 t	 n.a.	 3.650641e-01
5	 6	 99	 unflanked	 rf	 8	 0.113300	 0.000000	 unflanked_rf_freq_8_amplitude_0.1133_rep_2_r_D.png	 D	 r	 r	 n.a.	 2.692876e-01
5	 6	 100	 unflanked	 rf	 12	 0.268300	 0.000000	 unflanked_rf_freq_12_amplitude_0.2683_rep_7_r_H.png	 H	 r	 r	 n.a.	 2.082666e-01
5	 6	 101	 unflanked	 rf	 4	 0.165000	 0.000000	 unflanked_rf_freq_4_amplitude_0.165_rep_5_b_H.png	 H	 b	 b	 n.a.	 4.361727e-01
5	 6	 102	 unflanked	 rf	 4	 0.216700	 0.000000	 unflanked_rf_freq_4_amplitude_0.2167_rep_8_t_H.png	 H	 t	 t	 n.a.	 3.049809e-01
5	 6	 103	 unflanked	 rf	 2	 0.061700	 0.000000	 unflanked_rf_freq_2_amplitude_0.0617_rep_8_t_K.png	 K	 t	 b	 n.a.	 6.197190e-01
5	 6	 104	 unflanked	 rf	 12	 0.165000	 0.000000	 unflanked_rf_freq_12_amplitude_0.165_rep_0_b_N.png	 N	 b	 b	 n.a.	 2.929525e-01
5	 6	 105	 unflanked	 rf	 3	 0.165000	 0.000000	 unflanked_rf_freq_3_amplitude_0.165_rep_1_b_H.png	 H	 b	 b	 n.a.	 4.113213e-01
5	 6	 106	 unflanked	 rf	 3	 0.165000	 0.000000	 unflanked_rf_freq_3_amplitude_0.165_rep_2_l_D.png	 D	 l	 r	 n.a.	 6.564670e-01
5	 6	 107	 unflanked	 rf	 2	 0.216700	 0.000000	 unflanked_rf_freq_2_amplitude_0.2167_rep_0_b_N.png	 N	 b	 t	 n.a.	 3.841241e-01
5	 6	 108	 unflanked	 rf	 4	 0.268300	 0.000000	 unflanked_rf_freq_4_amplitude_0.2683_rep_4_l_N.png	 N	 l	 l	 n.a.	 2.721294e-01
5	 6	 109	 unflanked	 rf	 5	 0.061700	 0.000000	 unflanked_rf_freq_5_amplitude_0.0617_rep_8_t_N.png	 N	 t	 r	 n.a.	 6.569359e-01
5	 6	 110	 unflanked	 rf	 4	 0.007500	 0.000000	 unflanked_rf_freq_4_amplitude_0.0075_rep_3_b_K.png	 K	 b	 b	 n.a.	 3.840708e-01
5	 6	 111	 unflanked	 rf	 8	 0.216700	 0.000000	 unflanked_rf_freq_8_amplitude_0.2167_rep_5_t_N.png	 N	 t	 t	 n.a.	 3.237661e-01
5	 6	 112	 unflanked	 rf	 2	 0.165000	 0.000000	 unflanked_rf_freq_2_amplitude_0.165_rep_4_t_D.png	 D	 t	 t	 n.a.	 3.847273e-01
5	 6	 113	 unflanked	 rf	 2	 0.165000	 0.000000	 unflanked_rf_freq_2_amplitude_0.165_rep_1_r_H.png	 H	 r	 t	 n.a.	 3.749027e-01
5	 6	 114	 unflanked	 rf	 5	 0.268300	 0.000000	 unflanked_rf_freq_5_amplitude_0.2683_rep_9_l_K.png	 K	 l	 l	 n.a.	 2.970395e-01
5	 6	 115	 unflanked	 rf	 2	 0.268300	 0.000000	 unflanked_rf_freq_2_amplitude_0.2683_rep_9_t_H.png	 H	 t	 t	 n.a.	 5.494643e-01
5	 6	 116	 unflanked	 rf	 2	 0.216700	 0.000000	 unflanked_rf_freq_2_amplitude_0.2167_rep_9_b_D.png	 D	 b	 b	 n.a.	 5.745156e-01
5	 6	 117	 unflanked	 rf	 5	 0.010000	 0.000000	 unflanked_rf_freq_5_amplitude_0.01_rep_9_b_K.png	 K	 b	 b	 n.a.	 1.022390e+00
5	 6	 118	 unflanked	 rf	 2	 0.007500	 0.000000	 unflanked_rf_freq_2_amplitude_0.0075_rep_8_t_H.png	 H	 t	 r	 n.a.	 3.920165e-01
5	 6	 119	 unflanked	 rf	 4	 0.113300	 0.000000	 unflanked_rf_freq_4_amplitude_0.1133_rep_4_b_D.png	 D	 b	 b	 n.a.	 7.343869e-01
5	 6	 120	 unflanked	 rf	 3	 0.165000	 0.000000	 unflanked_rf_freq_3_amplitude_0.165_rep_0_b_H.png	 H	 b	 b	 n.a.	 8.784364e-01
5	 6	 121	 unflanked	 rf	 8	 0.216700	 0.000000	 unflanked_rf_freq_8_amplitude_0.2167_rep_9_r_N.png	 N	 r	 r	 n.a.	 3.136659e-01
5	 6	 122	 unflanked	 rf	 4	 0.216700	 0.000000	 unflanked_rf_freq_4_amplitude_0.2167_rep_6_b_D.png	 D	 b	 b	 n.a.	 5.805210e-01
5	 6	 123	 unflanked	 rf	 4	 0.007500	 0.000000	 unflanked_rf_freq_4_amplitude_0.0075_rep_6_t_H.png	 H	 t	 r	 n.a.	 4.693343e-01
5	 6	 124	 unflanked	 rf	 4	 0.061700	 0.000000	 unflanked_rf_freq_4_amplitude_0.0617_rep_6_b_N.png	 N	 b	 l	 n.a.	 9.176798e-01
5	 6	 125	 unflanked	 rf	 5	 0.113300	 0.000000	 unflanked_rf_freq_5_amplitude_0.1133_rep_5_r_K.png	 K	 r	 r	 n.a.	 2.799800e-01
5	 6	 126	 unflanked	 rf	 3	 0.216700	 0.000000	 unflanked_rf_freq_3_amplitude_0.2167_rep_7_b_K.png	 K	 b	 b	 n.a.	 4.172324e-01
5	 6	 127	 unflanked	 rf	 5	 0.061700	 0.000000	 unflanked_rf_freq_5_amplitude_0.0617_rep_4_r_H.png	 H	 r	 r	 n.a.	 3.408968e-01
5	 6	 128	 unflanked	 rf	 2	 0.165000	 0.000000	 unflanked_rf_freq_2_amplitude_0.165_rep_5_r_K.png	 K	 r	 r	 n.a.	 3.121190e-01
5	 6	 129	 unflanked	 rf	 2	 0.113300	 0.000000	 unflanked_rf_freq_2_amplitude_0.1133_rep_4_t_N.png	 N	 t	 b	 n.a.	 5.498129e-01
5	 6	 130	 unflanked	 rf	 8	 0.165000	 0.000000	 unflanked_rf_freq_8_amplitude_0.165_rep_3_t_N.png	 N	 t	 t	 n.a.	 3.583452e-01
5	 6	 131	 unflanked	 rf	 5	 0.268300	 0.000000	 unflanked_rf_freq_5_amplitude_0.2683_rep_8_b_N.png	 N	 b	 b	 n.a.	 4.265009e-01
5	 6	 132	 unflanked	 rf	 12	 0.010000	 0.000000	 unflanked_rf_freq_12_amplitude_0.01_rep_7_l_K.png	 K	 l	 l	 n.a.	 5.046931e-01
5	 6	 133	 unflanked	 rf	 5	 0.061700	 0.000000	 unflanked_rf_freq_5_amplitude_0.0617_rep_3_r_K.png	 K	 r	 b	 n.a.	 8.932570e-01
5	 6	 134	 unflanked	 rf	 3	 0.216700	 0.000000	 unflanked_rf_freq_3_amplitude_0.2167_rep_2_r_N.png	 N	 r	 r	 n.a.	 3.334698e-01
5	 6	 135	 unflanked	 rf	 5	 0.010000	 0.000000	 unflanked_rf_freq_5_amplitude_0.01_rep_4_r_K.png	 K	 r	 l	 n.a.	 8.441264e-01
5	 6	 136	 unflanked	 rf	 3	 0.061700	 0.000000	 unflanked_rf_freq_3_amplitude_0.0617_rep_0_l_H.png	 H	 l	 t	 n.a.	 6.719008e-01
5	 6	 137	 unflanked	 rf	 5	 0.165000	 0.000000	 unflanked_rf_freq_5_amplitude_0.165_rep_3_b_N.png	 N	 b	 b	 n.a.	 4.922210e-01
5	 6	 138	 unflanked	 rf	 5	 0.007500	 0.000000	 unflanked_rf_freq_5_amplitude_0.0075_rep_5_t_D.png	 D	 t	 r	 n.a.	 4.675598e-01
5	 6	 139	 unflanked	 rf	 3	 0.113300	 0.000000	 unflanked_rf_freq_3_amplitude_0.1133_rep_5_t_H.png	 H	 t	 l	 n.a.	 5.804058e-01
5	 6	 140	 unflanked	 rf	 8	 0.268300	 0.000000	 unflanked_rf_freq_8_amplitude_0.2683_rep_2_l_K.png	 K	 l	 l	 n.a.	 2.976338e-01
5	 6	 141	 unflanked	 rf	 12	 0.268300	 0.000000	 unflanked_rf_freq_12_amplitude_0.2683_rep_2_l_H.png	 H	 l	 l	 n.a.	 2.460764e-01
5	 6	 142	 unflanked	 rf	 5	 0.268300	 0.000000	 unflanked_rf_freq_5_amplitude_0.2683_rep_2_t_D.png	 D	 t	 t	 n.a.	 3.869074e-01
5	 6	 143	 unflanked	 rf	 3	 0.061700	 0.000000	 unflanked_rf_freq_3_amplitude_0.0617_rep_5_b_H.png	 H	 b	 r	 n.a.	 1.048955e+00
5	 6	 144	 unflanked	 rf	 12	 0.007500	 0.000000	 unflanked_rf_freq_12_amplitude_0.0075_rep_8_b_D.png	 D	 b	 l	 n.a.	 5.778114e-01
5	 6	 145	 unflanked	 rf	 3	 0.113300	 0.000000	 unflanked_rf_freq_3_amplitude_0.1133_rep_3_b_N.png	 N	 b	 b	 n.a.	 3.880713e-01
5	 6	 146	 unflanked	 rf	 4	 0.113300	 0.000000	 unflanked_rf_freq_4_amplitude_0.1133_rep_1_l_D.png	 D	 l	 r	 n.a.	 6.252020e-01
5	 6	 147	 unflanked	 rf	 3	 0.268300	 0.000000	 unflanked_rf_freq_3_amplitude_0.2683_rep_6_r_H.png	 H	 r	 r	 n.a.	 2.234195e-01
5	 6	 148	 unflanked	 rf	 12	 0.165000	 0.000000	 unflanked_rf_freq_12_amplitude_0.165_rep_9_l_K.png	 K	 l	 l	 n.a.	 2.225580e-01
5	 6	 149	 unflanked	 rf	 12	 0.113300	 0.000000	 unflanked_rf_freq_12_amplitude_0.1133_rep_2_b_D.png	 D	 b	 b	 n.a.	 3.351350e-01
5	 6	 150	 unflanked	 rf	 8	 0.010000	 0.000000	 unflanked_rf_freq_8_amplitude_0.01_rep_1_r_H.png	 H	 r	 b	 n.a.	 2.496675e-01
5	 6	 151	 unflanked	 rf	 3	 0.165000	 0.000000	 unflanked_rf_freq_3_amplitude_0.165_rep_9_l_N.png	 N	 l	 l	 n.a.	 2.731299e-01
5	 6	 152	 unflanked	 rf	 2	 0.113300	 0.000000	 unflanked_rf_freq_2_amplitude_0.1133_rep_9_t_D.png	 D	 t	 t	 n.a.	 6.322114e-01
5	 6	 153	 unflanked	 rf	 5	 0.216700	 0.000000	 unflanked_rf_freq_5_amplitude_0.2167_rep_8_b_H.png	 H	 b	 b	 n.a.	 4.376499e-01
5	 6	 154	 unflanked	 rf	 2	 0.061700	 0.000000	 unflanked_rf_freq_2_amplitude_0.0617_rep_7_t_H.png	 H	 t	 t	 n.a.	 5.119153e-01
5	 6	 155	 unflanked	 rf	 8	 0.216700	 0.000000	 unflanked_rf_freq_8_amplitude_0.2167_rep_6_r_K.png	 K	 r	 r	 n.a.	 2.626206e-01
5	 6	 156	 unflanked	 rf	 3	 0.010000	 0.000000	 unflanked_rf_freq_3_amplitude_0.01_rep_6_r_K.png	 K	 r	 r	 n.a.	 7.716702e-01
5	 6	 157	 unflanked	 rf	 4	 0.061700	 0.000000	 unflanked_rf_freq_4_amplitude_0.0617_rep_1_l_H.png	 H	 l	 t	 n.a.	 7.342800e-01
5	 6	 158	 unflanked	 rf	 4	 0.113300	 0.000000	 unflanked_rf_freq_4_amplitude_0.1133_rep_7_t_K.png	 K	 t	 t	 n.a.	 4.743230e-01
5	 6	 159	 unflanked	 rf	 2	 0.268300	 0.000000	 unflanked_rf_freq_2_amplitude_0.2683_rep_7_t_N.png	 N	 t	 t	 n.a.	 3.892314e-01
5	 6	 160	 unflanked	 rf	 12	 0.007500	 0.000000	 unflanked_rf_freq_12_amplitude_0.0075_rep_1_b_N.png	 N	 b	 t	 n.a.	 8.721493e-01
5	 6	 161	 unflanked	 rf	 12	 0.010000	 0.000000	 unflanked_rf_freq_12_amplitude_0.01_rep_2_r_N.png	 N	 r	 l	 n.a.	 7.476982e-01
5	 6	 162	 unflanked	 rf	 5	 0.216700	 0.000000	 unflanked_rf_freq_5_amplitude_0.2167_rep_6_r_H.png	 H	 r	 r	 n.a.	 2.554709e-01
5	 6	 163	 unflanked	 rf	 2	 0.113300	 0.000000	 unflanked_rf_freq_2_amplitude_0.1133_rep_8_l_N.png	 N	 l	 t	 n.a.	 9.538350e-01
5	 6	 164	 unflanked	 rf	 4	 0.113300	 0.000000	 unflanked_rf_freq_4_amplitude_0.1133_rep_3_b_H.png	 H	 b	 r	 n.a.	 3.706620e-01
5	 6	 165	 unflanked	 rf	 4	 0.007500	 0.000000	 unflanked_rf_freq_4_amplitude_0.0075_rep_9_b_N.png	 N	 b	 r	 n.a.	 5.138313e-01
5	 6	 166	 unflanked	 rf	 12	 0.216700	 0.000000	 unflanked_rf_freq_12_amplitude_0.2167_rep_8_b_N.png	 N	 b	 b	 n.a.	 3.413186e-01
5	 6	 167	 unflanked	 rf	 5	 0.113300	 0.000000	 unflanked_rf_freq_5_amplitude_0.1133_rep_9_r_D.png	 D	 r	 r	 n.a.	 3.518099e-01
5	 6	 168	 unflanked	 rf	 2	 0.216700	 0.000000	 unflanked_rf_freq_2_amplitude_0.2167_rep_3_r_D.png	 D	 r	 r	 n.a.	 3.969387e-01
5	 6	 169	 unflanked	 rf	 8	 0.113300	 0.000000	 unflanked_rf_freq_8_amplitude_0.1133_rep_3_r_H.png	 H	 r	 r	 n.a.	 3.124153e-01
5	 6	 170	 unflanked	 rf	 4	 0.113300	 0.000000	 unflanked_rf_freq_4_amplitude_0.1133_rep_6_t_N.png	 N	 t	 t	 n.a.	 7.358243e-01
5	 6	 171	 unflanked	 rf	 2	 0.113300	 0.000000	 unflanked_rf_freq_2_amplitude_0.1133_rep_5_l_N.png	 N	 l	 l	 n.a.	 4.213714e-01
5	 6	 172	 unflanked	 rf	 3	 0.010000	 0.000000	 unflanked_rf_freq_3_amplitude_0.01_rep_9_t_N.png	 N	 t	 r	 n.a.	 6.305619e-01
5	 6	 173	 unflanked	 rf	 8	 0.061700	 0.000000	 unflanked_rf_freq_8_amplitude_0.0617_rep_9_r_N.png	 N	 r	 r	 n.a.	 3.267513e-01
5	 6	 174	 unflanked	 rf	 2	 0.113300	 0.000000	 unflanked_rf_freq_2_amplitude_0.1133_rep_7_t_D.png	 D	 t	 t	 n.a.	 4.909514e-01
5	 6	 175	 unflanked	 rf	 5	 0.007500	 0.000000	 unflanked_rf_freq_5_amplitude_0.0075_rep_2_r_D.png	 D	 r	 l	 n.a.	 7.400548e-01
5	 6	 176	 unflanked	 rf	 3	 0.113300	 0.000000	 unflanked_rf_freq_3_amplitude_0.1133_rep_6_t_D.png	 D	 t	 t	 n.a.	 3.534420e-01
5	 6	 177	 unflanked	 rf	 8	 0.268300	 0.000000	 unflanked_rf_freq_8_amplitude_0.2683_rep_5_b_N.png	 N	 b	 b	 n.a.	 3.984834e-01
5	 6	 178	 unflanked	 rf	 2	 0.113300	 0.000000	 unflanked_rf_freq_2_amplitude_0.1133_rep_1_b_D.png	 D	 b	 b	 n.a.	 5.686692e-01
5	 6	 179	 unflanked	 rf	 8	 0.268300	 0.000000	 unflanked_rf_freq_8_amplitude_0.2683_rep_8_l_K.png	 K	 l	 l	 n.a.	 2.781525e-01
5	 6	 180	 unflanked	 rf	 5	 0.268300	 0.000000	 unflanked_rf_freq_5_amplitude_0.2683_rep_7_t_K.png	 K	 t	 t	 n.a.	 3.434926e-01
5	 6	 181	 unflanked	 rf	 8	 0.007500	 0.000000	 unflanked_rf_freq_8_amplitude_0.0075_rep_7_b_D.png	 D	 b	 b	 n.a.	 1.013381e+00
5	 6	 182	 unflanked	 rf	 2	 0.165000	 0.000000	 unflanked_rf_freq_2_amplitude_0.165_rep_6_l_K.png	 K	 l	 r	 n.a.	 4.505615e-01
5	 6	 183	 unflanked	 rf	 12	 0.007500	 0.000000	 unflanked_rf_freq_12_amplitude_0.0075_rep_7_l_H.png	 H	 l	 b	 n.a.	 7.446784e-01
5	 6	 184	 unflanked	 rf	 2	 0.165000	 0.000000	 unflanked_rf_freq_2_amplitude_0.165_rep_3_b_H.png	 H	 b	 b	 n.a.	 4.909586e-01
5	 6	 185	 unflanked	 rf	 3	 0.007500	 0.000000	 unflanked_rf_freq_3_amplitude_0.0075_rep_5_t_N.png	 N	 t	 l	 n.a.	 8.213795e-01
5	 6	 186	 unflanked	 rf	 4	 0.007500	 0.000000	 unflanked_rf_freq_4_amplitude_0.0075_rep_1_b_D.png	 D	 b	 r	 n.a.	 4.600851e-01
5	 6	 187	 unflanked	 rf	 8	 0.165000	 0.000000	 unflanked_rf_freq_8_amplitude_0.165_rep_8_r_D.png	 D	 r	 r	 n.a.	 4.281796e-01
5	 6	 188	 unflanked	 rf	 8	 0.010000	 0.000000	 unflanked_rf_freq_8_amplitude_0.01_rep_6_t_H.png	 H	 t	 l	 n.a.	 4.607343e-01
5	 6	 189	 unflanked	 rf	 12	 0.216700	 0.000000	 unflanked_rf_freq_12_amplitude_0.2167_rep_6_b_D.png	 D	 b	 b	 n.a.	 3.130148e-01
5	 6	 190	 unflanked	 rf	 4	 0.113300	 0.000000	 unflanked_rf_freq_4_amplitude_0.1133_rep_9_l_D.png	 D	 l	 l	 n.a.	 4.869336e-01
5	 6	 191	 unflanked	 rf	 3	 0.007500	 0.000000	 unflanked_rf_freq_3_amplitude_0.0075_rep_1_t_D.png	 D	 t	 l	 n.a.	 7.075952e-01
5	 6	 192	 unflanked	 rf	 12	 0.113300	 0.000000	 unflanked_rf_freq_12_amplitude_0.1133_rep_5_t_H.png	 H	 t	 t	 n.a.	 4.081826e-01
5	 6	 193	 unflanked	 rf	 12	 0.113300	 0.000000	 unflanked_rf_freq_12_amplitude_0.1133_rep_4_b_D.png	 D	 b	 b	 n.a.	 3.958144e-01
5	 6	 194	 unflanked	 rf	 3	 0.216700	 0.000000	 unflanked_rf_freq_3_amplitude_0.2167_rep_6_l_D.png	 D	 l	 l	 n.a.	 2.671004e-01
5	 6	 195	 unflanked	 rf	 2	 0.010000	 0.000000	 unflanked_rf_freq_2_amplitude_0.01_rep_9_t_N.png	 N	 t	 r	 n.a.	 5.700041e-01
5	 6	 196	 unflanked	 rf	 3	 0.061700	 0.000000	 unflanked_rf_freq_3_amplitude_0.0617_rep_7_b_K.png	 K	 b	 b	 n.a.	 3.982491e-01
5	 6	 197	 unflanked	 rf	 5	 0.113300	 0.000000	 unflanked_rf_freq_5_amplitude_0.1133_rep_8_r_K.png	 K	 r	 r	 n.a.	 3.637024e-01
5	 6	 198	 unflanked	 rf	 2	 0.113300	 0.000000	 unflanked_rf_freq_2_amplitude_0.1133_rep_3_b_K.png	 K	 b	 r	 n.a.	 3.467782e-01
5	 6	 199	 unflanked	 rf	 4	 0.165000	 0.000000	 unflanked_rf_freq_4_amplitude_0.165_rep_6_b_D.png	 D	 b	 b	 n.a.	 3.755959e-01
5	 6	 200	 unflanked	 rf	 4	 0.010000	 0.000000	 unflanked_rf_freq_4_amplitude_0.01_rep_5_r_K.png	 K	 r	 r	 n.a.	 9.872013e-01
5	 6	 201	 unflanked	 rf	 5	 0.216700	 0.000000	 unflanked_rf_freq_5_amplitude_0.2167_rep_5_t_N.png	 N	 t	 t	 n.a.	 4.004144e-01
5	 6	 202	 unflanked	 rf	 2	 0.061700	 0.000000	 unflanked_rf_freq_2_amplitude_0.0617_rep_2_r_D.png	 D	 r	 b	 n.a.	 4.422401e-01
5	 6	 203	 unflanked	 rf	 5	 0.010000	 0.000000	 unflanked_rf_freq_5_amplitude_0.01_rep_5_b_D.png	 D	 b	 l	 n.a.	 8.437004e-01
5	 6	 204	 unflanked	 rf	 12	 0.061700	 0.000000	 unflanked_rf_freq_12_amplitude_0.0617_rep_8_l_K.png	 K	 l	 l	 n.a.	 3.441568e-01
5	 6	 205	 unflanked	 rf	 12	 0.216700	 0.000000	 unflanked_rf_freq_12_amplitude_0.2167_rep_0_b_N.png	 N	 b	 b	 n.a.	 3.655254e-01
5	 6	 206	 unflanked	 rf	 12	 0.061700	 0.000000	 unflanked_rf_freq_12_amplitude_0.0617_rep_1_t_N.png	 N	 t	 t	 n.a.	 4.419709e-01
5	 6	 207	 unflanked	 rf	 12	 0.007500	 0.000000	 unflanked_rf_freq_12_amplitude_0.0075_rep_4_t_K.png	 K	 t	 b	 n.a.	 4.162778e-01
5	 6	 208	 unflanked	 rf	 8	 0.268300	 0.000000	 unflanked_rf_freq_8_amplitude_0.2683_rep_4_r_H.png	 H	 r	 r	 n.a.	 2.488128e-01
5	 6	 209	 unflanked	 rf	 5	 0.165000	 0.000000	 unflanked_rf_freq_5_amplitude_0.165_rep_9_t_H.png	 H	 t	 t	 n.a.	 4.052660e-01
5	 6	 210	 unflanked	 rf	 8	 0.216700	 0.000000	 unflanked_rf_freq_8_amplitude_0.2167_rep_4_l_K.png	 K	 l	 l	 n.a.	 2.796696e-01
5	 6	 211	 unflanked	 rf	 8	 0.113300	 0.000000	 unflanked_rf_freq_8_amplitude_0.1133_rep_1_t_H.png	 H	 t	 t	 n.a.	 3.187182e-01
5	 6	 212	 unflanked	 rf	 2	 0.268300	 0.000000	 unflanked_rf_freq_2_amplitude_0.2683_rep_6_t_D.png	 D	 t	 t	 n.a.	 3.806107e-01
5	 6	 213	 unflanked	 rf	 12	 0.165000	 0.000000	 unflanked_rf_freq_12_amplitude_0.165_rep_4_b_H.png	 H	 b	 b	 n.a.	 3.728359e-01
5	 6	 214	 unflanked	 rf	 2	 0.165000	 0.000000	 unflanked_rf_freq_2_amplitude_0.165_rep_8_r_K.png	 K	 r	 r	 n.a.	 3.160512e-01
5	 6	 215	 unflanked	 rf	 4	 0.165000	 0.000000	 unflanked_rf_freq_4_amplitude_0.165_rep_9_t_N.png	 N	 t	 t	 n.a.	 3.341610e-01
5	 6	 216	 unflanked	 rf	 8	 0.061700	 0.000000	 unflanked_rf_freq_8_amplitude_0.0617_rep_3_l_D.png	 D	 l	 l	 n.a.	 2.360592e-01
5	 6	 217	 unflanked	 rf	 8	 0.007500	 0.000000	 unflanked_rf_freq_8_amplitude_0.0075_rep_9_r_D.png	 D	 r	 r	 n.a.	 7.165883e-01
5	 6	 218	 unflanked	 rf	 3	 0.216700	 0.000000	 unflanked_rf_freq_3_amplitude_0.2167_rep_8_l_K.png	 K	 l	 l	 n.a.	 2.640671e-01
5	 6	 219	 unflanked	 rf	 3	 0.268300	 0.000000	 unflanked_rf_freq_3_amplitude_0.2683_rep_5_b_D.png	 D	 b	 b	 n.a.	 4.114182e-01
5	 6	 220	 unflanked	 rf	 2	 0.007500	 0.000000	 unflanked_rf_freq_2_amplitude_0.0075_rep_7_r_H.png	 H	 r	 b	 n.a.	 4.246479e-01
5	 6	 221	 unflanked	 rf	 4	 0.216700	 0.000000	 unflanked_rf_freq_4_amplitude_0.2167_rep_5_l_N.png	 N	 l	 l	 n.a.	 2.796909e-01
5	 6	 222	 unflanked	 rf	 2	 0.010000	 0.000000	 unflanked_rf_freq_2_amplitude_0.01_rep_0_r_H.png	 H	 r	 t	 n.a.	 8.008885e-01
5	 6	 223	 unflanked	 rf	 5	 0.007500	 0.000000	 unflanked_rf_freq_5_amplitude_0.0075_rep_6_r_K.png	 K	 r	 r	 n.a.	 4.144494e-01
5	 6	 224	 unflanked	 rf	 2	 0.010000	 0.000000	 unflanked_rf_freq_2_amplitude_0.01_rep_5_l_H.png	 H	 l	 b	 n.a.	 4.605748e-01
5	 6	 225	 unflanked	 rf	 8	 0.061700	 0.000000	 unflanked_rf_freq_8_amplitude_0.0617_rep_4_r_N.png	 N	 r	 r	 n.a.	 7.589168e-01
5	 6	 226	 unflanked	 rf	 2	 0.268300	 0.000000	 unflanked_rf_freq_2_amplitude_0.2683_rep_8_r_H.png	 H	 r	 r	 n.a.	 3.188157e-01
5	 6	 227	 unflanked	 rf	 5	 0.061700	 0.000000	 unflanked_rf_freq_5_amplitude_0.0617_rep_0_r_H.png	 H	 r	 r	 n.a.	 4.184798e-01
5	 6	 228	 unflanked	 rf	 5	 0.010000	 0.000000	 unflanked_rf_freq_5_amplitude_0.01_rep_0_r_N.png	 N	 r	 t	 n.a.	 3.616611e-01
5	 6	 229	 unflanked	 rf	 8	 0.165000	 0.000000	 unflanked_rf_freq_8_amplitude_0.165_rep_5_l_N.png	 N	 l	 l	 n.a.	 2.608012e-01
5	 6	 230	 unflanked	 rf	 4	 0.007500	 0.000000	 unflanked_rf_freq_4_amplitude_0.0075_rep_5_t_N.png	 N	 t	 r	 n.a.	 6.675957e-01
5	 6	 231	 unflanked	 rf	 5	 0.216700	 0.000000	 unflanked_rf_freq_5_amplitude_0.2167_rep_9_t_K.png	 K	 t	 t	 n.a.	 4.582480e-01
5	 6	 232	 unflanked	 rf	 3	 0.113300	 0.000000	 unflanked_rf_freq_3_amplitude_0.1133_rep_0_t_N.png	 N	 t	 l	 n.a.	 8.459300e-01
5	 6	 233	 unflanked	 rf	 2	 0.061700	 0.000000	 unflanked_rf_freq_2_amplitude_0.0617_rep_4_r_K.png	 K	 r	 r	 n.a.	 4.538105e-01
5	 6	 234	 unflanked	 rf	 8	 0.113300	 0.000000	 unflanked_rf_freq_8_amplitude_0.1133_rep_9_r_H.png	 H	 r	 r	 n.a.	 3.624696e-01
5	 6	 235	 unflanked	 rf	 12	 0.165000	 0.000000	 unflanked_rf_freq_12_amplitude_0.165_rep_7_b_K.png	 K	 b	 b	 n.a.	 3.917047e-01
5	 6	 236	 unflanked	 rf	 12	 0.010000	 0.000000	 unflanked_rf_freq_12_amplitude_0.01_rep_6_r_K.png	 K	 r	 r	 n.a.	 3.934356e-01
5	 6	 237	 unflanked	 rf	 8	 0.165000	 0.000000	 unflanked_rf_freq_8_amplitude_0.165_rep_7_b_D.png	 D	 b	 b	 n.a.	 4.253903e-01
5	 6	 238	 unflanked	 rf	 8	 0.165000	 0.000000	 unflanked_rf_freq_8_amplitude_0.165_rep_9_b_D.png	 D	 b	 t	 n.a.	 6.611977e-01
5	 6	 239	 unflanked	 rf	 12	 0.010000	 0.000000	 unflanked_rf_freq_12_amplitude_0.01_rep_5_t_H.png	 H	 t	 r	 n.a.	 5.452103e-01
5	 6	 240	 unflanked	 rf	 3	 0.216700	 0.000000	 unflanked_rf_freq_3_amplitude_0.2167_rep_5_b_D.png	 D	 b	 b	 n.a.	 3.238067e-01
5	 6	 241	 unflanked	 rf	 3	 0.113300	 0.000000	 unflanked_rf_freq_3_amplitude_0.1133_rep_7_b_D.png	 D	 b	 b	 n.a.	 4.123048e-01
5	 6	 242	 unflanked	 rf	 5	 0.216700	 0.000000	 unflanked_rf_freq_5_amplitude_0.2167_rep_1_r_N.png	 N	 r	 r	 n.a.	 3.212160e-01
5	 6	 243	 unflanked	 rf	 3	 0.010000	 0.000000	 unflanked_rf_freq_3_amplitude_0.01_rep_2_r_H.png	 H	 r	 t	 n.a.	 4.834048e-01
5	 6	 244	 unflanked	 rf	 3	 0.113300	 0.000000	 unflanked_rf_freq_3_amplitude_0.1133_rep_9_l_K.png	 K	 l	 l	 n.a.	 6.974947e-01
5	 6	 245	 unflanked	 rf	 2	 0.061700	 0.000000	 unflanked_rf_freq_2_amplitude_0.0617_rep_5_r_N.png	 N	 r	 t	 n.a.	 6.232799e-01
5	 6	 246	 unflanked	 rf	 5	 0.007500	 0.000000	 unflanked_rf_freq_5_amplitude_0.0075_rep_9_t_K.png	 K	 t	 b	 n.a.	 4.895575e-01
5	 6	 247	 unflanked	 rf	 8	 0.113300	 0.000000	 unflanked_rf_freq_8_amplitude_0.1133_rep_5_l_H.png	 H	 l	 l	 n.a.	 3.479515e-01
5	 6	 248	 unflanked	 rf	 8	 0.061700	 0.000000	 unflanked_rf_freq_8_amplitude_0.0617_rep_1_l_H.png	 H	 l	 l	 n.a.	 3.560254e-01
5	 6	 249	 unflanked	 rf	 2	 0.007500	 0.000000	 unflanked_rf_freq_2_amplitude_0.0075_rep_1_t_N.png	 N	 t	 b	 n.a.	 5.672949e-01
5	 6	 250	 unflanked	 rf	 4	 0.165000	 0.000000	 unflanked_rf_freq_4_amplitude_0.165_rep_7_b_D.png	 D	 b	 b	 n.a.	 3.477920e-01
5	 6	 251	 unflanked	 rf	 5	 0.165000	 0.000000	 unflanked_rf_freq_5_amplitude_0.165_rep_6_t_D.png	 D	 t	 t	 n.a.	 4.427720e-01
5	 6	 252	 unflanked	 rf	 4	 0.165000	 0.000000	 unflanked_rf_freq_4_amplitude_0.165_rep_3_b_D.png	 D	 b	 b	 n.a.	 4.578667e-01
5	 6	 253	 unflanked	 rf	 5	 0.007500	 0.000000	 unflanked_rf_freq_5_amplitude_0.0075_rep_0_b_N.png	 N	 b	 t	 n.a.	 4.750450e-01
5	 6	 254	 unflanked	 rf	 3	 0.268300	 0.000000	 unflanked_rf_freq_3_amplitude_0.2683_rep_1_b_H.png	 H	 b	 b	 n.a.	 4.252991e-01
5	 6	 255	 unflanked	 rf	 12	 0.216700	 0.000000	 unflanked_rf_freq_12_amplitude_0.2167_rep_5_l_K.png	 K	 l	 l	 n.a.	 2.889300e-01
5	 6	 256	 unflanked	 rf	 2	 0.061700	 0.000000	 unflanked_rf_freq_2_amplitude_0.0617_rep_9_b_H.png	 H	 b	 r	 n.a.	 7.399346e-01
5	 6	 257	 unflanked	 rf	 8	 0.165000	 0.000000	 unflanked_rf_freq_8_amplitude_0.165_rep_4_r_H.png	 H	 r	 r	 n.a.	 3.619644e-01
5	 6	 258	 unflanked	 rf	 4	 0.061700	 0.000000	 unflanked_rf_freq_4_amplitude_0.0617_rep_2_l_D.png	 D	 l	 b	 n.a.	 7.833350e-01
5	 6	 259	 unflanked	 rf	 4	 0.010000	 0.000000	 unflanked_rf_freq_4_amplitude_0.01_rep_6_b_N.png	 N	 b	 t	 n.a.	 4.639107e-01
5	 6	 260	 unflanked	 rf	 5	 0.113300	 0.000000	 unflanked_rf_freq_5_amplitude_0.1133_rep_4_l_K.png	 K	 l	 l	 n.a.	 2.633592e-01
5	 6	 261	 unflanked	 rf	 5	 0.113300	 0.000000	 unflanked_rf_freq_5_amplitude_0.1133_rep_1_l_K.png	 K	 l	 l	 n.a.	 4.287843e-01
5	 6	 262	 unflanked	 rf	 2	 0.010000	 0.000000	 unflanked_rf_freq_2_amplitude_0.01_rep_1_l_N.png	 N	 l	 r	 n.a.	 4.764675e-01
5	 6	 263	 unflanked	 rf	 5	 0.268300	 0.000000	 unflanked_rf_freq_5_amplitude_0.2683_rep_6_l_D.png	 D	 l	 l	 n.a.	 2.627251e-01
5	 6	 264	 unflanked	 rf	 2	 0.010000	 0.000000	 unflanked_rf_freq_2_amplitude_0.01_rep_8_b_H.png	 H	 b	 r	 n.a.	 4.180651e-01
5	 6	 265	 unflanked	 rf	 8	 0.010000	 0.000000	 unflanked_rf_freq_8_amplitude_0.01_rep_3_l_N.png	 N	 l	 t	 n.a.	 5.720058e-01
5	 6	 266	 unflanked	 rf	 3	 0.061700	 0.000000	 unflanked_rf_freq_3_amplitude_0.0617_rep_4_l_N.png	 N	 l	 l	 n.a.	 4.520113e-01
5	 6	 267	 unflanked	 rf	 12	 0.113300	 0.000000	 unflanked_rf_freq_12_amplitude_0.1133_rep_9_l_K.png	 K	 l	 l	 n.a.	 3.489132e-01
5	 6	 268	 unflanked	 rf	 4	 0.061700	 0.000000	 unflanked_rf_freq_4_amplitude_0.0617_rep_7_r_D.png	 D	 r	 r	 n.a.	 3.813639e-01
5	 6	 269	 unflanked	 rf	 12	 0.007500	 0.000000	 unflanked_rf_freq_12_amplitude_0.0075_rep_9_l_D.png	 D	 l	 r	 n.a.	 7.740779e-01
5	 6	 270	 unflanked	 rf	 2	 0.268300	 0.000000	 unflanked_rf_freq_2_amplitude_0.2683_rep_2_t_H.png	 H	 t	 t	 n.a.	 4.160579e-01
5	 6	 271	 unflanked	 rf	 4	 0.268300	 0.000000	 unflanked_rf_freq_4_amplitude_0.2683_rep_1_l_N.png	 N	 l	 l	 n.a.	 3.125896e-01
5	 6	 272	 unflanked	 rf	 12	 0.268300	 0.000000	 unflanked_rf_freq_12_amplitude_0.2683_rep_9_l_K.png	 K	 l	 l	 n.a.	 2.729596e-01
5	 6	 273	 unflanked	 rf	 3	 0.061700	 0.000000	 unflanked_rf_freq_3_amplitude_0.0617_rep_1_t_K.png	 K	 t	 t	 n.a.	 4.473550e-01
5	 6	 274	 unflanked	 rf	 4	 0.165000	 0.000000	 unflanked_rf_freq_4_amplitude_0.165_rep_1_b_H.png	 H	 b	 b	 n.a.	 3.903087e-01
5	 6	 275	 unflanked	 rf	 12	 0.007500	 0.000000	 unflanked_rf_freq_12_amplitude_0.0075_rep_0_t_K.png	 K	 t	 r	 n.a.	 5.212864e-01
5	 6	 276	 unflanked	 rf	 4	 0.268300	 0.000000	 unflanked_rf_freq_4_amplitude_0.2683_rep_0_r_K.png	 K	 r	 r	 n.a.	 2.945356e-01
5	 6	 277	 unflanked	 rf	 12	 0.268300	 0.000000	 unflanked_rf_freq_12_amplitude_0.2683_rep_1_b_N.png	 N	 b	 b	 n.a.	 4.057280e-01
5	 6	 278	 unflanked	 rf	 3	 0.216700	 0.000000	 unflanked_rf_freq_3_amplitude_0.2167_rep_4_t_N.png	 N	 t	 t	 n.a.	 4.145431e-01
5	 6	 279	 unflanked	 rf	 12	 0.268300	 0.000000	 unflanked_rf_freq_12_amplitude_0.2683_rep_0_b_K.png	 K	 b	 b	 n.a.	 3.329496e-01
5	 6	 280	 unflanked	 rf	 5	 0.061700	 0.000000	 unflanked_rf_freq_5_amplitude_0.0617_rep_7_l_D.png	 D	 l	 b	 n.a.	 4.345896e-01
5	 6	 281	 unflanked	 rf	 12	 0.216700	 0.000000	 unflanked_rf_freq_12_amplitude_0.2167_rep_1_l_D.png	 D	 l	 l	 n.a.	 2.293596e-01
5	 6	 282	 unflanked	 rf	 4	 0.216700	 0.000000	 unflanked_rf_freq_4_amplitude_0.2167_rep_0_b_N.png	 N	 b	 b	 n.a.	 3.311714e-01
5	 6	 283	 unflanked	 rf	 12	 0.061700	 0.000000	 unflanked_rf_freq_12_amplitude_0.0617_rep_4_t_K.png	 K	 t	 t	 n.a.	 3.597331e-01
5	 6	 284	 unflanked	 rf	 3	 0.010000	 0.000000	 unflanked_rf_freq_3_amplitude_0.01_rep_1_r_N.png	 N	 r	 b	 n.a.	 7.783152e-01
5	 6	 285	 unflanked	 rf	 3	 0.268300	 0.000000	 unflanked_rf_freq_3_amplitude_0.2683_rep_3_t_H.png	 H	 t	 t	 n.a.	 3.800658e-01
5	 6	 286	 unflanked	 rf	 4	 0.010000	 0.000000	 unflanked_rf_freq_4_amplitude_0.01_rep_9_t_K.png	 K	 t	 b	 n.a.	 6.640949e-01
5	 6	 287	 unflanked	 rf	 5	 0.268300	 0.000000	 unflanked_rf_freq_5_amplitude_0.2683_rep_3_r_K.png	 K	 r	 r	 n.a.	 2.697750e-01
5	 6	 288	 unflanked	 rf	 2	 0.061700	 0.000000	 unflanked_rf_freq_2_amplitude_0.0617_rep_1_r_N.png	 N	 r	 r	 n.a.	 7.200114e-01
5	 6	 289	 unflanked	 rf	 2	 0.010000	 0.000000	 unflanked_rf_freq_2_amplitude_0.01_rep_4_t_D.png	 D	 t	 t	 n.a.	 5.073589e-01
5	 6	 290	 unflanked	 rf	 8	 0.216700	 0.000000	 unflanked_rf_freq_8_amplitude_0.2167_rep_7_l_N.png	 N	 l	 l	 n.a.	 2.568135e-01
5	 6	 291	 unflanked	 rf	 4	 0.010000	 0.000000	 unflanked_rf_freq_4_amplitude_0.01_rep_1_r_D.png	 D	 r	 l	 n.a.	 5.859992e-01
5	 6	 292	 unflanked	 rf	 5	 0.165000	 0.000000	 unflanked_rf_freq_5_amplitude_0.165_rep_5_r_N.png	 N	 r	 r	 n.a.	 3.318382e-01
5	 6	 293	 unflanked	 rf	 4	 0.007500	 0.000000	 unflanked_rf_freq_4_amplitude_0.0075_rep_0_b_H.png	 H	 b	 r	 n.a.	 3.384075e-01
5	 6	 294	 unflanked	 rf	 5	 0.165000	 0.000000	 unflanked_rf_freq_5_amplitude_0.165_rep_1_b_N.png	 N	 b	 b	 n.a.	 4.099874e-01
5	 6	 295	 unflanked	 rf	 8	 0.061700	 0.000000	 unflanked_rf_freq_8_amplitude_0.0617_rep_8_b_N.png	 N	 b	 r	 n.a.	 4.244395e-01
5	 6	 296	 unflanked	 rf	 3	 0.007500	 0.000000	 unflanked_rf_freq_3_amplitude_0.0075_rep_9_r_N.png	 N	 r	 b	 n.a.	 5.744089e-01
5	 6	 297	 unflanked	 rf	 2	 0.061700	 0.000000	 unflanked_rf_freq_2_amplitude_0.0617_rep_6_l_D.png	 D	 l	 b	 n.a.	 6.251889e-01
5	 6	 298	 unflanked	 rf	 4	 0.010000	 0.000000	 unflanked_rf_freq_4_amplitude_0.01_rep_7_r_K.png	 K	 r	 t	 n.a.	 7.081835e-01
5	 6	 299	 unflanked	 rf	 4	 0.007500	 0.000000	 unflanked_rf_freq_4_amplitude_0.0075_rep_2_r_N.png	 N	 r	 r	 n.a.	 1.161860e+00
5	 6	 300	 unflanked	 rf	 3	 0.216700	 0.000000	 unflanked_rf_freq_3_amplitude_0.2167_rep_3_r_K.png	 K	 r	 r	 n.a.	 2.600488e-01
5	 6	 301	 unflanked	 rf	 4	 0.268300	 0.000000	 unflanked_rf_freq_4_amplitude_0.2683_rep_7_l_D.png	 D	 l	 l	 n.a.	 3.081298e-01
5	 6	 302	 unflanked	 rf	 12	 0.010000	 0.000000	 unflanked_rf_freq_12_amplitude_0.01_rep_1_r_D.png	 D	 r	 l	 n.a.	 6.283552e-01
5	 6	 303	 unflanked	 rf	 8	 0.113300	 0.000000	 unflanked_rf_freq_8_amplitude_0.1133_rep_4_b_N.png	 N	 b	 b	 n.a.	 9.196815e-01
5	 6	 304	 unflanked	 rf	 3	 0.010000	 0.000000	 unflanked_rf_freq_3_amplitude_0.01_rep_0_t_D.png	 D	 t	 t	 n.a.	 5.381352e-01
5	 6	 305	 unflanked	 rf	 2	 0.165000	 0.000000	 unflanked_rf_freq_2_amplitude_0.165_rep_9_l_K.png	 K	 l	 l	 n.a.	 3.250357e-01
5	 6	 306	 unflanked	 rf	 5	 0.061700	 0.000000	 unflanked_rf_freq_5_amplitude_0.0617_rep_2_t_D.png	 D	 t	 t	 n.a.	 5.258347e-01
5	 6	 307	 unflanked	 rf	 5	 0.268300	 0.000000	 unflanked_rf_freq_5_amplitude_0.2683_rep_0_r_N.png	 N	 r	 r	 n.a.	 4.700270e-01
5	 6	 308	 unflanked	 rf	 8	 0.216700	 0.000000	 unflanked_rf_freq_8_amplitude_0.2167_rep_0_t_K.png	 K	 t	 t	 n.a.	 3.828681e-01
5	 6	 309	 unflanked	 rf	 12	 0.216700	 0.000000	 unflanked_rf_freq_12_amplitude_0.2167_rep_4_t_H.png	 H	 t	 t	 n.a.	 3.109089e-01
5	 6	 310	 unflanked	 rf	 3	 0.113300	 0.000000	 unflanked_rf_freq_3_amplitude_0.1133_rep_1_t_N.png	 N	 t	 t	 n.a.	 3.702245e-01
5	 6	 311	 unflanked	 rf	 4	 0.010000	 0.000000	 unflanked_rf_freq_4_amplitude_0.01_rep_8_t_N.png	 N	 t	 t	 n.a.	 4.569598e-01
5	 6	 312	 unflanked	 rf	 4	 0.268300	 0.000000	 unflanked_rf_freq_4_amplitude_0.2683_rep_8_t_H.png	 H	 t	 t	 n.a.	 3.051904e-01
5	 6	 313	 unflanked	 rf	 5	 0.007500	 0.000000	 unflanked_rf_freq_5_amplitude_0.0075_rep_8_r_K.png	 K	 r	 t	 n.a.	 7.078780e-01
5	 6	 314	 unflanked	 rf	 4	 0.061700	 0.000000	 unflanked_rf_freq_4_amplitude_0.0617_rep_0_r_D.png	 D	 r	 b	 n.a.	 4.888050e-01
5	 6	 315	 unflanked	 rf	 12	 0.113300	 0.000000	 unflanked_rf_freq_12_amplitude_0.1133_rep_1_b_D.png	 D	 b	 t	 n.a.	 6.198053e-01
5	 6	 316	 unflanked	 rf	 3	 0.165000	 0.000000	 unflanked_rf_freq_3_amplitude_0.165_rep_7_r_D.png	 D	 r	 r	 n.a.	 3.072468e-01
5	 6	 317	 unflanked	 rf	 8	 0.007500	 0.000000	 unflanked_rf_freq_8_amplitude_0.0075_rep_8_t_N.png	 N	 t	 l	 n.a.	 7.048534e-01
5	 6	 318	 unflanked	 rf	 12	 0.010000	 0.000000	 unflanked_rf_freq_12_amplitude_0.01_rep_3_l_K.png	 K	 l	 r	 n.a.	 4.743667e-01
5	 6	 319	 unflanked	 rf	 4	 0.216700	 0.000000	 unflanked_rf_freq_4_amplitude_0.2167_rep_7_t_N.png	 N	 t	 t	 n.a.	 3.734011e-01
5	 6	 320	 unflanked	 rf	 3	 0.268300	 0.000000	 unflanked_rf_freq_3_amplitude_0.2683_rep_2_r_N.png	 N	 r	 r	 n.a.	 3.712144e-01
5	 6	 321	 unflanked	 rf	 8	 0.010000	 0.000000	 unflanked_rf_freq_8_amplitude_0.01_rep_7_t_D.png	 D	 t	 t	 n.a.	 5.274185e-01
5	 6	 322	 unflanked	 rf	 5	 0.010000	 0.000000	 unflanked_rf_freq_5_amplitude_0.01_rep_6_t_D.png	 D	 t	 r	 n.a.	 5.440618e-01
5	 6	 323	 unflanked	 rf	 8	 0.113300	 0.000000	 unflanked_rf_freq_8_amplitude_0.1133_rep_6_l_N.png	 N	 l	 l	 n.a.	 3.351591e-01
5	 6	 324	 unflanked	 rf	 8	 0.007500	 0.000000	 unflanked_rf_freq_8_amplitude_0.0075_rep_0_r_D.png	 D	 r	 r	 n.a.	 3.697307e-01
5	 6	 325	 unflanked	 rf	 3	 0.216700	 0.000000	 unflanked_rf_freq_3_amplitude_0.2167_rep_9_b_N.png	 N	 b	 b	 n.a.	 3.945434e-01
5	 6	 326	 unflanked	 rf	 12	 0.165000	 0.000000	 unflanked_rf_freq_12_amplitude_0.165_rep_8_t_N.png	 N	 t	 t	 n.a.	 4.158196e-01
5	 6	 327	 unflanked	 rf	 3	 0.268300	 0.000000	 unflanked_rf_freq_3_amplitude_0.2683_rep_0_r_D.png	 D	 r	 r	 n.a.	 3.912838e-01
5	 6	 328	 unflanked	 rf	 3	 0.007500	 0.000000	 unflanked_rf_freq_3_amplitude_0.0075_rep_7_t_H.png	 H	 t	 l	 n.a.	 5.483979e-01
5	 6	 329	 unflanked	 rf	 2	 0.010000	 0.000000	 unflanked_rf_freq_2_amplitude_0.01_rep_2_r_D.png	 D	 r	 t	 n.a.	 4.527073e-01
5	 6	 330	 unflanked	 rf	 8	 0.061700	 0.000000	 unflanked_rf_freq_8_amplitude_0.0617_rep_0_b_H.png	 H	 b	 b	 n.a.	 3.901012e-01
5	 6	 331	 unflanked	 rf	 2	 0.007500	 0.000000	 unflanked_rf_freq_2_amplitude_0.0075_rep_3_r_N.png	 N	 r	 r	 n.a.	 3.936502e-01
5	 6	 332	 unflanked	 rf	 3	 0.010000	 0.000000	 unflanked_rf_freq_3_amplitude_0.01_rep_4_b_K.png	 K	 b	 t	 n.a.	 5.054220e-01
5	 6	 333	 unflanked	 rf	 12	 0.113300	 0.000000	 unflanked_rf_freq_12_amplitude_0.1133_rep_3_r_H.png	 H	 r	 r	 n.a.	 2.627471e-01
5	 6	 334	 unflanked	 rf	 8	 0.007500	 0.000000	 unflanked_rf_freq_8_amplitude_0.0075_rep_3_r_D.png	 D	 r	 r	 n.a.	 3.780192e-01
5	 6	 335	 unflanked	 rf	 12	 0.007500	 0.000000	 unflanked_rf_freq_12_amplitude_0.0075_rep_3_l_N.png	 N	 l	 t	 n.a.	 6.252283e-01
5	 6	 336	 unflanked	 rf	 2	 0.216700	 0.000000	 unflanked_rf_freq_2_amplitude_0.2167_rep_1_l_D.png	 D	 l	 l	 n.a.	 3.598472e-01
5	 6	 337	 unflanked	 rf	 5	 0.010000	 0.000000	 unflanked_rf_freq_5_amplitude_0.01_rep_3_t_K.png	 K	 t	 t	 n.a.	 9.150388e-01
5	 6	 338	 unflanked	 rf	 5	 0.216700	 0.000000	 unflanked_rf_freq_5_amplitude_0.2167_rep_7_r_N.png	 N	 r	 r	 n.a.	 2.973304e-01
5	 6	 339	 unflanked	 rf	 4	 0.165000	 0.000000	 unflanked_rf_freq_4_amplitude_0.165_rep_4_l_N.png	 N	 l	 l	 n.a.	 2.980103e-01
5	 6	 340	 unflanked	 rf	 8	 0.216700	 0.000000	 unflanked_rf_freq_8_amplitude_0.2167_rep_2_l_K.png	 K	 l	 l	 n.a.	 3.284992e-01
5	 6	 341	 unflanked	 rf	 8	 0.007500	 0.000000	 unflanked_rf_freq_8_amplitude_0.0075_rep_6_t_H.png	 H	 t	 b	 n.a.	 4.415470e-01
5	 6	 342	 unflanked	 rf	 12	 0.268300	 0.000000	 unflanked_rf_freq_12_amplitude_0.2683_rep_3_l_K.png	 K	 l	 l	 n.a.	 2.398312e-01
5	 6	 343	 unflanked	 rf	 5	 0.216700	 0.000000	 unflanked_rf_freq_5_amplitude_0.2167_rep_4_t_D.png	 D	 t	 t	 n.a.	 3.799091e-01
5	 6	 344	 unflanked	 rf	 8	 0.010000	 0.000000	 unflanked_rf_freq_8_amplitude_0.01_rep_0_t_D.png	 D	 t	 r	 n.a.	 3.431563e-01
5	 6	 345	 unflanked	 rf	 5	 0.007500	 0.000000	 unflanked_rf_freq_5_amplitude_0.0075_rep_1_l_K.png	 K	 l	 l	 n.a.	 2.540022e-01
5	 6	 346	 unflanked	 rf	 12	 0.007500	 0.000000	 unflanked_rf_freq_12_amplitude_0.0075_rep_5_b_K.png	 K	 b	 b	 n.a.	 4.464536e-01
5	 6	 347	 unflanked	 rf	 3	 0.165000	 0.000000	 unflanked_rf_freq_3_amplitude_0.165_rep_6_b_N.png	 N	 b	 b	 n.a.	 3.826983e-01
5	 6	 348	 unflanked	 rf	 5	 0.165000	 0.000000	 unflanked_rf_freq_5_amplitude_0.165_rep_0_t_D.png	 D	 t	 t	 n.a.	 5.084136e-01
5	 6	 349	 unflanked	 rf	 5	 0.113300	 0.000000	 unflanked_rf_freq_5_amplitude_0.1133_rep_6_l_H.png	 H	 l	 l	 n.a.	 3.190301e-01
5	 6	 350	 unflanked	 rf	 5	 0.010000	 0.000000	 unflanked_rf_freq_5_amplitude_0.01_rep_1_l_D.png	 D	 l	 r	 n.a.	 6.372885e-01
5	 6	 351	 unflanked	 rf	 2	 0.113300	 0.000000	 unflanked_rf_freq_2_amplitude_0.1133_rep_6_l_N.png	 N	 l	 b	 n.a.	 4.073732e-01
5	 6	 352	 unflanked	 rf	 4	 0.216700	 0.000000	 unflanked_rf_freq_4_amplitude_0.2167_rep_2_b_D.png	 D	 b	 b	 n.a.	 2.860622e-01
5	 6	 353	 unflanked	 rf	 4	 0.010000	 0.000000	 unflanked_rf_freq_4_amplitude_0.01_rep_2_l_K.png	 K	 l	 l	 n.a.	 5.918610e-01
5	 6	 354	 unflanked	 rf	 5	 0.113300	 0.000000	 unflanked_rf_freq_5_amplitude_0.1133_rep_0_t_H.png	 H	 t	 b	 n.a.	 2.830556e-01
5	 6	 355	 unflanked	 rf	 2	 0.061700	 0.000000	 unflanked_rf_freq_2_amplitude_0.0617_rep_3_b_N.png	 N	 b	 t	 n.a.	 6.800461e-01
5	 6	 356	 unflanked	 rf	 12	 0.165000	 0.000000	 unflanked_rf_freq_12_amplitude_0.165_rep_1_l_H.png	 H	 l	 l	 n.a.	 2.097155e-01
5	 6	 357	 unflanked	 rf	 8	 0.268300	 0.000000	 unflanked_rf_freq_8_amplitude_0.2683_rep_9_t_K.png	 K	 t	 t	 n.a.	 3.586135e-01
5	 6	 358	 unflanked	 rf	 4	 0.216700	 0.000000	 unflanked_rf_freq_4_amplitude_0.2167_rep_4_b_D.png	 D	 b	 b	 n.a.	 4.445061e-01
5	 6	 359	 unflanked	 rf	 2	 0.007500	 0.000000	 unflanked_rf_freq_2_amplitude_0.0075_rep_4_b_H.png	 H	 b	 r	 n.a.	 6.322451e-01
5	 6	 360	 unflanked	 rf	 5	 0.061700	 0.000000	 unflanked_rf_freq_5_amplitude_0.0617_rep_5_t_D.png	 D	 t	 t	 n.a.	 4.509732e-01
5	 6	 361	 unflanked	 rf	 3	 0.061700	 0.000000	 unflanked_rf_freq_3_amplitude_0.0617_rep_6_t_D.png	 D	 t	 b	 n.a.	 8.972800e-01
5	 6	 362	 unflanked	 rf	 8	 0.061700	 0.000000	 unflanked_rf_freq_8_amplitude_0.0617_rep_6_b_D.png	 D	 b	 t	 n.a.	 3.891146e-01
5	 6	 363	 unflanked	 rf	 3	 0.010000	 0.000000	 unflanked_rf_freq_3_amplitude_0.01_rep_8_l_D.png	 D	 l	 r	 n.a.	 3.519263e-01
5	 6	 364	 unflanked	 rf	 12	 0.165000	 0.000000	 unflanked_rf_freq_12_amplitude_0.165_rep_2_r_H.png	 H	 r	 r	 n.a.	 2.324606e-01
5	 6	 365	 unflanked	 rf	 4	 0.268300	 0.000000	 unflanked_rf_freq_4_amplitude_0.2683_rep_5_t_N.png	 N	 t	 t	 n.a.	 4.058809e-01
5	 6	 366	 unflanked	 rf	 5	 0.010000	 0.000000	 unflanked_rf_freq_5_amplitude_0.01_rep_2_b_K.png	 K	 b	 b	 n.a.	 4.527152e-01
5	 6	 367	 unflanked	 rf	 2	 0.113300	 0.000000	 unflanked_rf_freq_2_amplitude_0.1133_rep_0_t_N.png	 N	 t	 r	 n.a.	 4.131553e-01
5	 6	 368	 unflanked	 rf	 5	 0.268300	 0.000000	 unflanked_rf_freq_5_amplitude_0.2683_rep_1_l_N.png	 N	 l	 l	 n.a.	 2.500330e-01
5	 6	 369	 unflanked	 rf	 12	 0.007500	 0.000000	 unflanked_rf_freq_12_amplitude_0.0075_rep_2_t_D.png	 D	 t	 t	 n.a.	 5.459389e-01
5	 6	 370	 unflanked	 rf	 8	 0.268300	 0.000000	 unflanked_rf_freq_8_amplitude_0.2683_rep_3_b_N.png	 N	 b	 b	 n.a.	 4.412293e-01
5	 6	 371	 unflanked	 rf	 12	 0.216700	 0.000000	 unflanked_rf_freq_12_amplitude_0.2167_rep_7_l_K.png	 K	 l	 l	 n.a.	 3.109835e-01
5	 6	 372	 unflanked	 rf	 3	 0.010000	 0.000000	 unflanked_rf_freq_3_amplitude_0.01_rep_7_b_K.png	 K	 b	 b	 n.a.	 6.112562e-01
5	 6	 373	 unflanked	 rf	 12	 0.007500	 0.000000	 unflanked_rf_freq_12_amplitude_0.0075_rep_6_l_N.png	 N	 l	 r	 n.a.	 4.898240e-01
5	 6	 374	 unflanked	 rf	 2	 0.268300	 0.000000	 unflanked_rf_freq_2_amplitude_0.2683_rep_3_r_H.png	 H	 r	 r	 n.a.	 2.805677e-01
5	 6	 375	 unflanked	 rf	 8	 0.165000	 0.000000	 unflanked_rf_freq_8_amplitude_0.165_rep_6_b_H.png	 H	 b	 b	 n.a.	 4.833447e-01
5	 6	 376	 unflanked	 rf	 12	 0.010000	 0.000000	 unflanked_rf_freq_12_amplitude_0.01_rep_0_b_K.png	 K	 b	 t	 n.a.	 6.722632e-01
5	 6	 377	 unflanked	 rf	 3	 0.061700	 0.000000	 unflanked_rf_freq_3_amplitude_0.0617_rep_8_t_D.png	 D	 t	 l	 n.a.	 7.539088e-01
5	 6	 378	 unflanked	 rf	 4	 0.007500	 0.000000	 unflanked_rf_freq_4_amplitude_0.0075_rep_8_b_N.png	 N	 b	 t	 n.a.	 4.655580e-01
5	 6	 379	 unflanked	 rf	 5	 0.216700	 0.000000	 unflanked_rf_freq_5_amplitude_0.2167_rep_0_r_H.png	 H	 r	 r	 n.a.	 2.187671e-01
5	 6	 380	 unflanked	 rf	 3	 0.061700	 0.000000	 unflanked_rf_freq_3_amplitude_0.0617_rep_3_b_N.png	 N	 b	 t	 n.a.	 7.302660e-01
5	 6	 381	 unflanked	 rf	 8	 0.010000	 0.000000	 unflanked_rf_freq_8_amplitude_0.01_rep_4_r_H.png	 H	 r	 l	 n.a.	 5.189144e-01
5	 6	 382	 unflanked	 rf	 3	 0.061700	 0.000000	 unflanked_rf_freq_3_amplitude_0.0617_rep_2_r_N.png	 N	 r	 t	 n.a.	 3.701202e-01
5	 6	 383	 unflanked	 rf	 4	 0.268300	 0.000000	 unflanked_rf_freq_4_amplitude_0.2683_rep_6_b_H.png	 H	 b	 b	 n.a.	 3.894518e-01
5	 6	 384	 unflanked	 rf	 5	 0.061700	 0.000000	 unflanked_rf_freq_5_amplitude_0.0617_rep_6_r_D.png	 D	 r	 r	 n.a.	 3.764767e-01
5	 6	 385	 unflanked	 rf	 12	 0.061700	 0.000000	 unflanked_rf_freq_12_amplitude_0.0617_rep_3_b_H.png	 H	 b	 l	 n.a.	 3.562140e-01
5	 6	 386	 unflanked	 rf	 2	 0.007500	 0.000000	 unflanked_rf_freq_2_amplitude_0.0075_rep_5_b_K.png	 K	 b	 t	 n.a.	 4.089217e-01
5	 6	 387	 unflanked	 rf	 12	 0.216700	 0.000000	 unflanked_rf_freq_12_amplitude_0.2167_rep_2_t_N.png	 N	 t	 t	 n.a.	 4.324168e-01
5	 6	 388	 unflanked	 rf	 4	 0.113300	 0.000000	 unflanked_rf_freq_4_amplitude_0.1133_rep_2_b_H.png	 H	 b	 b	 n.a.	 4.469859e-01
5	 6	 389	 unflanked	 rf	 8	 0.113300	 0.000000	 unflanked_rf_freq_8_amplitude_0.1133_rep_0_r_H.png	 H	 r	 r	 n.a.	 2.802957e-01
5	 6	 390	 unflanked	 rf	 3	 0.165000	 0.000000	 unflanked_rf_freq_3_amplitude_0.165_rep_5_b_D.png	 D	 b	 b	 n.a.	 4.479391e-01
5	 6	 391	 unflanked	 rf	 2	 0.010000	 0.000000	 unflanked_rf_freq_2_amplitude_0.01_rep_7_l_H.png	 H	 l	 t	 n.a.	 4.989100e-01
5	 6	 392	 unflanked	 rf	 2	 0.268300	 0.000000	 unflanked_rf_freq_2_amplitude_0.2683_rep_4_t_D.png	 D	 t	 t	 n.a.	 4.512281e-01
5	 6	 393	 unflanked	 rf	 2	 0.061700	 0.000000	 unflanked_rf_freq_2_amplitude_0.0617_rep_0_r_H.png	 H	 r	 r	 n.a.	 4.030678e-01
5	 6	 394	 unflanked	 rf	 4	 0.007500	 0.000000	 unflanked_rf_freq_4_amplitude_0.0075_rep_7_t_N.png	 N	 t	 r	 n.a.	 8.675550e-01
5	 6	 395	 unflanked	 rf	 8	 0.010000	 0.000000	 unflanked_rf_freq_8_amplitude_0.01_rep_9_l_N.png	 N	 l	 l	 n.a.	 4.555219e-01
5	 6	 396	 unflanked	 rf	 5	 0.113300	 0.000000	 unflanked_rf_freq_5_amplitude_0.1133_rep_2_b_N.png	 N	 b	 b	 n.a.	 6.126873e-01
5	 6	 397	 unflanked	 rf	 12	 0.010000	 0.000000	 unflanked_rf_freq_12_amplitude_0.01_rep_4_t_D.png	 D	 t	 t	 n.a.	 4.313863e-01
5	 6	 398	 unflanked	 rf	 3	 0.007500	 0.000000	 unflanked_rf_freq_3_amplitude_0.0075_rep_4_l_K.png	 K	 l	 t	 n.a.	 8.695236e-01
5	 6	 399	 unflanked	 rf	 3	 0.165000	 0.000000	 unflanked_rf_freq_3_amplitude_0.165_rep_4_r_N.png	 N	 r	 r	 n.a.	 3.338687e-01
5	 6	 400	 unflanked	 rf	 4	 0.216700	 0.000000	 unflanked_rf_freq_4_amplitude_0.2167_rep_9_l_N.png	 N	 l	 l	 n.a.	 3.051095e-01
5	 6	 401	 unflanked	 rf	 3	 0.007500	 0.000000	 unflanked_rf_freq_3_amplitude_0.0075_rep_6_r_D.png	 D	 r	 r	 n.a.	 5.196189e-01
5	 6	 402	 unflanked	 rf	 4	 0.061700	 0.000000	 unflanked_rf_freq_4_amplitude_0.0617_rep_8_r_N.png	 N	 r	 r	 n.a.	 6.329434e-01
5	 6	 403	 unflanked	 rf	 8	 0.061700	 0.000000	 unflanked_rf_freq_8_amplitude_0.0617_rep_7_l_D.png	 D	 l	 l	 n.a.	 3.666244e-01
5	 6	 404	 unflanked	 rf	 8	 0.113300	 0.000000	 unflanked_rf_freq_8_amplitude_0.1133_rep_8_t_H.png	 H	 t	 t	 n.a.	 3.808525e-01
5	 6	 405	 unflanked	 rf	 12	 0.165000	 0.000000	 unflanked_rf_freq_12_amplitude_0.165_rep_3_r_H.png	 H	 r	 r	 n.a.	 3.010800e-01
5	 6	 406	 unflanked	 rf	 8	 0.165000	 0.000000	 unflanked_rf_freq_8_amplitude_0.165_rep_0_r_N.png	 N	 r	 r	 n.a.	 2.638245e-01
5	 6	 407	 unflanked	 rf	 8	 0.268300	 0.000000	 unflanked_rf_freq_8_amplitude_0.2683_rep_7_r_H.png	 H	 r	 r	 n.a.	 2.665788e-01
5	 6	 408	 unflanked	 rf	 4	 0.216700	 0.000000	 unflanked_rf_freq_4_amplitude_0.2167_rep_3_l_H.png	 H	 l	 l	 n.a.	 2.816956e-01
5	 6	 409	 unflanked	 rf	 4	 0.010000	 0.000000	 unflanked_rf_freq_4_amplitude_0.01_rep_3_t_D.png	 D	 t	 r	 n.a.	 2.859360e-01
5	 6	 410	 unflanked	 rf	 5	 0.061700	 0.000000	 unflanked_rf_freq_5_amplitude_0.0617_rep_1_b_H.png	 H	 b	 l	 n.a.	 2.938582e-01
5	 6	 411	 unflanked	 rf	 5	 0.268300	 0.000000	 unflanked_rf_freq_5_amplitude_0.2683_rep_4_l_D.png	 D	 l	 l	 n.a.	 2.783155e-01
5	 6	 412	 unflanked	 rf	 4	 0.061700	 0.000000	 unflanked_rf_freq_4_amplitude_0.0617_rep_5_l_N.png	 N	 l	 l	 n.a.	 5.442608e-01
5	 6	 413	 unflanked	 rf	 12	 0.268300	 0.000000	 unflanked_rf_freq_12_amplitude_0.2683_rep_5_l_D.png	 D	 l	 l	 n.a.	 3.257849e-01
5	 6	 414	 unflanked	 rf	 2	 0.007500	 0.000000	 unflanked_rf_freq_2_amplitude_0.0075_rep_6_r_K.png	 K	 r	 r	 n.a.	 7.069319e-01
5	 6	 415	 unflanked	 rf	 5	 0.007500	 0.000000	 unflanked_rf_freq_5_amplitude_0.0075_rep_3_t_H.png	 H	 t	 b	 n.a.	 4.399193e-01
5	 6	 416	 unflanked	 rf	 8	 0.007500	 0.000000	 unflanked_rf_freq_8_amplitude_0.0075_rep_5_b_N.png	 N	 b	 t	 n.a.	 4.164042e-01
5	 6	 417	 unflanked	 rf	 8	 0.061700	 0.000000	 unflanked_rf_freq_8_amplitude_0.0617_rep_5_t_K.png	 K	 t	 t	 n.a.	 4.880205e-01
5	 6	 418	 unflanked	 rf	 8	 0.007500	 0.000000	 unflanked_rf_freq_8_amplitude_0.0075_rep_1_t_K.png	 K	 t	 l	 n.a.	 4.551895e-01
5	 6	 419	 unflanked	 rf	 8	 0.113300	 0.000000	 unflanked_rf_freq_8_amplitude_0.1133_rep_7_r_K.png	 K	 r	 r	 n.a.	 2.637215e-01
5	 6	 420	 unflanked	 rf	 12	 0.268300	 0.000000	 unflanked_rf_freq_12_amplitude_0.2683_rep_4_r_D.png	 D	 r	 r	 n.a.	 3.219609e-01
