subject	 session	 trial	 flanked	 distortion	 freq	 amplitude	 spacing	 im_name	 targ_letter	 targ_pos	 response	 eyemovement	 RT
7	 4	 1	 flanked	 rf	 4	 0.061700	 2.000000	 flanked_rf_freq_4_amplitude_0.0617_rep_0_r_H_2.0.png	 H	 r	 t	 n.a.	 4.509547e-01
7	 4	 2	 flanked	 rf	 3	 0.010000	 2.000000	 flanked_rf_freq_3_amplitude_0.01_rep_9_b_K_2.0.png	 K	 b	 l	 n.a.	 4.437954e-01
7	 4	 3	 flanked	 rf	 2	 0.061700	 2.000000	 flanked_rf_freq_2_amplitude_0.0617_rep_6_t_H_2.0.png	 H	 t	 b	 n.a.	 5.238379e-01
7	 4	 4	 flanked	 rf	 5	 0.113300	 2.000000	 flanked_rf_freq_5_amplitude_0.1133_rep_5_b_D_2.0.png	 D	 b	 b	 n.a.	 5.739519e-01
7	 4	 5	 flanked	 rf	 12	 0.165000	 2.000000	 flanked_rf_freq_12_amplitude_0.165_rep_9_b_H_2.0.png	 H	 b	 b	 n.a.	 3.742866e-01
7	 4	 6	 flanked	 rf	 4	 0.216700	 2.000000	 flanked_rf_freq_4_amplitude_0.2167_rep_9_l_H_2.0.png	 H	 l	 l	 n.a.	 4.254382e-01
7	 4	 7	 flanked	 rf	 12	 0.010000	 2.000000	 flanked_rf_freq_12_amplitude_0.01_rep_0_t_D_2.0.png	 D	 t	 r	 n.a.	 4.397617e-01
7	 4	 8	 flanked	 rf	 5	 0.007500	 2.000000	 flanked_rf_freq_5_amplitude_0.0075_rep_0_t_D_2.0.png	 D	 t	 l	 n.a.	 3.776814e-01
7	 4	 9	 flanked	 rf	 2	 0.113300	 2.000000	 flanked_rf_freq_2_amplitude_0.1133_rep_6_b_N_2.0.png	 N	 b	 r	 n.a.	 5.752081e-01
7	 4	 10	 flanked	 rf	 4	 0.113300	 2.000000	 flanked_rf_freq_4_amplitude_0.1133_rep_2_t_D_2.0.png	 D	 t	 b	 n.a.	 4.463279e-01
7	 4	 11	 flanked	 rf	 3	 0.007500	 2.000000	 flanked_rf_freq_3_amplitude_0.0075_rep_2_r_D_2.0.png	 D	 r	 b	 n.a.	 4.187503e-01
7	 4	 12	 flanked	 rf	 12	 0.216700	 2.000000	 flanked_rf_freq_12_amplitude_0.2167_rep_7_r_H_2.0.png	 H	 r	 r	 n.a.	 2.864329e-01
7	 4	 13	 flanked	 rf	 5	 0.216700	 2.000000	 flanked_rf_freq_5_amplitude_0.2167_rep_7_t_D_2.0.png	 D	 t	 t	 n.a.	 4.951709e-01
7	 4	 14	 flanked	 rf	 4	 0.113300	 2.000000	 flanked_rf_freq_4_amplitude_0.1133_rep_6_l_D_2.0.png	 D	 l	 l	 n.a.	 5.935890e-01
7	 4	 15	 flanked	 rf	 3	 0.165000	 2.000000	 flanked_rf_freq_3_amplitude_0.165_rep_1_l_N_2.0.png	 N	 l	 r	 n.a.	 4.148379e-01
7	 4	 16	 flanked	 rf	 3	 0.010000	 2.000000	 flanked_rf_freq_3_amplitude_0.01_rep_0_t_N_2.0.png	 N	 t	 r	 n.a.	 3.348973e-01
7	 4	 17	 flanked	 rf	 2	 0.010000	 2.000000	 flanked_rf_freq_2_amplitude_0.01_rep_6_b_D_2.0.png	 D	 b	 b	 n.a.	 6.660804e-01
7	 4	 18	 flanked	 rf	 12	 0.165000	 2.000000	 flanked_rf_freq_12_amplitude_0.165_rep_0_l_H_2.0.png	 H	 l	 l	 n.a.	 4.353234e-01
7	 4	 19	 flanked	 rf	 8	 0.010000	 2.000000	 flanked_rf_freq_8_amplitude_0.01_rep_3_t_K_2.0.png	 K	 t	 t	 n.a.	 5.238943e-01
7	 4	 20	 flanked	 rf	 5	 0.010000	 2.000000	 flanked_rf_freq_5_amplitude_0.01_rep_1_r_K_2.0.png	 K	 r	 r	 n.a.	 4.433543e-01
7	 4	 21	 flanked	 rf	 12	 0.010000	 2.000000	 flanked_rf_freq_12_amplitude_0.01_rep_9_l_K_2.0.png	 K	 l	 b	 n.a.	 4.673019e-01
7	 4	 22	 flanked	 rf	 4	 0.165000	 2.000000	 flanked_rf_freq_4_amplitude_0.165_rep_9_b_D_2.0.png	 D	 b	 l	 n.a.	 4.606067e-01
7	 4	 23	 flanked	 rf	 5	 0.113300	 2.000000	 flanked_rf_freq_5_amplitude_0.1133_rep_1_b_N_2.0.png	 N	 b	 b	 n.a.	 5.285356e-01
7	 4	 24	 flanked	 rf	 4	 0.061700	 2.000000	 flanked_rf_freq_4_amplitude_0.0617_rep_9_t_N_2.0.png	 N	 t	 l	 n.a.	 5.981658e-01
7	 4	 25	 flanked	 rf	 8	 0.268300	 2.000000	 flanked_rf_freq_8_amplitude_0.2683_rep_9_t_H_2.0.png	 H	 t	 t	 n.a.	 3.636586e-01
7	 4	 26	 flanked	 rf	 2	 0.010000	 2.000000	 flanked_rf_freq_2_amplitude_0.01_rep_8_t_H_2.0.png	 H	 t	 l	 n.a.	 5.965354e-01
7	 4	 27	 flanked	 rf	 4	 0.061700	 2.000000	 flanked_rf_freq_4_amplitude_0.0617_rep_8_l_D_2.0.png	 D	 l	 b	 n.a.	 6.328024e-01
7	 4	 28	 flanked	 rf	 4	 0.216700	 2.000000	 flanked_rf_freq_4_amplitude_0.2167_rep_6_b_N_2.0.png	 N	 b	 b	 n.a.	 5.714594e-01
7	 4	 29	 flanked	 rf	 4	 0.113300	 2.000000	 flanked_rf_freq_4_amplitude_0.1133_rep_0_b_D_2.0.png	 D	 b	 b	 n.a.	 5.327971e-01
7	 4	 30	 flanked	 rf	 3	 0.268300	 2.000000	 flanked_rf_freq_3_amplitude_0.2683_rep_2_l_K_2.0.png	 K	 l	 l	 n.a.	 4.491832e-01
7	 4	 31	 flanked	 rf	 5	 0.268300	 2.000000	 flanked_rf_freq_5_amplitude_0.2683_rep_7_r_K_2.0.png	 K	 r	 r	 n.a.	 3.582842e-01
7	 4	 32	 flanked	 rf	 12	 0.061700	 2.000000	 flanked_rf_freq_12_amplitude_0.0617_rep_5_t_K_2.0.png	 K	 t	 t	 n.a.	 4.264092e-01
7	 4	 33	 flanked	 rf	 12	 0.268300	 2.000000	 flanked_rf_freq_12_amplitude_0.2683_rep_4_b_D_2.0.png	 D	 b	 b	 n.a.	 3.200828e-01
7	 4	 34	 flanked	 rf	 12	 0.010000	 2.000000	 flanked_rf_freq_12_amplitude_0.01_rep_4_b_N_2.0.png	 N	 b	 r	 n.a.	 3.460740e-01
7	 4	 35	 flanked	 rf	 4	 0.007500	 2.000000	 flanked_rf_freq_4_amplitude_0.0075_rep_4_l_N_2.0.png	 N	 l	 l	 n.a.	 5.541748e-01
7	 4	 36	 flanked	 rf	 4	 0.113300	 2.000000	 flanked_rf_freq_4_amplitude_0.1133_rep_1_r_H_2.0.png	 H	 r	 t	 n.a.	 4.818283e-01
7	 4	 37	 flanked	 rf	 3	 0.061700	 2.000000	 flanked_rf_freq_3_amplitude_0.0617_rep_2_t_K_2.0.png	 K	 t	 b	 n.a.	 9.379939e-01
7	 4	 38	 flanked	 rf	 5	 0.010000	 2.000000	 flanked_rf_freq_5_amplitude_0.01_rep_3_t_D_2.0.png	 D	 t	 r	 n.a.	 5.033262e-01
7	 4	 39	 flanked	 rf	 2	 0.007500	 2.000000	 flanked_rf_freq_2_amplitude_0.0075_rep_3_t_H_2.0.png	 H	 t	 t	 n.a.	 3.882103e-01
7	 4	 40	 flanked	 rf	 4	 0.010000	 2.000000	 flanked_rf_freq_4_amplitude_0.01_rep_3_t_K_2.0.png	 K	 t	 t	 n.a.	 4.443910e-01
7	 4	 41	 flanked	 rf	 5	 0.061700	 2.000000	 flanked_rf_freq_5_amplitude_0.0617_rep_1_t_K_2.0.png	 K	 t	 t	 n.a.	 3.829128e-01
7	 4	 42	 flanked	 rf	 8	 0.165000	 2.000000	 flanked_rf_freq_8_amplitude_0.165_rep_3_l_K_2.0.png	 K	 l	 l	 n.a.	 3.715667e-01
7	 4	 43	 flanked	 rf	 8	 0.010000	 2.000000	 flanked_rf_freq_8_amplitude_0.01_rep_0_t_H_2.0.png	 H	 t	 r	 n.a.	 4.430566e-01
7	 4	 44	 flanked	 rf	 12	 0.113300	 2.000000	 flanked_rf_freq_12_amplitude_0.1133_rep_5_r_D_2.0.png	 D	 r	 r	 n.a.	 3.389509e-01
7	 4	 45	 flanked	 rf	 8	 0.165000	 2.000000	 flanked_rf_freq_8_amplitude_0.165_rep_8_b_H_2.0.png	 H	 b	 b	 n.a.	 3.802451e-01
7	 4	 46	 flanked	 rf	 2	 0.007500	 2.000000	 flanked_rf_freq_2_amplitude_0.0075_rep_0_b_K_2.0.png	 K	 b	 t	 n.a.	 5.189199e-01
7	 4	 47	 flanked	 rf	 12	 0.165000	 2.000000	 flanked_rf_freq_12_amplitude_0.165_rep_4_t_N_2.0.png	 N	 t	 t	 n.a.	 3.425359e-01
7	 4	 48	 flanked	 rf	 12	 0.268300	 2.000000	 flanked_rf_freq_12_amplitude_0.2683_rep_8_l_D_2.0.png	 D	 l	 l	 n.a.	 3.031621e-01
7	 4	 49	 flanked	 rf	 8	 0.165000	 2.000000	 flanked_rf_freq_8_amplitude_0.165_rep_5_l_D_2.0.png	 D	 l	 l	 n.a.	 4.218440e-01
7	 4	 50	 flanked	 rf	 8	 0.113300	 2.000000	 flanked_rf_freq_8_amplitude_0.1133_rep_3_l_H_2.0.png	 H	 l	 l	 n.a.	 3.850441e-01
7	 4	 51	 flanked	 rf	 2	 0.268300	 2.000000	 flanked_rf_freq_2_amplitude_0.2683_rep_6_b_N_2.0.png	 N	 b	 b	 n.a.	 5.317207e-01
7	 4	 52	 flanked	 rf	 3	 0.268300	 2.000000	 flanked_rf_freq_3_amplitude_0.2683_rep_0_b_K_2.0.png	 K	 b	 b	 n.a.	 4.453683e-01
7	 4	 53	 flanked	 rf	 4	 0.216700	 2.000000	 flanked_rf_freq_4_amplitude_0.2167_rep_8_b_H_2.0.png	 H	 b	 b	 n.a.	 3.777516e-01
7	 4	 54	 flanked	 rf	 8	 0.113300	 2.000000	 flanked_rf_freq_8_amplitude_0.1133_rep_4_r_H_2.0.png	 H	 r	 l	 n.a.	 6.174015e-01
7	 4	 55	 flanked	 rf	 3	 0.007500	 2.000000	 flanked_rf_freq_3_amplitude_0.0075_rep_8_t_H_2.0.png	 H	 t	 b	 n.a.	 4.189458e-01
7	 4	 56	 flanked	 rf	 4	 0.113300	 2.000000	 flanked_rf_freq_4_amplitude_0.1133_rep_7_b_D_2.0.png	 D	 b	 b	 n.a.	 4.592930e-01
7	 4	 57	 flanked	 rf	 12	 0.010000	 2.000000	 flanked_rf_freq_12_amplitude_0.01_rep_8_b_K_2.0.png	 K	 b	 b	 n.a.	 4.665571e-01
7	 4	 58	 flanked	 rf	 2	 0.165000	 2.000000	 flanked_rf_freq_2_amplitude_0.165_rep_5_b_H_2.0.png	 H	 b	 b	 n.a.	 4.545248e-01
7	 4	 59	 flanked	 rf	 8	 0.268300	 2.000000	 flanked_rf_freq_8_amplitude_0.2683_rep_3_b_K_2.0.png	 K	 b	 b	 n.a.	 4.290724e-01
7	 4	 60	 flanked	 rf	 3	 0.268300	 2.000000	 flanked_rf_freq_3_amplitude_0.2683_rep_3_l_H_2.0.png	 H	 l	 l	 n.a.	 4.664652e-01
7	 4	 61	 flanked	 rf	 3	 0.216700	 2.000000	 flanked_rf_freq_3_amplitude_0.2167_rep_0_l_D_2.0.png	 D	 l	 l	 n.a.	 5.773521e-01
7	 4	 62	 flanked	 rf	 2	 0.113300	 2.000000	 flanked_rf_freq_2_amplitude_0.1133_rep_7_r_N_2.0.png	 N	 r	 t	 n.a.	 8.039051e-01
7	 4	 63	 flanked	 rf	 12	 0.061700	 2.000000	 flanked_rf_freq_12_amplitude_0.0617_rep_4_l_N_2.0.png	 N	 l	 l	 n.a.	 3.431593e-01
7	 4	 64	 flanked	 rf	 5	 0.007500	 2.000000	 flanked_rf_freq_5_amplitude_0.0075_rep_7_l_H_2.0.png	 H	 l	 t	 n.a.	 5.972985e-01
7	 4	 65	 flanked	 rf	 12	 0.007500	 2.000000	 flanked_rf_freq_12_amplitude_0.0075_rep_2_b_H_2.0.png	 H	 b	 r	 n.a.	 5.116242e-01
7	 4	 66	 flanked	 rf	 5	 0.007500	 2.000000	 flanked_rf_freq_5_amplitude_0.0075_rep_1_r_D_2.0.png	 D	 r	 l	 n.a.	 6.253939e-01
7	 4	 67	 flanked	 rf	 12	 0.010000	 2.000000	 flanked_rf_freq_12_amplitude_0.01_rep_5_t_H_2.0.png	 H	 t	 t	 n.a.	 8.204165e-01
7	 4	 68	 flanked	 rf	 2	 0.216700	 2.000000	 flanked_rf_freq_2_amplitude_0.2167_rep_1_r_K_2.0.png	 K	 r	 r	 n.a.	 3.678490e-01
7	 4	 69	 flanked	 rf	 4	 0.061700	 2.000000	 flanked_rf_freq_4_amplitude_0.0617_rep_2_t_N_2.0.png	 N	 t	 b	 n.a.	 5.754571e-01
7	 4	 70	 flanked	 rf	 5	 0.165000	 2.000000	 flanked_rf_freq_5_amplitude_0.165_rep_5_t_D_2.0.png	 D	 t	 t	 n.a.	 3.673324e-01
7	 4	 71	 flanked	 rf	 3	 0.113300	 2.000000	 flanked_rf_freq_3_amplitude_0.1133_rep_2_l_K_2.0.png	 K	 l	 t	 n.a.	 5.566491e-01
7	 4	 72	 flanked	 rf	 8	 0.216700	 2.000000	 flanked_rf_freq_8_amplitude_0.2167_rep_8_b_K_2.0.png	 K	 b	 b	 n.a.	 4.319757e-01
7	 4	 73	 flanked	 rf	 2	 0.061700	 2.000000	 flanked_rf_freq_2_amplitude_0.0617_rep_5_t_K_2.0.png	 K	 t	 b	 n.a.	 7.080758e-01
7	 4	 74	 flanked	 rf	 8	 0.061700	 2.000000	 flanked_rf_freq_8_amplitude_0.0617_rep_3_b_H_2.0.png	 H	 b	 b	 n.a.	 5.667150e-01
7	 4	 75	 flanked	 rf	 8	 0.061700	 2.000000	 flanked_rf_freq_8_amplitude_0.0617_rep_2_r_K_2.0.png	 K	 r	 r	 n.a.	 3.715880e-01
7	 4	 76	 flanked	 rf	 12	 0.165000	 2.000000	 flanked_rf_freq_12_amplitude_0.165_rep_1_r_H_2.0.png	 H	 r	 r	 n.a.	 3.385386e-01
7	 4	 77	 flanked	 rf	 12	 0.061700	 2.000000	 flanked_rf_freq_12_amplitude_0.0617_rep_0_b_D_2.0.png	 D	 b	 b	 n.a.	 4.744204e-01
7	 4	 78	 flanked	 rf	 4	 0.007500	 2.000000	 flanked_rf_freq_4_amplitude_0.0075_rep_6_t_K_2.0.png	 K	 t	 r	 n.a.	 8.670812e-01
7	 4	 79	 flanked	 rf	 4	 0.061700	 2.000000	 flanked_rf_freq_4_amplitude_0.0617_rep_4_b_D_2.0.png	 D	 b	 b	 n.a.	 9.355100e-01
7	 4	 80	 flanked	 rf	 5	 0.216700	 2.000000	 flanked_rf_freq_5_amplitude_0.2167_rep_4_t_K_2.0.png	 K	 t	 t	 n.a.	 7.608398e-01
7	 4	 81	 flanked	 rf	 5	 0.010000	 2.000000	 flanked_rf_freq_5_amplitude_0.01_rep_7_r_H_2.0.png	 H	 r	 b	 n.a.	 6.236190e-01
7	 4	 82	 flanked	 rf	 5	 0.061700	 2.000000	 flanked_rf_freq_5_amplitude_0.0617_rep_3_b_N_2.0.png	 N	 b	 l	 n.a.	 7.194037e-01
7	 4	 83	 flanked	 rf	 3	 0.113300	 2.000000	 flanked_rf_freq_3_amplitude_0.1133_rep_0_b_K_2.0.png	 K	 b	 b	 n.a.	 4.393834e-01
7	 4	 84	 flanked	 rf	 3	 0.010000	 2.000000	 flanked_rf_freq_3_amplitude_0.01_rep_5_t_N_2.0.png	 N	 t	 b	 n.a.	 6.328223e-01
7	 4	 85	 flanked	 rf	 12	 0.113300	 2.000000	 flanked_rf_freq_12_amplitude_0.1133_rep_4_t_N_2.0.png	 N	 t	 t	 n.a.	 3.373359e-01
7	 4	 86	 flanked	 rf	 5	 0.165000	 2.000000	 flanked_rf_freq_5_amplitude_0.165_rep_4_l_K_2.0.png	 K	 l	 l	 n.a.	 4.025770e-01
7	 4	 87	 flanked	 rf	 4	 0.165000	 2.000000	 flanked_rf_freq_4_amplitude_0.165_rep_4_l_H_2.0.png	 H	 l	 l	 n.a.	 5.293544e-01
7	 4	 88	 flanked	 rf	 3	 0.165000	 2.000000	 flanked_rf_freq_3_amplitude_0.165_rep_2_t_D_2.0.png	 D	 t	 b	 n.a.	 4.926943e-01
7	 4	 89	 flanked	 rf	 4	 0.165000	 2.000000	 flanked_rf_freq_4_amplitude_0.165_rep_7_r_D_2.0.png	 D	 r	 r	 n.a.	 7.219219e-01
7	 4	 90	 flanked	 rf	 8	 0.216700	 2.000000	 flanked_rf_freq_8_amplitude_0.2167_rep_4_l_N_2.0.png	 N	 l	 l	 n.a.	 3.761395e-01
7	 4	 91	 flanked	 rf	 3	 0.165000	 2.000000	 flanked_rf_freq_3_amplitude_0.165_rep_0_t_H_2.0.png	 H	 t	 b	 n.a.	 5.498605e-01
7	 4	 92	 flanked	 rf	 8	 0.007500	 2.000000	 flanked_rf_freq_8_amplitude_0.0075_rep_8_t_D_2.0.png	 D	 t	 l	 n.a.	 6.126795e-01
7	 4	 93	 flanked	 rf	 4	 0.007500	 2.000000	 flanked_rf_freq_4_amplitude_0.0075_rep_8_b_K_2.0.png	 K	 b	 b	 n.a.	 3.488984e-01
7	 4	 94	 flanked	 rf	 5	 0.268300	 2.000000	 flanked_rf_freq_5_amplitude_0.2683_rep_6_b_N_2.0.png	 N	 b	 b	 n.a.	 4.922283e-01
7	 4	 95	 flanked	 rf	 12	 0.113300	 2.000000	 flanked_rf_freq_12_amplitude_0.1133_rep_6_b_D_2.0.png	 D	 b	 b	 n.a.	 3.538529e-01
7	 4	 96	 flanked	 rf	 5	 0.061700	 2.000000	 flanked_rf_freq_5_amplitude_0.0617_rep_6_b_D_2.0.png	 D	 b	 t	 n.a.	 5.019270e-01
7	 4	 97	 flanked	 rf	 2	 0.165000	 2.000000	 flanked_rf_freq_2_amplitude_0.165_rep_0_t_N_2.0.png	 N	 t	 l	 n.a.	 5.803749e-01
7	 4	 98	 flanked	 rf	 3	 0.007500	 2.000000	 flanked_rf_freq_3_amplitude_0.0075_rep_9_b_K_2.0.png	 K	 b	 b	 n.a.	 3.561445e-01
7	 4	 99	 flanked	 rf	 5	 0.061700	 2.000000	 flanked_rf_freq_5_amplitude_0.0617_rep_7_t_D_2.0.png	 D	 t	 b	 n.a.	 3.743628e-01
7	 4	 100	 flanked	 rf	 12	 0.010000	 2.000000	 flanked_rf_freq_12_amplitude_0.01_rep_7_b_N_2.0.png	 N	 b	 r	 n.a.	 4.250917e-01
7	 4	 101	 flanked	 rf	 2	 0.010000	 2.000000	 flanked_rf_freq_2_amplitude_0.01_rep_4_b_K_2.0.png	 K	 b	 b	 n.a.	 4.312633e-01
7	 4	 102	 flanked	 rf	 2	 0.216700	 2.000000	 flanked_rf_freq_2_amplitude_0.2167_rep_0_t_N_2.0.png	 N	 t	 r	 n.a.	 6.508941e-01
7	 4	 103	 flanked	 rf	 2	 0.113300	 2.000000	 flanked_rf_freq_2_amplitude_0.1133_rep_1_t_K_2.0.png	 K	 t	 t	 n.a.	 4.011685e-01
7	 4	 104	 flanked	 rf	 2	 0.216700	 2.000000	 flanked_rf_freq_2_amplitude_0.2167_rep_8_r_H_2.0.png	 H	 r	 r	 n.a.	 3.724747e-01
7	 4	 105	 flanked	 rf	 12	 0.268300	 2.000000	 flanked_rf_freq_12_amplitude_0.2683_rep_7_l_H_2.0.png	 H	 l	 l	 n.a.	 3.390777e-01
7	 4	 106	 flanked	 rf	 5	 0.061700	 2.000000	 flanked_rf_freq_5_amplitude_0.0617_rep_5_b_D_2.0.png	 D	 b	 b	 n.a.	 5.213071e-01
7	 4	 107	 flanked	 rf	 5	 0.113300	 2.000000	 flanked_rf_freq_5_amplitude_0.1133_rep_2_r_N_2.0.png	 N	 r	 l	 n.a.	 3.461949e-01
7	 4	 108	 flanked	 rf	 2	 0.061700	 2.000000	 flanked_rf_freq_2_amplitude_0.0617_rep_9_r_K_2.0.png	 K	 r	 r	 n.a.	 3.893970e-01
7	 4	 109	 flanked	 rf	 5	 0.165000	 2.000000	 flanked_rf_freq_5_amplitude_0.165_rep_0_r_D_2.0.png	 D	 r	 r	 n.a.	 4.035651e-01
7	 4	 110	 flanked	 rf	 5	 0.216700	 2.000000	 flanked_rf_freq_5_amplitude_0.2167_rep_5_r_H_2.0.png	 H	 r	 r	 n.a.	 3.766440e-01
7	 4	 111	 flanked	 rf	 12	 0.268300	 2.000000	 flanked_rf_freq_12_amplitude_0.2683_rep_9_t_D_2.0.png	 D	 t	 t	 n.a.	 3.854730e-01
7	 4	 112	 flanked	 rf	 2	 0.268300	 2.000000	 flanked_rf_freq_2_amplitude_0.2683_rep_7_r_N_2.0.png	 N	 r	 r	 n.a.	 4.495972e-01
7	 4	 113	 flanked	 rf	 12	 0.007500	 2.000000	 flanked_rf_freq_12_amplitude_0.0075_rep_4_r_K_2.0.png	 K	 r	 r	 n.a.	 5.036912e-01
7	 4	 114	 flanked	 rf	 2	 0.061700	 2.000000	 flanked_rf_freq_2_amplitude_0.0617_rep_7_l_N_2.0.png	 N	 l	 b	 n.a.	 5.704511e-01
7	 4	 115	 flanked	 rf	 8	 0.268300	 2.000000	 flanked_rf_freq_8_amplitude_0.2683_rep_4_b_H_2.0.png	 H	 b	 b	 n.a.	 3.770413e-01
7	 4	 116	 flanked	 rf	 3	 0.165000	 2.000000	 flanked_rf_freq_3_amplitude_0.165_rep_8_b_H_2.0.png	 H	 b	 t	 n.a.	 9.405510e-01
7	 4	 117	 flanked	 rf	 2	 0.113300	 2.000000	 flanked_rf_freq_2_amplitude_0.1133_rep_3_b_K_2.0.png	 K	 b	 b	 n.a.	 3.701652e-01
7	 4	 118	 flanked	 rf	 4	 0.113300	 2.000000	 flanked_rf_freq_4_amplitude_0.1133_rep_8_b_D_2.0.png	 D	 b	 r	 n.a.	 3.469653e-01
7	 4	 119	 flanked	 rf	 12	 0.216700	 2.000000	 flanked_rf_freq_12_amplitude_0.2167_rep_2_b_N_2.0.png	 N	 b	 b	 n.a.	 3.184768e-01
7	 4	 120	 flanked	 rf	 4	 0.007500	 2.000000	 flanked_rf_freq_4_amplitude_0.0075_rep_5_l_K_2.0.png	 K	 l	 l	 n.a.	 3.850132e-01
7	 4	 121	 flanked	 rf	 8	 0.061700	 2.000000	 flanked_rf_freq_8_amplitude_0.0617_rep_0_r_N_2.0.png	 N	 r	 r	 n.a.	 4.485904e-01
7	 4	 122	 flanked	 rf	 8	 0.061700	 2.000000	 flanked_rf_freq_8_amplitude_0.0617_rep_4_l_K_2.0.png	 K	 l	 l	 n.a.	 4.584767e-01
7	 4	 123	 flanked	 rf	 5	 0.216700	 2.000000	 flanked_rf_freq_5_amplitude_0.2167_rep_8_b_N_2.0.png	 N	 b	 b	 n.a.	 3.681804e-01
7	 4	 124	 flanked	 rf	 2	 0.268300	 2.000000	 flanked_rf_freq_2_amplitude_0.2683_rep_3_r_N_2.0.png	 N	 r	 r	 n.a.	 3.636585e-01
7	 4	 125	 flanked	 rf	 12	 0.216700	 2.000000	 flanked_rf_freq_12_amplitude_0.2167_rep_9_b_H_2.0.png	 H	 b	 b	 n.a.	 3.358623e-01
7	 4	 126	 flanked	 rf	 4	 0.268300	 2.000000	 flanked_rf_freq_4_amplitude_0.2683_rep_0_t_K_2.0.png	 K	 t	 t	 n.a.	 3.886675e-01
7	 4	 127	 flanked	 rf	 3	 0.165000	 2.000000	 flanked_rf_freq_3_amplitude_0.165_rep_9_l_K_2.0.png	 K	 l	 b	 n.a.	 3.089579e-01
7	 4	 128	 flanked	 rf	 8	 0.113300	 2.000000	 flanked_rf_freq_8_amplitude_0.1133_rep_1_t_N_2.0.png	 N	 t	 b	 n.a.	 4.141297e-01
7	 4	 129	 flanked	 rf	 3	 0.010000	 2.000000	 flanked_rf_freq_3_amplitude_0.01_rep_3_l_D_2.0.png	 D	 l	 t	 n.a.	 3.831430e-01
7	 4	 130	 flanked	 rf	 4	 0.165000	 2.000000	 flanked_rf_freq_4_amplitude_0.165_rep_3_r_H_2.0.png	 H	 r	 r	 n.a.	 4.503863e-01
7	 4	 131	 flanked	 rf	 4	 0.007500	 2.000000	 flanked_rf_freq_4_amplitude_0.0075_rep_1_t_N_2.0.png	 N	 t	 b	 n.a.	 4.815315e-01
7	 4	 132	 flanked	 rf	 5	 0.007500	 2.000000	 flanked_rf_freq_5_amplitude_0.0075_rep_4_b_D_2.0.png	 D	 b	 r	 n.a.	 4.029439e-01
7	 4	 133	 flanked	 rf	 5	 0.010000	 2.000000	 flanked_rf_freq_5_amplitude_0.01_rep_9_r_D_2.0.png	 D	 r	 b	 n.a.	 3.187241e-01
7	 4	 134	 flanked	 rf	 8	 0.007500	 2.000000	 flanked_rf_freq_8_amplitude_0.0075_rep_0_r_D_2.0.png	 D	 r	 t	 n.a.	 4.739347e-01
7	 4	 135	 flanked	 rf	 8	 0.113300	 2.000000	 flanked_rf_freq_8_amplitude_0.1133_rep_8_r_K_2.0.png	 K	 r	 r	 n.a.	 3.110033e-01
7	 4	 136	 flanked	 rf	 8	 0.216700	 2.000000	 flanked_rf_freq_8_amplitude_0.2167_rep_2_l_D_2.0.png	 D	 l	 l	 n.a.	 3.178420e-01
7	 4	 137	 flanked	 rf	 3	 0.216700	 2.000000	 flanked_rf_freq_3_amplitude_0.2167_rep_3_t_N_2.0.png	 N	 t	 b	 n.a.	 7.030623e-01
7	 4	 138	 flanked	 rf	 5	 0.113300	 2.000000	 flanked_rf_freq_5_amplitude_0.1133_rep_9_r_N_2.0.png	 N	 r	 t	 n.a.	 3.998523e-01
7	 4	 139	 flanked	 rf	 3	 0.268300	 2.000000	 flanked_rf_freq_3_amplitude_0.2683_rep_8_l_H_2.0.png	 H	 l	 l	 n.a.	 6.041636e-01
7	 4	 140	 flanked	 rf	 5	 0.268300	 2.000000	 flanked_rf_freq_5_amplitude_0.2683_rep_0_b_N_2.0.png	 N	 b	 b	 n.a.	 4.574808e-01
7	 4	 141	 flanked	 rf	 12	 0.061700	 2.000000	 flanked_rf_freq_12_amplitude_0.0617_rep_9_l_H_2.0.png	 H	 l	 t	 n.a.	 5.811162e-01
7	 4	 142	 flanked	 rf	 5	 0.010000	 2.000000	 flanked_rf_freq_5_amplitude_0.01_rep_4_b_N_2.0.png	 N	 b	 t	 n.a.	 4.159684e-01
7	 4	 143	 flanked	 rf	 3	 0.061700	 2.000000	 flanked_rf_freq_3_amplitude_0.0617_rep_4_r_N_2.0.png	 N	 r	 l	 n.a.	 4.293166e-01
7	 4	 144	 flanked	 rf	 4	 0.061700	 2.000000	 flanked_rf_freq_4_amplitude_0.0617_rep_3_r_K_2.0.png	 K	 r	 r	 n.a.	 3.478540e-01
7	 4	 145	 flanked	 rf	 8	 0.007500	 2.000000	 flanked_rf_freq_8_amplitude_0.0075_rep_2_t_H_2.0.png	 H	 t	 b	 n.a.	 4.019506e-01
7	 4	 146	 flanked	 rf	 12	 0.216700	 2.000000	 flanked_rf_freq_12_amplitude_0.2167_rep_1_l_N_2.0.png	 N	 l	 l	 n.a.	 2.650970e-01
7	 4	 147	 flanked	 rf	 3	 0.268300	 2.000000	 flanked_rf_freq_3_amplitude_0.2683_rep_6_r_D_2.0.png	 D	 r	 r	 n.a.	 3.466756e-01
7	 4	 148	 flanked	 rf	 2	 0.268300	 2.000000	 flanked_rf_freq_2_amplitude_0.2683_rep_0_l_H_2.0.png	 H	 l	 l	 n.a.	 3.782227e-01
7	 4	 149	 flanked	 rf	 8	 0.268300	 2.000000	 flanked_rf_freq_8_amplitude_0.2683_rep_1_r_H_2.0.png	 H	 r	 r	 n.a.	 3.524351e-01
7	 4	 150	 flanked	 rf	 12	 0.113300	 2.000000	 flanked_rf_freq_12_amplitude_0.1133_rep_0_b_N_2.0.png	 N	 b	 b	 n.a.	 8.408984e-01
7	 4	 151	 flanked	 rf	 12	 0.165000	 2.000000	 flanked_rf_freq_12_amplitude_0.165_rep_3_l_N_2.0.png	 N	 l	 l	 n.a.	 4.835613e-01
7	 4	 152	 flanked	 rf	 3	 0.010000	 2.000000	 flanked_rf_freq_3_amplitude_0.01_rep_2_t_D_2.0.png	 D	 t	 r	 n.a.	 7.980371e-01
7	 4	 153	 flanked	 rf	 8	 0.010000	 2.000000	 flanked_rf_freq_8_amplitude_0.01_rep_4_r_H_2.0.png	 H	 r	 b	 n.a.	 8.986905e-01
7	 4	 154	 flanked	 rf	 4	 0.010000	 2.000000	 flanked_rf_freq_4_amplitude_0.01_rep_8_b_H_2.0.png	 H	 b	 l	 n.a.	 6.208520e-01
7	 4	 155	 flanked	 rf	 2	 0.061700	 2.000000	 flanked_rf_freq_2_amplitude_0.0617_rep_1_r_D_2.0.png	 D	 r	 t	 n.a.	 7.264303e-01
7	 4	 156	 flanked	 rf	 2	 0.113300	 2.000000	 flanked_rf_freq_2_amplitude_0.1133_rep_4_b_D_2.0.png	 D	 b	 r	 n.a.	 5.463908e-01
7	 4	 157	 flanked	 rf	 2	 0.061700	 2.000000	 flanked_rf_freq_2_amplitude_0.0617_rep_8_b_K_2.0.png	 K	 b	 l	 n.a.	 6.064598e-01
7	 4	 158	 flanked	 rf	 4	 0.165000	 2.000000	 flanked_rf_freq_4_amplitude_0.165_rep_2_t_N_2.0.png	 N	 t	 r	 n.a.	 6.464253e-01
7	 4	 159	 flanked	 rf	 2	 0.007500	 2.000000	 flanked_rf_freq_2_amplitude_0.0075_rep_6_b_N_2.0.png	 N	 b	 l	 n.a.	 5.436211e-01
7	 4	 160	 flanked	 rf	 4	 0.216700	 2.000000	 flanked_rf_freq_4_amplitude_0.2167_rep_5_t_D_2.0.png	 D	 t	 t	 n.a.	 5.193201e-01
7	 4	 161	 flanked	 rf	 4	 0.061700	 2.000000	 flanked_rf_freq_4_amplitude_0.0617_rep_7_b_K_2.0.png	 K	 b	 l	 n.a.	 6.177754e-01
7	 4	 162	 flanked	 rf	 8	 0.113300	 2.000000	 flanked_rf_freq_8_amplitude_0.1133_rep_6_t_H_2.0.png	 H	 t	 t	 n.a.	 4.113157e-01
7	 4	 163	 flanked	 rf	 5	 0.007500	 2.000000	 flanked_rf_freq_5_amplitude_0.0075_rep_9_r_K_2.0.png	 K	 r	 t	 n.a.	 4.765777e-01
7	 4	 164	 flanked	 rf	 8	 0.165000	 2.000000	 flanked_rf_freq_8_amplitude_0.165_rep_0_b_H_2.0.png	 H	 b	 b	 n.a.	 3.734574e-01
7	 4	 165	 flanked	 rf	 3	 0.165000	 2.000000	 flanked_rf_freq_3_amplitude_0.165_rep_5_r_H_2.0.png	 H	 r	 r	 n.a.	 3.584784e-01
7	 4	 166	 flanked	 rf	 8	 0.007500	 2.000000	 flanked_rf_freq_8_amplitude_0.0075_rep_4_r_H_2.0.png	 H	 r	 t	 n.a.	 4.137688e-01
7	 4	 167	 flanked	 rf	 3	 0.268300	 2.000000	 flanked_rf_freq_3_amplitude_0.2683_rep_5_b_K_2.0.png	 K	 b	 b	 n.a.	 4.133404e-01
7	 4	 168	 flanked	 rf	 2	 0.165000	 2.000000	 flanked_rf_freq_2_amplitude_0.165_rep_3_b_K_2.0.png	 K	 b	 b	 n.a.	 9.668703e-01
7	 4	 169	 flanked	 rf	 2	 0.010000	 2.000000	 flanked_rf_freq_2_amplitude_0.01_rep_0_t_D_2.0.png	 D	 t	 t	 n.a.	 7.602568e-01
7	 4	 170	 flanked	 rf	 5	 0.061700	 2.000000	 flanked_rf_freq_5_amplitude_0.0617_rep_9_l_K_2.0.png	 K	 l	 l	 n.a.	 3.927042e-01
7	 4	 171	 flanked	 rf	 4	 0.268300	 2.000000	 flanked_rf_freq_4_amplitude_0.2683_rep_3_l_N_2.0.png	 N	 l	 l	 n.a.	 3.734209e-01
7	 4	 172	 flanked	 rf	 12	 0.268300	 2.000000	 flanked_rf_freq_12_amplitude_0.2683_rep_3_l_K_2.0.png	 K	 l	 l	 n.a.	 2.966983e-01
7	 4	 173	 flanked	 rf	 2	 0.113300	 2.000000	 flanked_rf_freq_2_amplitude_0.1133_rep_8_r_N_2.0.png	 N	 r	 t	 n.a.	 4.708777e-01
7	 4	 174	 flanked	 rf	 5	 0.165000	 2.000000	 flanked_rf_freq_5_amplitude_0.165_rep_8_l_K_2.0.png	 K	 l	 l	 n.a.	 3.636094e-01
7	 4	 175	 flanked	 rf	 2	 0.010000	 2.000000	 flanked_rf_freq_2_amplitude_0.01_rep_1_b_N_2.0.png	 N	 b	 t	 n.a.	 5.406438e-01
7	 4	 176	 flanked	 rf	 12	 0.007500	 2.000000	 flanked_rf_freq_12_amplitude_0.0075_rep_8_l_D_2.0.png	 D	 l	 b	 n.a.	 6.027528e-01
7	 4	 177	 flanked	 rf	 5	 0.268300	 2.000000	 flanked_rf_freq_5_amplitude_0.2683_rep_4_t_N_2.0.png	 N	 t	 t	 n.a.	 5.323135e-01
7	 4	 178	 flanked	 rf	 5	 0.007500	 2.000000	 flanked_rf_freq_5_amplitude_0.0075_rep_6_b_N_2.0.png	 N	 b	 r	 n.a.	 7.529681e-01
7	 4	 179	 flanked	 rf	 12	 0.010000	 2.000000	 flanked_rf_freq_12_amplitude_0.01_rep_1_l_D_2.0.png	 D	 l	 b	 n.a.	 1.147476e+00
7	 4	 180	 flanked	 rf	 12	 0.165000	 2.000000	 flanked_rf_freq_12_amplitude_0.165_rep_6_l_H_2.0.png	 H	 l	 l	 n.a.	 4.477390e-01
7	 4	 181	 flanked	 rf	 12	 0.007500	 2.000000	 flanked_rf_freq_12_amplitude_0.0075_rep_0_r_N_2.0.png	 N	 r	 b	 n.a.	 4.573851e-01
7	 4	 182	 flanked	 rf	 8	 0.216700	 2.000000	 flanked_rf_freq_8_amplitude_0.2167_rep_9_r_D_2.0.png	 D	 r	 r	 n.a.	 3.699015e-01
7	 4	 183	 flanked	 rf	 2	 0.010000	 2.000000	 flanked_rf_freq_2_amplitude_0.01_rep_3_b_K_2.0.png	 K	 b	 b	 n.a.	 4.914171e-01
7	 4	 184	 flanked	 rf	 5	 0.010000	 2.000000	 flanked_rf_freq_5_amplitude_0.01_rep_2_b_N_2.0.png	 N	 b	 r	 n.a.	 6.987594e-01
7	 4	 185	 flanked	 rf	 2	 0.010000	 2.000000	 flanked_rf_freq_2_amplitude_0.01_rep_2_r_N_2.0.png	 N	 r	 t	 n.a.	 3.815845e-01
7	 4	 186	 flanked	 rf	 8	 0.010000	 2.000000	 flanked_rf_freq_8_amplitude_0.01_rep_9_b_K_2.0.png	 K	 b	 b	 n.a.	 6.874283e-01
7	 4	 187	 flanked	 rf	 2	 0.007500	 2.000000	 flanked_rf_freq_2_amplitude_0.0075_rep_2_r_H_2.0.png	 H	 r	 l	 n.a.	 6.767278e-01
7	 4	 188	 flanked	 rf	 4	 0.216700	 2.000000	 flanked_rf_freq_4_amplitude_0.2167_rep_4_r_D_2.0.png	 D	 r	 r	 n.a.	 3.691957e-01
7	 4	 189	 flanked	 rf	 4	 0.165000	 2.000000	 flanked_rf_freq_4_amplitude_0.165_rep_8_r_H_2.0.png	 H	 r	 r	 n.a.	 3.794036e-01
7	 4	 190	 flanked	 rf	 5	 0.216700	 2.000000	 flanked_rf_freq_5_amplitude_0.2167_rep_6_t_K_2.0.png	 K	 t	 t	 n.a.	 3.738960e-01
7	 4	 191	 flanked	 rf	 3	 0.216700	 2.000000	 flanked_rf_freq_3_amplitude_0.2167_rep_5_b_N_2.0.png	 N	 b	 b	 n.a.	 4.024517e-01
7	 4	 192	 flanked	 rf	 5	 0.165000	 2.000000	 flanked_rf_freq_5_amplitude_0.165_rep_2_t_D_2.0.png	 D	 t	 b	 n.a.	 5.981788e-01
7	 4	 193	 flanked	 rf	 12	 0.165000	 2.000000	 flanked_rf_freq_12_amplitude_0.165_rep_2_b_N_2.0.png	 N	 b	 b	 n.a.	 3.746478e-01
7	 4	 194	 flanked	 rf	 5	 0.007500	 2.000000	 flanked_rf_freq_5_amplitude_0.0075_rep_5_b_D_2.0.png	 D	 b	 r	 n.a.	 5.275582e-01
7	 4	 195	 flanked	 rf	 4	 0.268300	 2.000000	 flanked_rf_freq_4_amplitude_0.2683_rep_7_b_D_2.0.png	 D	 b	 b	 n.a.	 3.429254e-01
7	 4	 196	 flanked	 rf	 3	 0.010000	 2.000000	 flanked_rf_freq_3_amplitude_0.01_rep_1_r_K_2.0.png	 K	 r	 b	 n.a.	 4.775083e-01
7	 4	 197	 flanked	 rf	 3	 0.113300	 2.000000	 flanked_rf_freq_3_amplitude_0.1133_rep_3_t_N_2.0.png	 N	 t	 b	 n.a.	 4.020471e-01
7	 4	 198	 flanked	 rf	 2	 0.113300	 2.000000	 flanked_rf_freq_2_amplitude_0.1133_rep_2_l_K_2.0.png	 K	 l	 l	 n.a.	 3.922499e-01
7	 4	 199	 flanked	 rf	 8	 0.113300	 2.000000	 flanked_rf_freq_8_amplitude_0.1133_rep_0_l_D_2.0.png	 D	 l	 l	 n.a.	 3.328640e-01
7	 4	 200	 flanked	 rf	 12	 0.113300	 2.000000	 flanked_rf_freq_12_amplitude_0.1133_rep_2_l_H_2.0.png	 H	 l	 l	 n.a.	 3.373355e-01
7	 4	 201	 flanked	 rf	 12	 0.007500	 2.000000	 flanked_rf_freq_12_amplitude_0.0075_rep_7_r_H_2.0.png	 H	 r	 l	 n.a.	 5.889469e-01
7	 4	 202	 flanked	 rf	 8	 0.216700	 2.000000	 flanked_rf_freq_8_amplitude_0.2167_rep_7_b_K_2.0.png	 K	 b	 b	 n.a.	 3.199286e-01
7	 4	 203	 flanked	 rf	 5	 0.113300	 2.000000	 flanked_rf_freq_5_amplitude_0.1133_rep_4_l_K_2.0.png	 K	 l	 b	 n.a.	 6.580043e-01
7	 4	 204	 flanked	 rf	 12	 0.216700	 2.000000	 flanked_rf_freq_12_amplitude_0.2167_rep_3_t_D_2.0.png	 D	 t	 t	 n.a.	 3.175434e-01
7	 4	 205	 flanked	 rf	 3	 0.061700	 2.000000	 flanked_rf_freq_3_amplitude_0.0617_rep_6_r_H_2.0.png	 H	 r	 l	 n.a.	 3.852801e-01
7	 4	 206	 flanked	 rf	 3	 0.113300	 2.000000	 flanked_rf_freq_3_amplitude_0.1133_rep_5_t_K_2.0.png	 K	 t	 t	 n.a.	 3.356456e-01
7	 4	 207	 flanked	 rf	 4	 0.007500	 2.000000	 flanked_rf_freq_4_amplitude_0.0075_rep_0_b_D_2.0.png	 D	 b	 b	 n.a.	 5.932883e-01
7	 4	 208	 flanked	 rf	 5	 0.113300	 2.000000	 flanked_rf_freq_5_amplitude_0.1133_rep_6_l_D_2.0.png	 D	 l	 t	 n.a.	 3.913956e-01
7	 4	 209	 flanked	 rf	 8	 0.165000	 2.000000	 flanked_rf_freq_8_amplitude_0.165_rep_4_l_H_2.0.png	 H	 l	 l	 n.a.	 3.497730e-01
7	 4	 210	 flanked	 rf	 2	 0.216700	 2.000000	 flanked_rf_freq_2_amplitude_0.2167_rep_5_l_H_2.0.png	 H	 l	 b	 n.a.	 6.494849e-01
7	 4	 211	 flanked	 rf	 8	 0.061700	 2.000000	 flanked_rf_freq_8_amplitude_0.0617_rep_1_l_N_2.0.png	 N	 l	 t	 n.a.	 3.883406e-01
7	 4	 212	 flanked	 rf	 3	 0.061700	 2.000000	 flanked_rf_freq_3_amplitude_0.0617_rep_8_t_H_2.0.png	 H	 t	 r	 n.a.	 5.352743e-01
7	 4	 213	 flanked	 rf	 2	 0.268300	 2.000000	 flanked_rf_freq_2_amplitude_0.2683_rep_9_b_H_2.0.png	 H	 b	 b	 n.a.	 5.687650e-01
7	 4	 214	 flanked	 rf	 12	 0.061700	 2.000000	 flanked_rf_freq_12_amplitude_0.0617_rep_7_b_N_2.0.png	 N	 b	 b	 n.a.	 5.006873e-01
7	 4	 215	 flanked	 rf	 5	 0.007500	 2.000000	 flanked_rf_freq_5_amplitude_0.0075_rep_2_r_K_2.0.png	 K	 r	 b	 n.a.	 7.560545e-01
7	 4	 216	 flanked	 rf	 4	 0.061700	 2.000000	 flanked_rf_freq_4_amplitude_0.0617_rep_1_r_K_2.0.png	 K	 r	 r	 n.a.	 4.876511e-01
7	 4	 217	 flanked	 rf	 12	 0.010000	 2.000000	 flanked_rf_freq_12_amplitude_0.01_rep_2_t_K_2.0.png	 K	 t	 l	 n.a.	 5.379073e-01
7	 4	 218	 flanked	 rf	 2	 0.165000	 2.000000	 flanked_rf_freq_2_amplitude_0.165_rep_9_l_N_2.0.png	 N	 l	 r	 n.a.	 4.603513e-01
7	 4	 219	 flanked	 rf	 4	 0.007500	 2.000000	 flanked_rf_freq_4_amplitude_0.0075_rep_9_l_K_2.0.png	 K	 l	 t	 n.a.	 7.259327e-01
7	 4	 220	 flanked	 rf	 12	 0.061700	 2.000000	 flanked_rf_freq_12_amplitude_0.0617_rep_8_t_H_2.0.png	 H	 t	 l	 n.a.	 4.449874e-01
7	 4	 221	 flanked	 rf	 3	 0.010000	 2.000000	 flanked_rf_freq_3_amplitude_0.01_rep_4_r_D_2.0.png	 D	 r	 b	 n.a.	 5.336362e-01
7	 4	 222	 flanked	 rf	 2	 0.010000	 2.000000	 flanked_rf_freq_2_amplitude_0.01_rep_5_r_H_2.0.png	 H	 r	 l	 n.a.	 5.157240e-01
7	 4	 223	 flanked	 rf	 8	 0.010000	 2.000000	 flanked_rf_freq_8_amplitude_0.01_rep_7_b_D_2.0.png	 D	 b	 b	 n.a.	 7.194458e-01
7	 4	 224	 flanked	 rf	 5	 0.165000	 2.000000	 flanked_rf_freq_5_amplitude_0.165_rep_3_b_D_2.0.png	 D	 b	 r	 n.a.	 3.381655e-01
7	 4	 225	 flanked	 rf	 12	 0.061700	 2.000000	 flanked_rf_freq_12_amplitude_0.0617_rep_1_r_K_2.0.png	 K	 r	 r	 n.a.	 3.019793e-01
7	 4	 226	 flanked	 rf	 8	 0.165000	 2.000000	 flanked_rf_freq_8_amplitude_0.165_rep_9_l_D_2.0.png	 D	 l	 l	 n.a.	 2.942884e-01
7	 4	 227	 flanked	 rf	 3	 0.216700	 2.000000	 flanked_rf_freq_3_amplitude_0.2167_rep_1_r_D_2.0.png	 D	 r	 r	 n.a.	 3.063294e-01
7	 4	 228	 flanked	 rf	 5	 0.010000	 2.000000	 flanked_rf_freq_5_amplitude_0.01_rep_8_r_H_2.0.png	 H	 r	 r	 n.a.	 4.359915e-01
7	 4	 229	 flanked	 rf	 3	 0.113300	 2.000000	 flanked_rf_freq_3_amplitude_0.1133_rep_4_t_H_2.0.png	 H	 t	 l	 n.a.	 3.746501e-01
7	 4	 230	 flanked	 rf	 8	 0.010000	 2.000000	 flanked_rf_freq_8_amplitude_0.01_rep_1_t_N_2.0.png	 N	 t	 r	 n.a.	 3.832656e-01
7	 4	 231	 flanked	 rf	 3	 0.216700	 2.000000	 flanked_rf_freq_3_amplitude_0.2167_rep_6_b_D_2.0.png	 D	 b	 r	 n.a.	 3.659520e-01
7	 4	 232	 flanked	 rf	 3	 0.061700	 2.000000	 flanked_rf_freq_3_amplitude_0.0617_rep_9_l_H_2.0.png	 H	 l	 b	 n.a.	 7.106381e-01
7	 4	 233	 flanked	 rf	 8	 0.216700	 2.000000	 flanked_rf_freq_8_amplitude_0.2167_rep_0_b_N_2.0.png	 N	 b	 b	 n.a.	 9.311842e-01
7	 4	 234	 flanked	 rf	 12	 0.113300	 2.000000	 flanked_rf_freq_12_amplitude_0.1133_rep_7_t_D_2.0.png	 D	 t	 t	 n.a.	 4.232634e-01
7	 4	 235	 flanked	 rf	 4	 0.007500	 2.000000	 flanked_rf_freq_4_amplitude_0.0075_rep_7_l_H_2.0.png	 H	 l	 t	 n.a.	 3.920706e-01
7	 4	 236	 flanked	 rf	 12	 0.216700	 2.000000	 flanked_rf_freq_12_amplitude_0.2167_rep_6_t_K_2.0.png	 K	 t	 t	 n.a.	 2.854870e-01
7	 4	 237	 flanked	 rf	 2	 0.010000	 2.000000	 flanked_rf_freq_2_amplitude_0.01_rep_7_r_K_2.0.png	 K	 r	 r	 n.a.	 4.296035e-01
7	 4	 238	 flanked	 rf	 12	 0.165000	 2.000000	 flanked_rf_freq_12_amplitude_0.165_rep_8_l_H_2.0.png	 H	 l	 l	 n.a.	 2.963132e-01
7	 4	 239	 flanked	 rf	 4	 0.007500	 2.000000	 flanked_rf_freq_4_amplitude_0.0075_rep_3_l_N_2.0.png	 N	 l	 b	 n.a.	 5.151909e-01
7	 4	 240	 flanked	 rf	 8	 0.007500	 2.000000	 flanked_rf_freq_8_amplitude_0.0075_rep_1_b_N_2.0.png	 N	 b	 t	 n.a.	 3.453737e-01
7	 4	 241	 flanked	 rf	 5	 0.268300	 2.000000	 flanked_rf_freq_5_amplitude_0.2683_rep_1_b_H_2.0.png	 H	 b	 b	 n.a.	 3.522411e-01
7	 4	 242	 flanked	 rf	 2	 0.007500	 2.000000	 flanked_rf_freq_2_amplitude_0.0075_rep_4_l_H_2.0.png	 H	 l	 t	 n.a.	 4.003225e-01
7	 4	 243	 flanked	 rf	 8	 0.061700	 2.000000	 flanked_rf_freq_8_amplitude_0.0617_rep_9_b_K_2.0.png	 K	 b	 t	 n.a.	 4.961778e-01
7	 4	 244	 flanked	 rf	 3	 0.165000	 2.000000	 flanked_rf_freq_3_amplitude_0.165_rep_3_l_N_2.0.png	 N	 l	 l	 n.a.	 4.491581e-01
7	 4	 245	 flanked	 rf	 2	 0.165000	 2.000000	 flanked_rf_freq_2_amplitude_0.165_rep_7_b_H_2.0.png	 H	 b	 t	 n.a.	 3.799798e-01
7	 4	 246	 flanked	 rf	 3	 0.007500	 2.000000	 flanked_rf_freq_3_amplitude_0.0075_rep_6_l_H_2.0.png	 H	 l	 t	 n.a.	 3.369045e-01
7	 4	 247	 flanked	 rf	 5	 0.007500	 2.000000	 flanked_rf_freq_5_amplitude_0.0075_rep_3_r_N_2.0.png	 N	 r	 t	 n.a.	 3.913139e-01
7	 4	 248	 flanked	 rf	 8	 0.113300	 2.000000	 flanked_rf_freq_8_amplitude_0.1133_rep_7_r_D_2.0.png	 D	 r	 r	 n.a.	 2.801305e-01
7	 4	 249	 flanked	 rf	 3	 0.061700	 2.000000	 flanked_rf_freq_3_amplitude_0.0617_rep_7_l_K_2.0.png	 K	 l	 l	 n.a.	 3.150270e-01
7	 4	 250	 flanked	 rf	 3	 0.113300	 2.000000	 flanked_rf_freq_3_amplitude_0.1133_rep_1_t_K_2.0.png	 K	 t	 b	 n.a.	 4.725912e-01
7	 4	 251	 flanked	 rf	 2	 0.007500	 2.000000	 flanked_rf_freq_2_amplitude_0.0075_rep_9_l_H_2.0.png	 H	 l	 b	 n.a.	 4.106378e-01
7	 4	 252	 flanked	 rf	 3	 0.010000	 2.000000	 flanked_rf_freq_3_amplitude_0.01_rep_8_b_H_2.0.png	 H	 b	 b	 n.a.	 5.087270e-01
7	 4	 253	 flanked	 rf	 2	 0.216700	 2.000000	 flanked_rf_freq_2_amplitude_0.2167_rep_7_l_K_2.0.png	 K	 l	 t	 n.a.	 3.826612e-01
7	 4	 254	 flanked	 rf	 4	 0.061700	 2.000000	 flanked_rf_freq_4_amplitude_0.0617_rep_5_l_H_2.0.png	 H	 l	 b	 n.a.	 5.880846e-01
7	 4	 255	 flanked	 rf	 8	 0.268300	 2.000000	 flanked_rf_freq_8_amplitude_0.2683_rep_0_b_D_2.0.png	 D	 b	 b	 n.a.	 2.869682e-01
7	 4	 256	 flanked	 rf	 8	 0.007500	 2.000000	 flanked_rf_freq_8_amplitude_0.0075_rep_9_b_H_2.0.png	 H	 b	 t	 n.a.	 3.203063e-01
7	 4	 257	 flanked	 rf	 8	 0.216700	 2.000000	 flanked_rf_freq_8_amplitude_0.2167_rep_3_l_K_2.0.png	 K	 l	 l	 n.a.	 3.010636e-01
7	 4	 258	 flanked	 rf	 12	 0.268300	 2.000000	 flanked_rf_freq_12_amplitude_0.2683_rep_2_b_K_2.0.png	 K	 b	 b	 n.a.	 3.128618e-01
7	 4	 259	 flanked	 rf	 4	 0.010000	 2.000000	 flanked_rf_freq_4_amplitude_0.01_rep_6_r_H_2.0.png	 H	 r	 l	 n.a.	 4.043332e-01
7	 4	 260	 flanked	 rf	 3	 0.268300	 2.000000	 flanked_rf_freq_3_amplitude_0.2683_rep_9_r_K_2.0.png	 K	 r	 r	 n.a.	 2.564953e-01
7	 4	 261	 flanked	 rf	 4	 0.268300	 2.000000	 flanked_rf_freq_4_amplitude_0.2683_rep_6_l_N_2.0.png	 N	 l	 l	 n.a.	 3.456250e-01
7	 4	 262	 flanked	 rf	 8	 0.061700	 2.000000	 flanked_rf_freq_8_amplitude_0.0617_rep_6_b_N_2.0.png	 N	 b	 r	 n.a.	 6.614961e-01
7	 4	 263	 flanked	 rf	 5	 0.268300	 2.000000	 flanked_rf_freq_5_amplitude_0.2683_rep_2_t_H_2.0.png	 H	 t	 t	 n.a.	 3.771413e-01
7	 4	 264	 flanked	 rf	 12	 0.010000	 2.000000	 flanked_rf_freq_12_amplitude_0.01_rep_3_l_K_2.0.png	 K	 l	 l	 n.a.	 5.153017e-01
7	 4	 265	 flanked	 rf	 2	 0.165000	 2.000000	 flanked_rf_freq_2_amplitude_0.165_rep_8_l_H_2.0.png	 H	 l	 b	 n.a.	 4.133338e-01
7	 4	 266	 flanked	 rf	 5	 0.268300	 2.000000	 flanked_rf_freq_5_amplitude_0.2683_rep_8_b_H_2.0.png	 H	 b	 b	 n.a.	 4.303304e-01
7	 4	 267	 flanked	 rf	 12	 0.216700	 2.000000	 flanked_rf_freq_12_amplitude_0.2167_rep_4_l_N_2.0.png	 N	 l	 l	 n.a.	 2.663516e-01
7	 4	 268	 flanked	 rf	 3	 0.007500	 2.000000	 flanked_rf_freq_3_amplitude_0.0075_rep_7_r_D_2.0.png	 D	 r	 t	 n.a.	 7.299575e-01
7	 4	 269	 flanked	 rf	 3	 0.165000	 2.000000	 flanked_rf_freq_3_amplitude_0.165_rep_4_r_K_2.0.png	 K	 r	 r	 n.a.	 3.081802e-01
7	 4	 270	 flanked	 rf	 3	 0.268300	 2.000000	 flanked_rf_freq_3_amplitude_0.2683_rep_4_t_N_2.0.png	 N	 t	 t	 n.a.	 6.093903e-01
7	 4	 271	 flanked	 rf	 12	 0.007500	 2.000000	 flanked_rf_freq_12_amplitude_0.0075_rep_3_b_H_2.0.png	 H	 b	 t	 n.a.	 4.931257e-01
7	 4	 272	 flanked	 rf	 8	 0.007500	 2.000000	 flanked_rf_freq_8_amplitude_0.0075_rep_6_r_N_2.0.png	 N	 r	 b	 n.a.	 7.724643e-01
7	 4	 273	 flanked	 rf	 2	 0.216700	 2.000000	 flanked_rf_freq_2_amplitude_0.2167_rep_2_b_D_2.0.png	 D	 b	 r	 n.a.	 3.953989e-01
7	 4	 274	 flanked	 rf	 5	 0.113300	 2.000000	 flanked_rf_freq_5_amplitude_0.1133_rep_0_t_K_2.0.png	 K	 t	 t	 n.a.	 7.454797e-01
7	 4	 275	 flanked	 rf	 3	 0.165000	 2.000000	 flanked_rf_freq_3_amplitude_0.165_rep_6_l_D_2.0.png	 D	 l	 l	 n.a.	 4.470933e-01
7	 4	 276	 flanked	 rf	 12	 0.216700	 2.000000	 flanked_rf_freq_12_amplitude_0.2167_rep_0_t_K_2.0.png	 K	 t	 t	 n.a.	 3.923861e-01
7	 4	 277	 flanked	 rf	 12	 0.010000	 2.000000	 flanked_rf_freq_12_amplitude_0.01_rep_6_b_N_2.0.png	 N	 b	 b	 n.a.	 6.231287e-01
7	 4	 278	 flanked	 rf	 8	 0.268300	 2.000000	 flanked_rf_freq_8_amplitude_0.2683_rep_6_l_N_2.0.png	 N	 l	 l	 n.a.	 3.896502e-01
7	 4	 279	 flanked	 rf	 12	 0.165000	 2.000000	 flanked_rf_freq_12_amplitude_0.165_rep_7_l_H_2.0.png	 H	 l	 l	 n.a.	 5.266528e-01
7	 4	 280	 flanked	 rf	 4	 0.216700	 2.000000	 flanked_rf_freq_4_amplitude_0.2167_rep_0_r_K_2.0.png	 K	 r	 r	 n.a.	 3.574803e-01
7	 4	 281	 flanked	 rf	 8	 0.216700	 2.000000	 flanked_rf_freq_8_amplitude_0.2167_rep_5_l_H_2.0.png	 H	 l	 l	 n.a.	 4.041940e-01
7	 4	 282	 flanked	 rf	 4	 0.061700	 2.000000	 flanked_rf_freq_4_amplitude_0.0617_rep_6_b_N_2.0.png	 N	 b	 b	 n.a.	 4.228785e-01
7	 4	 283	 flanked	 rf	 12	 0.268300	 2.000000	 flanked_rf_freq_12_amplitude_0.2683_rep_6_l_K_2.0.png	 K	 l	 l	 n.a.	 2.688075e-01
7	 4	 284	 flanked	 rf	 12	 0.113300	 2.000000	 flanked_rf_freq_12_amplitude_0.1133_rep_8_r_N_2.0.png	 N	 r	 r	 n.a.	 2.622453e-01
7	 4	 285	 flanked	 rf	 2	 0.216700	 2.000000	 flanked_rf_freq_2_amplitude_0.2167_rep_4_t_N_2.0.png	 N	 t	 l	 n.a.	 5.277850e-01
7	 4	 286	 flanked	 rf	 12	 0.061700	 2.000000	 flanked_rf_freq_12_amplitude_0.0617_rep_6_t_N_2.0.png	 N	 t	 t	 n.a.	 3.604992e-01
7	 4	 287	 flanked	 rf	 4	 0.268300	 2.000000	 flanked_rf_freq_4_amplitude_0.2683_rep_2_r_D_2.0.png	 D	 r	 r	 n.a.	 3.198865e-01
7	 4	 288	 flanked	 rf	 4	 0.268300	 2.000000	 flanked_rf_freq_4_amplitude_0.2683_rep_5_r_K_2.0.png	 K	 r	 r	 n.a.	 2.906891e-01
7	 4	 289	 flanked	 rf	 3	 0.061700	 2.000000	 flanked_rf_freq_3_amplitude_0.0617_rep_1_b_H_2.0.png	 H	 b	 l	 n.a.	 9.564729e-01
7	 4	 290	 flanked	 rf	 5	 0.216700	 2.000000	 flanked_rf_freq_5_amplitude_0.2167_rep_3_r_N_2.0.png	 N	 r	 r	 n.a.	 3.135126e-01
7	 4	 291	 flanked	 rf	 2	 0.216700	 2.000000	 flanked_rf_freq_2_amplitude_0.2167_rep_9_t_N_2.0.png	 N	 t	 l	 n.a.	 7.327553e-01
7	 4	 292	 flanked	 rf	 8	 0.216700	 2.000000	 flanked_rf_freq_8_amplitude_0.2167_rep_1_b_D_2.0.png	 D	 b	 b	 n.a.	 3.995983e-01
7	 4	 293	 flanked	 rf	 3	 0.007500	 2.000000	 flanked_rf_freq_3_amplitude_0.0075_rep_4_t_D_2.0.png	 D	 t	 b	 n.a.	 5.202300e-01
7	 4	 294	 flanked	 rf	 5	 0.268300	 2.000000	 flanked_rf_freq_5_amplitude_0.2683_rep_9_t_H_2.0.png	 H	 t	 t	 n.a.	 3.646627e-01
7	 4	 295	 flanked	 rf	 12	 0.268300	 2.000000	 flanked_rf_freq_12_amplitude_0.2683_rep_1_b_H_2.0.png	 H	 b	 b	 n.a.	 2.643436e-01
7	 4	 296	 flanked	 rf	 3	 0.216700	 2.000000	 flanked_rf_freq_3_amplitude_0.2167_rep_8_t_K_2.0.png	 K	 t	 t	 n.a.	 4.343538e-01
7	 4	 297	 flanked	 rf	 5	 0.268300	 2.000000	 flanked_rf_freq_5_amplitude_0.2683_rep_5_l_K_2.0.png	 K	 l	 l	 n.a.	 2.973664e-01
7	 4	 298	 flanked	 rf	 2	 0.268300	 2.000000	 flanked_rf_freq_2_amplitude_0.2683_rep_5_b_H_2.0.png	 H	 b	 b	 n.a.	 3.309017e-01
7	 4	 299	 flanked	 rf	 8	 0.216700	 2.000000	 flanked_rf_freq_8_amplitude_0.2167_rep_6_r_K_2.0.png	 K	 r	 r	 n.a.	 3.168282e-01
7	 4	 300	 flanked	 rf	 8	 0.007500	 2.000000	 flanked_rf_freq_8_amplitude_0.0075_rep_5_b_H_2.0.png	 H	 b	 t	 n.a.	 3.340932e-01
7	 4	 301	 flanked	 rf	 2	 0.007500	 2.000000	 flanked_rf_freq_2_amplitude_0.0075_rep_8_l_H_2.0.png	 H	 l	 r	 n.a.	 3.944444e-01
7	 4	 302	 flanked	 rf	 8	 0.010000	 2.000000	 flanked_rf_freq_8_amplitude_0.01_rep_5_b_N_2.0.png	 N	 b	 l	 n.a.	 3.770319e-01
7	 4	 303	 flanked	 rf	 8	 0.113300	 2.000000	 flanked_rf_freq_8_amplitude_0.1133_rep_9_r_H_2.0.png	 H	 r	 r	 n.a.	 3.393876e-01
7	 4	 304	 flanked	 rf	 4	 0.165000	 2.000000	 flanked_rf_freq_4_amplitude_0.165_rep_6_r_K_2.0.png	 K	 r	 b	 n.a.	 5.218015e-01
7	 4	 305	 flanked	 rf	 8	 0.165000	 2.000000	 flanked_rf_freq_8_amplitude_0.165_rep_1_b_K_2.0.png	 K	 b	 b	 n.a.	 3.534332e-01
7	 4	 306	 flanked	 rf	 5	 0.061700	 2.000000	 flanked_rf_freq_5_amplitude_0.0617_rep_4_l_D_2.0.png	 D	 l	 t	 n.a.	 5.963848e-01
7	 4	 307	 flanked	 rf	 8	 0.165000	 2.000000	 flanked_rf_freq_8_amplitude_0.165_rep_6_l_H_2.0.png	 H	 l	 l	 n.a.	 3.069610e-01
7	 4	 308	 flanked	 rf	 12	 0.007500	 2.000000	 flanked_rf_freq_12_amplitude_0.0075_rep_1_r_D_2.0.png	 D	 r	 b	 n.a.	 5.607438e-01
7	 4	 309	 flanked	 rf	 4	 0.010000	 2.000000	 flanked_rf_freq_4_amplitude_0.01_rep_0_l_D_2.0.png	 D	 l	 t	 n.a.	 7.106512e-01
7	 4	 310	 flanked	 rf	 4	 0.113300	 2.000000	 flanked_rf_freq_4_amplitude_0.1133_rep_4_t_H_2.0.png	 H	 t	 r	 n.a.	 4.062821e-01
7	 4	 311	 flanked	 rf	 8	 0.113300	 2.000000	 flanked_rf_freq_8_amplitude_0.1133_rep_5_b_H_2.0.png	 H	 b	 b	 n.a.	 4.820995e-01
7	 4	 312	 flanked	 rf	 4	 0.165000	 2.000000	 flanked_rf_freq_4_amplitude_0.165_rep_5_b_K_2.0.png	 K	 b	 b	 n.a.	 4.635769e-01
7	 4	 313	 flanked	 rf	 3	 0.113300	 2.000000	 flanked_rf_freq_3_amplitude_0.1133_rep_9_t_N_2.0.png	 N	 t	 t	 n.a.	 5.217822e-01
7	 4	 314	 flanked	 rf	 12	 0.113300	 2.000000	 flanked_rf_freq_12_amplitude_0.1133_rep_3_b_H_2.0.png	 H	 b	 b	 n.a.	 3.385601e-01
7	 4	 315	 flanked	 rf	 2	 0.268300	 2.000000	 flanked_rf_freq_2_amplitude_0.2683_rep_1_r_H_2.0.png	 H	 r	 r	 n.a.	 3.921093e-01
7	 4	 316	 flanked	 rf	 4	 0.113300	 2.000000	 flanked_rf_freq_4_amplitude_0.1133_rep_5_l_K_2.0.png	 K	 l	 l	 n.a.	 4.588427e-01
7	 4	 317	 flanked	 rf	 8	 0.113300	 2.000000	 flanked_rf_freq_8_amplitude_0.1133_rep_2_r_N_2.0.png	 N	 r	 r	 n.a.	 3.515434e-01
7	 4	 318	 flanked	 rf	 8	 0.268300	 2.000000	 flanked_rf_freq_8_amplitude_0.2683_rep_7_l_N_2.0.png	 N	 l	 l	 n.a.	 3.222104e-01
7	 4	 319	 flanked	 rf	 2	 0.113300	 2.000000	 flanked_rf_freq_2_amplitude_0.1133_rep_0_l_K_2.0.png	 K	 l	 l	 n.a.	 4.705922e-01
7	 4	 320	 flanked	 rf	 8	 0.061700	 2.000000	 flanked_rf_freq_8_amplitude_0.0617_rep_5_b_K_2.0.png	 K	 b	 b	 n.a.	 4.072758e-01
7	 4	 321	 flanked	 rf	 2	 0.165000	 2.000000	 flanked_rf_freq_2_amplitude_0.165_rep_6_l_H_2.0.png	 H	 l	 r	 n.a.	 4.602014e-01
7	 4	 322	 flanked	 rf	 4	 0.010000	 2.000000	 flanked_rf_freq_4_amplitude_0.01_rep_2_b_H_2.0.png	 H	 b	 b	 n.a.	 4.073712e-01
7	 4	 323	 flanked	 rf	 12	 0.061700	 2.000000	 flanked_rf_freq_12_amplitude_0.0617_rep_3_t_N_2.0.png	 N	 t	 t	 n.a.	 5.363527e-01
7	 4	 324	 flanked	 rf	 3	 0.007500	 2.000000	 flanked_rf_freq_3_amplitude_0.0075_rep_3_b_D_2.0.png	 D	 b	 r	 n.a.	 4.856483e-01
7	 4	 325	 flanked	 rf	 8	 0.061700	 2.000000	 flanked_rf_freq_8_amplitude_0.0617_rep_8_l_H_2.0.png	 H	 l	 r	 n.a.	 4.988265e-01
7	 4	 326	 flanked	 rf	 3	 0.007500	 2.000000	 flanked_rf_freq_3_amplitude_0.0075_rep_1_t_H_2.0.png	 H	 t	 b	 n.a.	 3.826769e-01
7	 4	 327	 flanked	 rf	 2	 0.007500	 2.000000	 flanked_rf_freq_2_amplitude_0.0075_rep_7_l_H_2.0.png	 H	 l	 r	 n.a.	 5.617138e-01
7	 4	 328	 flanked	 rf	 4	 0.216700	 2.000000	 flanked_rf_freq_4_amplitude_0.2167_rep_1_l_D_2.0.png	 D	 l	 l	 n.a.	 3.591299e-01
7	 4	 329	 flanked	 rf	 4	 0.216700	 2.000000	 flanked_rf_freq_4_amplitude_0.2167_rep_3_l_H_2.0.png	 H	 l	 l	 n.a.	 4.219164e-01
7	 4	 330	 flanked	 rf	 5	 0.061700	 2.000000	 flanked_rf_freq_5_amplitude_0.0617_rep_2_l_K_2.0.png	 K	 l	 l	 n.a.	 6.042931e-01
7	 4	 331	 flanked	 rf	 3	 0.216700	 2.000000	 flanked_rf_freq_3_amplitude_0.2167_rep_4_l_D_2.0.png	 D	 l	 l	 n.a.	 3.756149e-01
7	 4	 332	 flanked	 rf	 12	 0.216700	 2.000000	 flanked_rf_freq_12_amplitude_0.2167_rep_8_t_N_2.0.png	 N	 t	 t	 n.a.	 3.751585e-01
7	 4	 333	 flanked	 rf	 3	 0.268300	 2.000000	 flanked_rf_freq_3_amplitude_0.2683_rep_7_b_N_2.0.png	 N	 b	 b	 n.a.	 6.205140e-01
7	 4	 334	 flanked	 rf	 12	 0.216700	 2.000000	 flanked_rf_freq_12_amplitude_0.2167_rep_5_t_D_2.0.png	 D	 t	 t	 n.a.	 3.624665e-01
7	 4	 335	 flanked	 rf	 2	 0.216700	 2.000000	 flanked_rf_freq_2_amplitude_0.2167_rep_3_r_N_2.0.png	 N	 r	 t	 n.a.	 4.386373e-01
7	 4	 336	 flanked	 rf	 3	 0.061700	 2.000000	 flanked_rf_freq_3_amplitude_0.0617_rep_5_b_N_2.0.png	 N	 b	 r	 n.a.	 4.253460e-01
7	 4	 337	 flanked	 rf	 8	 0.007500	 2.000000	 flanked_rf_freq_8_amplitude_0.0075_rep_3_r_K_2.0.png	 K	 r	 l	 n.a.	 4.812847e-01
7	 4	 338	 flanked	 rf	 12	 0.165000	 2.000000	 flanked_rf_freq_12_amplitude_0.165_rep_5_l_K_2.0.png	 K	 l	 l	 n.a.	 3.676293e-01
7	 4	 339	 flanked	 rf	 8	 0.268300	 2.000000	 flanked_rf_freq_8_amplitude_0.2683_rep_8_b_H_2.0.png	 H	 b	 b	 n.a.	 3.564034e-01
7	 4	 340	 flanked	 rf	 4	 0.216700	 2.000000	 flanked_rf_freq_4_amplitude_0.2167_rep_7_b_K_2.0.png	 K	 b	 b	 n.a.	 4.299885e-01
7	 4	 341	 flanked	 rf	 3	 0.216700	 2.000000	 flanked_rf_freq_3_amplitude_0.2167_rep_2_r_D_2.0.png	 D	 r	 r	 n.a.	 3.744529e-01
7	 4	 342	 flanked	 rf	 4	 0.268300	 2.000000	 flanked_rf_freq_4_amplitude_0.2683_rep_9_b_D_2.0.png	 D	 b	 b	 n.a.	 4.472389e-01
7	 4	 343	 flanked	 rf	 12	 0.268300	 2.000000	 flanked_rf_freq_12_amplitude_0.2683_rep_0_t_N_2.0.png	 N	 t	 t	 n.a.	 3.673532e-01
7	 4	 344	 flanked	 rf	 5	 0.113300	 2.000000	 flanked_rf_freq_5_amplitude_0.1133_rep_7_r_D_2.0.png	 D	 r	 r	 n.a.	 5.339949e-01
7	 4	 345	 flanked	 rf	 5	 0.165000	 2.000000	 flanked_rf_freq_5_amplitude_0.165_rep_9_b_H_2.0.png	 H	 b	 b	 n.a.	 4.332000e-01
7	 4	 346	 flanked	 rf	 8	 0.268300	 2.000000	 flanked_rf_freq_8_amplitude_0.2683_rep_2_l_N_2.0.png	 N	 l	 l	 n.a.	 3.278748e-01
7	 4	 347	 flanked	 rf	 5	 0.165000	 2.000000	 flanked_rf_freq_5_amplitude_0.165_rep_1_r_N_2.0.png	 N	 r	 b	 n.a.	 5.272506e-01
7	 4	 348	 flanked	 rf	 2	 0.007500	 2.000000	 flanked_rf_freq_2_amplitude_0.0075_rep_5_b_D_2.0.png	 D	 b	 t	 n.a.	 7.390145e-01
7	 4	 349	 flanked	 rf	 4	 0.007500	 2.000000	 flanked_rf_freq_4_amplitude_0.0075_rep_2_l_N_2.0.png	 N	 l	 b	 n.a.	 3.862084e-01
7	 4	 350	 flanked	 rf	 3	 0.113300	 2.000000	 flanked_rf_freq_3_amplitude_0.1133_rep_6_t_N_2.0.png	 N	 t	 l	 n.a.	 4.317943e-01
7	 4	 351	 flanked	 rf	 12	 0.007500	 2.000000	 flanked_rf_freq_12_amplitude_0.0075_rep_6_b_H_2.0.png	 H	 b	 b	 n.a.	 5.100393e-01
7	 4	 352	 flanked	 rf	 5	 0.010000	 2.000000	 flanked_rf_freq_5_amplitude_0.01_rep_0_l_H_2.0.png	 H	 l	 b	 n.a.	 5.006288e-01
7	 4	 353	 flanked	 rf	 12	 0.007500	 2.000000	 flanked_rf_freq_12_amplitude_0.0075_rep_5_l_D_2.0.png	 D	 l	 t	 n.a.	 4.443026e-01
7	 4	 354	 flanked	 rf	 2	 0.113300	 2.000000	 flanked_rf_freq_2_amplitude_0.1133_rep_9_l_H_2.0.png	 H	 l	 r	 n.a.	 7.128021e-01
7	 4	 355	 flanked	 rf	 5	 0.216700	 2.000000	 flanked_rf_freq_5_amplitude_0.2167_rep_2_r_K_2.0.png	 K	 r	 r	 n.a.	 2.988874e-01
7	 4	 356	 flanked	 rf	 8	 0.010000	 2.000000	 flanked_rf_freq_8_amplitude_0.01_rep_2_b_D_2.0.png	 D	 b	 t	 n.a.	 5.743856e-01
7	 4	 357	 flanked	 rf	 5	 0.010000	 2.000000	 flanked_rf_freq_5_amplitude_0.01_rep_6_t_H_2.0.png	 H	 t	 t	 n.a.	 9.537384e-01
7	 4	 358	 flanked	 rf	 4	 0.268300	 2.000000	 flanked_rf_freq_4_amplitude_0.2683_rep_4_b_H_2.0.png	 H	 b	 b	 n.a.	 3.799389e-01
7	 4	 359	 flanked	 rf	 2	 0.061700	 2.000000	 flanked_rf_freq_2_amplitude_0.0617_rep_0_t_N_2.0.png	 N	 t	 l	 n.a.	 4.435435e-01
7	 4	 360	 flanked	 rf	 8	 0.010000	 2.000000	 flanked_rf_freq_8_amplitude_0.01_rep_6_l_N_2.0.png	 N	 l	 r	 n.a.	 4.743189e-01
7	 4	 361	 flanked	 rf	 4	 0.216700	 2.000000	 flanked_rf_freq_4_amplitude_0.2167_rep_2_t_N_2.0.png	 N	 t	 b	 n.a.	 4.501230e-01
7	 4	 362	 flanked	 rf	 12	 0.061700	 2.000000	 flanked_rf_freq_12_amplitude_0.0617_rep_2_b_D_2.0.png	 D	 b	 t	 n.a.	 4.235387e-01
7	 4	 363	 flanked	 rf	 3	 0.007500	 2.000000	 flanked_rf_freq_3_amplitude_0.0075_rep_5_b_H_2.0.png	 H	 b	 b	 n.a.	 4.164955e-01
7	 4	 364	 flanked	 rf	 5	 0.113300	 2.000000	 flanked_rf_freq_5_amplitude_0.1133_rep_8_l_D_2.0.png	 D	 l	 l	 n.a.	 3.482301e-01
7	 4	 365	 flanked	 rf	 2	 0.010000	 2.000000	 flanked_rf_freq_2_amplitude_0.01_rep_9_b_K_2.0.png	 K	 b	 b	 n.a.	 5.447647e-01
7	 4	 366	 flanked	 rf	 5	 0.113300	 2.000000	 flanked_rf_freq_5_amplitude_0.1133_rep_3_l_H_2.0.png	 H	 l	 r	 n.a.	 5.567607e-01
7	 4	 367	 flanked	 rf	 3	 0.007500	 2.000000	 flanked_rf_freq_3_amplitude_0.0075_rep_0_t_K_2.0.png	 K	 t	 b	 n.a.	 4.861825e-01
7	 4	 368	 flanked	 rf	 3	 0.165000	 2.000000	 flanked_rf_freq_3_amplitude_0.165_rep_7_r_K_2.0.png	 K	 r	 r	 n.a.	 3.107376e-01
7	 4	 369	 flanked	 rf	 4	 0.113300	 2.000000	 flanked_rf_freq_4_amplitude_0.1133_rep_9_r_H_2.0.png	 H	 r	 r	 n.a.	 3.994326e-01
7	 4	 370	 flanked	 rf	 5	 0.216700	 2.000000	 flanked_rf_freq_5_amplitude_0.2167_rep_1_t_H_2.0.png	 H	 t	 b	 n.a.	 5.371912e-01
7	 4	 371	 flanked	 rf	 3	 0.268300	 2.000000	 flanked_rf_freq_3_amplitude_0.2683_rep_1_r_N_2.0.png	 N	 r	 r	 n.a.	 3.996684e-01
7	 4	 372	 flanked	 rf	 4	 0.010000	 2.000000	 flanked_rf_freq_4_amplitude_0.01_rep_9_r_H_2.0.png	 H	 r	 b	 n.a.	 3.856885e-01
7	 4	 373	 flanked	 rf	 5	 0.268300	 2.000000	 flanked_rf_freq_5_amplitude_0.2683_rep_3_l_K_2.0.png	 K	 l	 l	 n.a.	 3.863725e-01
7	 4	 374	 flanked	 rf	 5	 0.061700	 2.000000	 flanked_rf_freq_5_amplitude_0.0617_rep_0_b_H_2.0.png	 H	 b	 b	 n.a.	 5.145411e-01
7	 4	 375	 flanked	 rf	 2	 0.113300	 2.000000	 flanked_rf_freq_2_amplitude_0.1133_rep_5_b_K_2.0.png	 K	 b	 b	 n.a.	 4.594093e-01
7	 4	 376	 flanked	 rf	 3	 0.061700	 2.000000	 flanked_rf_freq_3_amplitude_0.0617_rep_0_b_D_2.0.png	 D	 b	 r	 n.a.	 5.586255e-01
7	 4	 377	 flanked	 rf	 5	 0.165000	 2.000000	 flanked_rf_freq_5_amplitude_0.165_rep_6_b_N_2.0.png	 N	 b	 b	 n.a.	 4.381761e-01
7	 4	 378	 flanked	 rf	 12	 0.113300	 2.000000	 flanked_rf_freq_12_amplitude_0.1133_rep_1_b_N_2.0.png	 N	 b	 b	 n.a.	 7.808058e-01
7	 4	 379	 flanked	 rf	 8	 0.165000	 2.000000	 flanked_rf_freq_8_amplitude_0.165_rep_7_t_D_2.0.png	 D	 t	 t	 n.a.	 3.770004e-01
7	 4	 380	 flanked	 rf	 2	 0.007500	 2.000000	 flanked_rf_freq_2_amplitude_0.0075_rep_1_b_K_2.0.png	 K	 b	 t	 n.a.	 8.982449e-01
7	 4	 381	 flanked	 rf	 2	 0.268300	 2.000000	 flanked_rf_freq_2_amplitude_0.2683_rep_4_r_N_2.0.png	 N	 r	 r	 n.a.	 3.315769e-01
7	 4	 382	 flanked	 rf	 3	 0.010000	 2.000000	 flanked_rf_freq_3_amplitude_0.01_rep_6_b_H_2.0.png	 H	 b	 t	 n.a.	 4.684225e-01
7	 4	 383	 flanked	 rf	 2	 0.268300	 2.000000	 flanked_rf_freq_2_amplitude_0.2683_rep_8_l_H_2.0.png	 H	 l	 t	 n.a.	 5.039124e-01
7	 4	 384	 flanked	 rf	 2	 0.165000	 2.000000	 flanked_rf_freq_2_amplitude_0.165_rep_1_r_H_2.0.png	 H	 r	 r	 n.a.	 5.990795e-01
7	 4	 385	 flanked	 rf	 8	 0.268300	 2.000000	 flanked_rf_freq_8_amplitude_0.2683_rep_5_b_D_2.0.png	 D	 b	 b	 n.a.	 3.692587e-01
7	 4	 386	 flanked	 rf	 4	 0.010000	 2.000000	 flanked_rf_freq_4_amplitude_0.01_rep_4_t_D_2.0.png	 D	 t	 l	 n.a.	 7.116123e-01
7	 4	 387	 flanked	 rf	 12	 0.113300	 2.000000	 flanked_rf_freq_12_amplitude_0.1133_rep_9_b_K_2.0.png	 K	 b	 b	 n.a.	 3.903883e-01
7	 4	 388	 flanked	 rf	 3	 0.010000	 2.000000	 flanked_rf_freq_3_amplitude_0.01_rep_7_t_H_2.0.png	 H	 t	 t	 n.a.	 4.675733e-01
7	 4	 389	 flanked	 rf	 4	 0.268300	 2.000000	 flanked_rf_freq_4_amplitude_0.2683_rep_1_l_D_2.0.png	 D	 l	 t	 n.a.	 7.242342e-01
7	 4	 390	 flanked	 rf	 2	 0.216700	 2.000000	 flanked_rf_freq_2_amplitude_0.2167_rep_6_l_K_2.0.png	 K	 l	 t	 n.a.	 3.998177e-01
7	 4	 391	 flanked	 rf	 5	 0.010000	 2.000000	 flanked_rf_freq_5_amplitude_0.01_rep_5_r_D_2.0.png	 D	 r	 b	 n.a.	 6.283621e-01
7	 4	 392	 flanked	 rf	 5	 0.007500	 2.000000	 flanked_rf_freq_5_amplitude_0.0075_rep_8_t_N_2.0.png	 N	 t	 l	 n.a.	 6.845752e-01
7	 4	 393	 flanked	 rf	 5	 0.216700	 2.000000	 flanked_rf_freq_5_amplitude_0.2167_rep_0_t_K_2.0.png	 K	 t	 t	 n.a.	 2.996494e-01
7	 4	 394	 flanked	 rf	 2	 0.061700	 2.000000	 flanked_rf_freq_2_amplitude_0.0617_rep_3_b_N_2.0.png	 N	 b	 r	 n.a.	 5.107949e-01
7	 4	 395	 flanked	 rf	 4	 0.010000	 2.000000	 flanked_rf_freq_4_amplitude_0.01_rep_1_r_H_2.0.png	 H	 r	 r	 n.a.	 6.821333e-01
7	 4	 396	 flanked	 rf	 4	 0.010000	 2.000000	 flanked_rf_freq_4_amplitude_0.01_rep_7_l_K_2.0.png	 K	 l	 l	 n.a.	 5.004504e-01
7	 4	 397	 flanked	 rf	 4	 0.268300	 2.000000	 flanked_rf_freq_4_amplitude_0.2683_rep_8_b_K_2.0.png	 K	 b	 b	 n.a.	 4.317474e-01
7	 4	 398	 flanked	 rf	 12	 0.007500	 2.000000	 flanked_rf_freq_12_amplitude_0.0075_rep_9_t_K_2.0.png	 K	 t	 t	 n.a.	 3.955881e-01
7	 4	 399	 flanked	 rf	 8	 0.007500	 2.000000	 flanked_rf_freq_8_amplitude_0.0075_rep_7_b_H_2.0.png	 H	 b	 b	 n.a.	 4.227971e-01
7	 4	 400	 flanked	 rf	 8	 0.061700	 2.000000	 flanked_rf_freq_8_amplitude_0.0617_rep_7_r_K_2.0.png	 K	 r	 r	 n.a.	 3.916101e-01
7	 4	 401	 flanked	 rf	 2	 0.165000	 2.000000	 flanked_rf_freq_2_amplitude_0.165_rep_2_b_D_2.0.png	 D	 b	 r	 n.a.	 5.129105e-01
7	 4	 402	 flanked	 rf	 3	 0.216700	 2.000000	 flanked_rf_freq_3_amplitude_0.2167_rep_9_b_D_2.0.png	 D	 b	 b	 n.a.	 5.799446e-01
7	 4	 403	 flanked	 rf	 4	 0.165000	 2.000000	 flanked_rf_freq_4_amplitude_0.165_rep_0_t_N_2.0.png	 N	 t	 t	 n.a.	 4.583682e-01
7	 4	 404	 flanked	 rf	 3	 0.113300	 2.000000	 flanked_rf_freq_3_amplitude_0.1133_rep_8_r_N_2.0.png	 N	 r	 r	 n.a.	 4.504695e-01
7	 4	 405	 flanked	 rf	 4	 0.113300	 2.000000	 flanked_rf_freq_4_amplitude_0.1133_rep_3_r_K_2.0.png	 K	 r	 r	 n.a.	 4.903356e-01
7	 4	 406	 flanked	 rf	 2	 0.061700	 2.000000	 flanked_rf_freq_2_amplitude_0.0617_rep_2_t_K_2.0.png	 K	 t	 b	 n.a.	 4.664735e-01
7	 4	 407	 flanked	 rf	 4	 0.010000	 2.000000	 flanked_rf_freq_4_amplitude_0.01_rep_5_l_H_2.0.png	 H	 l	 t	 n.a.	 3.467590e-01
7	 4	 408	 flanked	 rf	 5	 0.061700	 2.000000	 flanked_rf_freq_5_amplitude_0.0617_rep_8_r_D_2.0.png	 D	 r	 r	 n.a.	 4.422425e-01
7	 4	 409	 flanked	 rf	 5	 0.216700	 2.000000	 flanked_rf_freq_5_amplitude_0.2167_rep_9_b_D_2.0.png	 D	 b	 b	 n.a.	 3.921235e-01
7	 4	 410	 flanked	 rf	 2	 0.165000	 2.000000	 flanked_rf_freq_2_amplitude_0.165_rep_4_r_N_2.0.png	 N	 r	 l	 n.a.	 8.597845e-01
7	 4	 411	 flanked	 rf	 3	 0.216700	 2.000000	 flanked_rf_freq_3_amplitude_0.2167_rep_7_l_H_2.0.png	 H	 l	 l	 n.a.	 5.313209e-01
7	 4	 412	 flanked	 rf	 2	 0.061700	 2.000000	 flanked_rf_freq_2_amplitude_0.0617_rep_4_r_H_2.0.png	 H	 r	 r	 n.a.	 3.795375e-01
7	 4	 413	 flanked	 rf	 5	 0.165000	 2.000000	 flanked_rf_freq_5_amplitude_0.165_rep_7_b_N_2.0.png	 N	 b	 b	 n.a.	 4.542717e-01
7	 4	 414	 flanked	 rf	 4	 0.165000	 2.000000	 flanked_rf_freq_4_amplitude_0.165_rep_1_l_N_2.0.png	 N	 l	 l	 n.a.	 4.677390e-01
7	 4	 415	 flanked	 rf	 8	 0.010000	 2.000000	 flanked_rf_freq_8_amplitude_0.01_rep_8_t_K_2.0.png	 K	 t	 b	 n.a.	 4.892331e-01
7	 4	 416	 flanked	 rf	 8	 0.165000	 2.000000	 flanked_rf_freq_8_amplitude_0.165_rep_2_t_N_2.0.png	 N	 t	 t	 n.a.	 3.415503e-01
7	 4	 417	 flanked	 rf	 3	 0.113300	 2.000000	 flanked_rf_freq_3_amplitude_0.1133_rep_7_r_D_2.0.png	 D	 r	 r	 n.a.	 6.044426e-01
7	 4	 418	 flanked	 rf	 3	 0.061700	 2.000000	 flanked_rf_freq_3_amplitude_0.0617_rep_3_b_H_2.0.png	 H	 b	 l	 n.a.	 5.814834e-01
7	 4	 419	 flanked	 rf	 2	 0.268300	 2.000000	 flanked_rf_freq_2_amplitude_0.2683_rep_2_b_N_2.0.png	 N	 b	 b	 n.a.	 3.748767e-01
7	 4	 420	 flanked	 rf	 12	 0.268300	 2.000000	 flanked_rf_freq_12_amplitude_0.2683_rep_5_b_K_2.0.png	 K	 b	 b	 n.a.	 3.991910e-01
