subject	 session	 trial	 flanked	 distortion	 freq	 amplitude	 spacing	 im_name	 targ_letter	 targ_pos	 response	 eyemovement	 RT
8	 3	 1	 unflanked	 bex	 4	 3.000000	 0.000000	 unflanked_bex_freq_4_amplitude_3_rep_7_t_D.png	 D	 t	 t	 n.a.	 5.268688e-01
8	 3	 2	 unflanked	 bex	 4	 0.250000	 0.000000	 unflanked_bex_freq_4_amplitude_0.25_rep_2_r_N.png	 N	 r	 l	 n.a.	 6.132183e-01
8	 3	 3	 unflanked	 bex	 32	 2.000000	 0.000000	 unflanked_bex_freq_32_amplitude_2_rep_1_r_K.png	 K	 r	 b	 n.a.	 5.331407e-01
8	 3	 4	 unflanked	 bex	 4	 0.250000	 0.000000	 unflanked_bex_freq_4_amplitude_0.25_rep_0_b_N.png	 N	 b	 r	 n.a.	 4.959504e-01
8	 3	 5	 unflanked	 bex	 2	 0.500000	 0.000000	 unflanked_bex_freq_2_amplitude_0.5_rep_8_t_D.png	 D	 t	 b	 n.a.	 4.985616e-01
8	 3	 6	 unflanked	 bex	 4	 1.000000	 0.000000	 unflanked_bex_freq_4_amplitude_1_rep_4_b_N.png	 N	 b	 l	 n.a.	 4.065865e-01
8	 3	 7	 unflanked	 bex	 32	 2.000000	 0.000000	 unflanked_bex_freq_32_amplitude_2_rep_6_r_K.png	 K	 r	 l	 n.a.	 5.029870e-01
8	 3	 8	 unflanked	 bex	 32	 1.500000	 0.000000	 unflanked_bex_freq_32_amplitude_1.5_rep_8_l_H.png	 H	 l	 l	 n.a.	 5.777579e-01
8	 3	 9	 unflanked	 bex	 6	 1.000000	 0.000000	 unflanked_bex_freq_6_amplitude_1_rep_0_r_H.png	 H	 r	 r	 n.a.	 2.934546e-01
8	 3	 10	 unflanked	 bex	 6	 2.500000	 0.000000	 unflanked_bex_freq_6_amplitude_2.5_rep_8_r_N.png	 N	 r	 r	 n.a.	 5.039282e-01
8	 3	 11	 unflanked	 bex	 16	 3.000000	 0.000000	 unflanked_bex_freq_16_amplitude_3_rep_7_l_H.png	 H	 l	 l	 n.a.	 2.964481e-01
8	 3	 12	 unflanked	 bex	 2	 0.250000	 0.000000	 unflanked_bex_freq_2_amplitude_0.25_rep_6_l_H.png	 H	 l	 r	 n.a.	 3.626002e-01
8	 3	 13	 unflanked	 bex	 6	 1.000000	 0.000000	 unflanked_bex_freq_6_amplitude_1_rep_6_r_N.png	 N	 r	 t	 n.a.	 3.790255e-01
8	 3	 14	 unflanked	 bex	 4	 0.500000	 0.000000	 unflanked_bex_freq_4_amplitude_0.5_rep_9_r_K.png	 K	 r	 l	 n.a.	 2.768510e-01
8	 3	 15	 unflanked	 bex	 32	 2.000000	 0.000000	 unflanked_bex_freq_32_amplitude_2_rep_2_t_H.png	 H	 t	 t	 n.a.	 4.457385e-01
8	 3	 16	 unflanked	 bex	 8	 3.000000	 0.000000	 unflanked_bex_freq_8_amplitude_3_rep_8_l_H.png	 H	 l	 l	 n.a.	 2.726235e-01
8	 3	 17	 unflanked	 bex	 4	 2.000000	 0.000000	 unflanked_bex_freq_4_amplitude_2_rep_5_t_H.png	 H	 t	 l	 n.a.	 5.508144e-01
8	 3	 18	 unflanked	 bex	 16	 1.500000	 0.000000	 unflanked_bex_freq_16_amplitude_1.5_rep_4_l_D.png	 D	 l	 l	 n.a.	 2.498286e-01
8	 3	 19	 unflanked	 bex	 4	 2.500000	 0.000000	 unflanked_bex_freq_4_amplitude_2.5_rep_4_b_D.png	 D	 b	 b	 n.a.	 3.751111e-01
8	 3	 20	 unflanked	 bex	 32	 2.500000	 0.000000	 unflanked_bex_freq_32_amplitude_2.5_rep_2_t_N.png	 N	 t	 t	 n.a.	 5.879117e-01
8	 3	 21	 unflanked	 bex	 32	 2.500000	 0.000000	 unflanked_bex_freq_32_amplitude_2.5_rep_3_b_N.png	 N	 b	 l	 n.a.	 3.189431e-01
8	 3	 22	 unflanked	 bex	 16	 2.500000	 0.000000	 unflanked_bex_freq_16_amplitude_2.5_rep_8_t_K.png	 K	 t	 r	 n.a.	 4.617208e-01
8	 3	 23	 unflanked	 bex	 8	 3.000000	 0.000000	 unflanked_bex_freq_8_amplitude_3_rep_9_b_N.png	 N	 b	 b	 n.a.	 2.915553e-01
8	 3	 24	 unflanked	 bex	 2	 0.250000	 0.000000	 unflanked_bex_freq_2_amplitude_0.25_rep_3_l_H.png	 H	 l	 l	 n.a.	 3.285907e-01
8	 3	 25	 unflanked	 bex	 2	 0.250000	 0.000000	 unflanked_bex_freq_2_amplitude_0.25_rep_4_r_N.png	 N	 r	 t	 n.a.	 4.772083e-01
8	 3	 26	 unflanked	 bex	 6	 1.500000	 0.000000	 unflanked_bex_freq_6_amplitude_1.5_rep_0_t_D.png	 D	 t	 b	 n.a.	 3.463502e-01
8	 3	 27	 unflanked	 bex	 6	 2.000000	 0.000000	 unflanked_bex_freq_6_amplitude_2_rep_0_r_H.png	 H	 r	 r	 n.a.	 2.586420e-01
8	 3	 28	 unflanked	 bex	 8	 1.000000	 0.000000	 unflanked_bex_freq_8_amplitude_1_rep_3_r_N.png	 N	 r	 l	 n.a.	 3.751488e-01
8	 3	 29	 unflanked	 bex	 8	 2.000000	 0.000000	 unflanked_bex_freq_8_amplitude_2_rep_9_r_N.png	 N	 r	 r	 n.a.	 2.180665e-01
8	 3	 30	 unflanked	 bex	 6	 3.000000	 0.000000	 unflanked_bex_freq_6_amplitude_3_rep_4_l_N.png	 N	 l	 l	 n.a.	 2.406902e-01
8	 3	 31	 unflanked	 bex	 4	 0.500000	 0.000000	 unflanked_bex_freq_4_amplitude_0.5_rep_6_b_H.png	 H	 b	 b	 n.a.	 4.522593e-01
8	 3	 32	 unflanked	 bex	 32	 1.500000	 0.000000	 unflanked_bex_freq_32_amplitude_1.5_rep_4_t_D.png	 D	 t	 l	 n.a.	 4.248844e-01
8	 3	 33	 unflanked	 bex	 16	 1.000000	 0.000000	 unflanked_bex_freq_16_amplitude_1_rep_8_t_H.png	 H	 t	 b	 n.a.	 3.773857e-01
8	 3	 34	 unflanked	 bex	 2	 3.000000	 0.000000	 unflanked_bex_freq_2_amplitude_3_rep_8_t_K.png	 K	 t	 l	 n.a.	 3.530970e-01
8	 3	 35	 unflanked	 bex	 16	 0.500000	 0.000000	 unflanked_bex_freq_16_amplitude_0.5_rep_1_r_H.png	 H	 r	 b	 n.a.	 3.516993e-01
8	 3	 36	 unflanked	 bex	 2	 1.000000	 0.000000	 unflanked_bex_freq_2_amplitude_1_rep_9_t_N.png	 N	 t	 r	 n.a.	 5.465375e-01
8	 3	 37	 unflanked	 bex	 2	 2.500000	 0.000000	 unflanked_bex_freq_2_amplitude_2.5_rep_8_b_N.png	 N	 b	 b	 n.a.	 3.495480e-01
8	 3	 38	 unflanked	 bex	 8	 2.000000	 0.000000	 unflanked_bex_freq_8_amplitude_2_rep_5_b_N.png	 N	 b	 t	 n.a.	 5.638480e-01
8	 3	 39	 unflanked	 bex	 8	 1.000000	 0.000000	 unflanked_bex_freq_8_amplitude_1_rep_0_b_N.png	 N	 b	 t	 n.a.	 5.543560e-01
8	 3	 40	 unflanked	 bex	 8	 0.250000	 0.000000	 unflanked_bex_freq_8_amplitude_0.25_rep_9_t_D.png	 D	 t	 b	 n.a.	 3.998528e-01
8	 3	 41	 unflanked	 bex	 32	 2.500000	 0.000000	 unflanked_bex_freq_32_amplitude_2.5_rep_4_r_N.png	 N	 r	 r	 n.a.	 4.140142e-01
8	 3	 42	 unflanked	 bex	 6	 2.500000	 0.000000	 unflanked_bex_freq_6_amplitude_2.5_rep_6_b_D.png	 D	 b	 b	 n.a.	 3.158595e-01
8	 3	 43	 unflanked	 bex	 6	 0.500000	 0.000000	 unflanked_bex_freq_6_amplitude_0.5_rep_3_b_D.png	 D	 b	 r	 n.a.	 4.386657e-01
8	 3	 44	 unflanked	 bex	 32	 1.500000	 0.000000	 unflanked_bex_freq_32_amplitude_1.5_rep_6_l_D.png	 D	 l	 l	 n.a.	 3.159212e-01
8	 3	 45	 unflanked	 bex	 2	 0.500000	 0.000000	 unflanked_bex_freq_2_amplitude_0.5_rep_2_t_D.png	 D	 t	 r	 n.a.	 5.221673e-01
8	 3	 46	 unflanked	 bex	 2	 1.000000	 0.000000	 unflanked_bex_freq_2_amplitude_1_rep_5_l_D.png	 D	 l	 l	 n.a.	 3.764326e-01
8	 3	 47	 unflanked	 bex	 2	 0.500000	 0.000000	 unflanked_bex_freq_2_amplitude_0.5_rep_4_r_K.png	 K	 r	 b	 n.a.	 4.156864e-01
8	 3	 48	 unflanked	 bex	 8	 1.500000	 0.000000	 unflanked_bex_freq_8_amplitude_1.5_rep_4_r_N.png	 N	 r	 r	 n.a.	 4.556668e-01
8	 3	 49	 unflanked	 bex	 8	 1.500000	 0.000000	 unflanked_bex_freq_8_amplitude_1.5_rep_3_l_N.png	 N	 l	 l	 n.a.	 3.333926e-01
8	 3	 50	 unflanked	 bex	 2	 2.000000	 0.000000	 unflanked_bex_freq_2_amplitude_2_rep_8_t_D.png	 D	 t	 t	 n.a.	 4.459765e-01
8	 3	 51	 unflanked	 bex	 16	 2.500000	 0.000000	 unflanked_bex_freq_16_amplitude_2.5_rep_7_b_K.png	 K	 b	 b	 n.a.	 4.427761e-01
8	 3	 52	 unflanked	 bex	 6	 1.500000	 0.000000	 unflanked_bex_freq_6_amplitude_1.5_rep_9_r_K.png	 K	 r	 r	 n.a.	 3.799390e-01
8	 3	 53	 unflanked	 bex	 2	 3.000000	 0.000000	 unflanked_bex_freq_2_amplitude_3_rep_3_r_N.png	 N	 r	 r	 n.a.	 2.978005e-01
8	 3	 54	 unflanked	 bex	 2	 0.250000	 0.000000	 unflanked_bex_freq_2_amplitude_0.25_rep_0_l_K.png	 K	 l	 t	 n.a.	 4.798133e-01
8	 3	 55	 unflanked	 bex	 6	 0.500000	 0.000000	 unflanked_bex_freq_6_amplitude_0.5_rep_0_t_N.png	 N	 t	 b	 n.a.	 4.304638e-01
8	 3	 56	 unflanked	 bex	 32	 2.000000	 0.000000	 unflanked_bex_freq_32_amplitude_2_rep_5_b_K.png	 K	 b	 r	 n.a.	 5.426492e-01
8	 3	 57	 unflanked	 bex	 6	 2.500000	 0.000000	 unflanked_bex_freq_6_amplitude_2.5_rep_4_t_K.png	 K	 t	 t	 n.a.	 2.533412e-01
8	 3	 58	 unflanked	 bex	 8	 3.000000	 0.000000	 unflanked_bex_freq_8_amplitude_3_rep_0_b_D.png	 D	 b	 b	 n.a.	 2.602268e-01
8	 3	 59	 unflanked	 bex	 4	 0.250000	 0.000000	 unflanked_bex_freq_4_amplitude_0.25_rep_7_b_N.png	 N	 b	 r	 n.a.	 3.279319e-01
8	 3	 60	 unflanked	 bex	 2	 2.500000	 0.000000	 unflanked_bex_freq_2_amplitude_2.5_rep_6_l_H.png	 H	 l	 l	 n.a.	 2.602274e-01
8	 3	 61	 unflanked	 bex	 4	 0.250000	 0.000000	 unflanked_bex_freq_4_amplitude_0.25_rep_4_l_N.png	 N	 l	 t	 n.a.	 4.168962e-01
8	 3	 62	 unflanked	 bex	 16	 3.000000	 0.000000	 unflanked_bex_freq_16_amplitude_3_rep_9_r_K.png	 K	 r	 r	 n.a.	 1.990302e-01
8	 3	 63	 unflanked	 bex	 2	 0.500000	 0.000000	 unflanked_bex_freq_2_amplitude_0.5_rep_6_l_H.png	 H	 l	 l	 n.a.	 3.854600e-01
8	 3	 64	 unflanked	 bex	 8	 3.000000	 0.000000	 unflanked_bex_freq_8_amplitude_3_rep_4_b_N.png	 N	 b	 b	 n.a.	 2.814873e-01
8	 3	 65	 unflanked	 bex	 6	 0.500000	 0.000000	 unflanked_bex_freq_6_amplitude_0.5_rep_4_t_K.png	 K	 t	 t	 n.a.	 5.146255e-01
8	 3	 66	 unflanked	 bex	 6	 2.500000	 0.000000	 unflanked_bex_freq_6_amplitude_2.5_rep_1_b_H.png	 H	 b	 b	 n.a.	 3.366339e-01
8	 3	 67	 unflanked	 bex	 2	 0.250000	 0.000000	 unflanked_bex_freq_2_amplitude_0.25_rep_5_l_K.png	 K	 l	 t	 n.a.	 4.943497e-01
8	 3	 68	 unflanked	 bex	 4	 2.500000	 0.000000	 unflanked_bex_freq_4_amplitude_2.5_rep_9_l_H.png	 H	 l	 l	 n.a.	 2.201665e-01
8	 3	 69	 unflanked	 bex	 32	 3.000000	 0.000000	 unflanked_bex_freq_32_amplitude_3_rep_9_r_H.png	 H	 r	 r	 n.a.	 3.383233e-01
8	 3	 70	 unflanked	 bex	 32	 0.250000	 0.000000	 unflanked_bex_freq_32_amplitude_0.25_rep_4_r_N.png	 N	 r	 b	 n.a.	 6.281801e-01
8	 3	 71	 unflanked	 bex	 8	 3.000000	 0.000000	 unflanked_bex_freq_8_amplitude_3_rep_3_l_H.png	 H	 l	 l	 n.a.	 3.322368e-01
8	 3	 72	 unflanked	 bex	 2	 1.500000	 0.000000	 unflanked_bex_freq_2_amplitude_1.5_rep_2_r_K.png	 K	 r	 b	 n.a.	 3.726255e-01
8	 3	 73	 unflanked	 bex	 8	 0.250000	 0.000000	 unflanked_bex_freq_8_amplitude_0.25_rep_8_l_H.png	 H	 l	 r	 n.a.	 4.663664e-01
8	 3	 74	 unflanked	 bex	 4	 0.500000	 0.000000	 unflanked_bex_freq_4_amplitude_0.5_rep_8_r_H.png	 H	 r	 t	 n.a.	 4.267134e-01
8	 3	 75	 unflanked	 bex	 4	 0.250000	 0.000000	 unflanked_bex_freq_4_amplitude_0.25_rep_6_t_N.png	 N	 t	 l	 n.a.	 6.172202e-01
8	 3	 76	 unflanked	 bex	 4	 3.000000	 0.000000	 unflanked_bex_freq_4_amplitude_3_rep_4_b_H.png	 H	 b	 b	 n.a.	 2.740901e-01
8	 3	 77	 unflanked	 bex	 32	 0.500000	 0.000000	 unflanked_bex_freq_32_amplitude_0.5_rep_2_r_D.png	 D	 r	 t	 n.a.	 3.414430e-01
8	 3	 78	 unflanked	 bex	 4	 2.000000	 0.000000	 unflanked_bex_freq_4_amplitude_2_rep_8_b_K.png	 K	 b	 b	 n.a.	 7.129254e-01
8	 3	 79	 unflanked	 bex	 32	 1.500000	 0.000000	 unflanked_bex_freq_32_amplitude_1.5_rep_5_t_H.png	 H	 t	 t	 n.a.	 4.957270e-01
8	 3	 80	 unflanked	 bex	 16	 1.500000	 0.000000	 unflanked_bex_freq_16_amplitude_1.5_rep_8_r_D.png	 D	 r	 r	 n.a.	 3.513768e-01
8	 3	 81	 unflanked	 bex	 6	 2.000000	 0.000000	 unflanked_bex_freq_6_amplitude_2_rep_5_l_N.png	 N	 l	 l	 n.a.	 3.713790e-01
8	 3	 82	 unflanked	 bex	 16	 0.500000	 0.000000	 unflanked_bex_freq_16_amplitude_0.5_rep_8_l_D.png	 D	 l	 r	 n.a.	 5.696321e-01
8	 3	 83	 unflanked	 bex	 4	 2.500000	 0.000000	 unflanked_bex_freq_4_amplitude_2.5_rep_0_b_K.png	 K	 b	 b	 n.a.	 4.277555e-01
8	 3	 84	 unflanked	 bex	 4	 3.000000	 0.000000	 unflanked_bex_freq_4_amplitude_3_rep_6_b_N.png	 N	 b	 l	 n.a.	 4.749071e-01
8	 3	 85	 unflanked	 bex	 4	 0.250000	 0.000000	 unflanked_bex_freq_4_amplitude_0.25_rep_3_l_D.png	 D	 l	 b	 n.a.	 4.429694e-01
8	 3	 86	 unflanked	 bex	 8	 2.500000	 0.000000	 unflanked_bex_freq_8_amplitude_2.5_rep_3_t_H.png	 H	 t	 t	 n.a.	 3.383670e-01
8	 3	 87	 unflanked	 bex	 6	 2.000000	 0.000000	 unflanked_bex_freq_6_amplitude_2_rep_6_l_N.png	 N	 l	 l	 n.a.	 3.236625e-01
8	 3	 88	 unflanked	 bex	 16	 1.500000	 0.000000	 unflanked_bex_freq_16_amplitude_1.5_rep_1_b_H.png	 H	 b	 b	 n.a.	 3.979765e-01
8	 3	 89	 unflanked	 bex	 32	 0.250000	 0.000000	 unflanked_bex_freq_32_amplitude_0.25_rep_7_l_H.png	 H	 l	 b	 n.a.	 4.855580e-01
8	 3	 90	 unflanked	 bex	 16	 1.000000	 0.000000	 unflanked_bex_freq_16_amplitude_1_rep_0_r_N.png	 N	 r	 t	 n.a.	 4.059292e-01
8	 3	 91	 unflanked	 bex	 6	 0.500000	 0.000000	 unflanked_bex_freq_6_amplitude_0.5_rep_5_t_N.png	 N	 t	 l	 n.a.	 3.297809e-01
8	 3	 92	 unflanked	 bex	 32	 0.250000	 0.000000	 unflanked_bex_freq_32_amplitude_0.25_rep_6_t_D.png	 D	 t	 r	 n.a.	 3.063964e-01
8	 3	 93	 unflanked	 bex	 8	 2.500000	 0.000000	 unflanked_bex_freq_8_amplitude_2.5_rep_8_r_K.png	 K	 r	 r	 n.a.	 1.937956e-01
8	 3	 94	 unflanked	 bex	 32	 2.000000	 0.000000	 unflanked_bex_freq_32_amplitude_2_rep_3_l_N.png	 N	 l	 r	 n.a.	 5.968367e-01
8	 3	 95	 unflanked	 bex	 4	 1.000000	 0.000000	 unflanked_bex_freq_4_amplitude_1_rep_9_t_K.png	 K	 t	 b	 n.a.	 5.143569e-01
8	 3	 96	 unflanked	 bex	 32	 3.000000	 0.000000	 unflanked_bex_freq_32_amplitude_3_rep_1_l_K.png	 K	 l	 l	 n.a.	 3.373379e-01
8	 3	 97	 unflanked	 bex	 4	 0.250000	 0.000000	 unflanked_bex_freq_4_amplitude_0.25_rep_1_b_K.png	 K	 b	 t	 n.a.	 4.571159e-01
8	 3	 98	 unflanked	 bex	 4	 0.500000	 0.000000	 unflanked_bex_freq_4_amplitude_0.5_rep_1_t_N.png	 N	 t	 r	 n.a.	 3.483845e-01
8	 3	 99	 unflanked	 bex	 6	 3.000000	 0.000000	 unflanked_bex_freq_6_amplitude_3_rep_7_l_H.png	 H	 l	 l	 n.a.	 2.191810e-01
8	 3	 100	 unflanked	 bex	 32	 3.000000	 0.000000	 unflanked_bex_freq_32_amplitude_3_rep_2_l_N.png	 N	 l	 l	 n.a.	 3.745421e-01
8	 3	 101	 unflanked	 bex	 4	 1.500000	 0.000000	 unflanked_bex_freq_4_amplitude_1.5_rep_1_b_D.png	 D	 b	 b	 n.a.	 3.242595e-01
8	 3	 102	 unflanked	 bex	 8	 0.500000	 0.000000	 unflanked_bex_freq_8_amplitude_0.5_rep_5_b_N.png	 N	 b	 t	 n.a.	 5.420601e-01
8	 3	 103	 unflanked	 bex	 16	 2.000000	 0.000000	 unflanked_bex_freq_16_amplitude_2_rep_8_b_D.png	 D	 b	 t	 n.a.	 5.421312e-01
8	 3	 104	 unflanked	 bex	 6	 3.000000	 0.000000	 unflanked_bex_freq_6_amplitude_3_rep_1_t_H.png	 H	 t	 t	 n.a.	 2.925202e-01
8	 3	 105	 unflanked	 bex	 8	 0.250000	 0.000000	 unflanked_bex_freq_8_amplitude_0.25_rep_4_b_H.png	 H	 b	 l	 n.a.	 3.639769e-01
8	 3	 106	 unflanked	 bex	 2	 2.000000	 0.000000	 unflanked_bex_freq_2_amplitude_2_rep_4_l_N.png	 N	 l	 r	 n.a.	 4.151164e-01
8	 3	 107	 unflanked	 bex	 32	 2.500000	 0.000000	 unflanked_bex_freq_32_amplitude_2.5_rep_6_b_H.png	 H	 b	 b	 n.a.	 2.566156e-01
8	 3	 108	 unflanked	 bex	 4	 2.500000	 0.000000	 unflanked_bex_freq_4_amplitude_2.5_rep_7_t_K.png	 K	 t	 t	 n.a.	 2.513381e-01
8	 3	 109	 unflanked	 bex	 4	 2.500000	 0.000000	 unflanked_bex_freq_4_amplitude_2.5_rep_8_b_K.png	 K	 b	 b	 n.a.	 3.457391e-01
8	 3	 110	 unflanked	 bex	 2	 3.000000	 0.000000	 unflanked_bex_freq_2_amplitude_3_rep_6_b_D.png	 D	 b	 b	 n.a.	 4.321196e-01
8	 3	 111	 unflanked	 bex	 8	 0.500000	 0.000000	 unflanked_bex_freq_8_amplitude_0.5_rep_0_b_N.png	 N	 b	 t	 n.a.	 5.247957e-01
8	 3	 112	 unflanked	 bex	 8	 2.000000	 0.000000	 unflanked_bex_freq_8_amplitude_2_rep_4_b_H.png	 H	 b	 b	 n.a.	 2.702943e-01
8	 3	 113	 unflanked	 bex	 6	 0.500000	 0.000000	 unflanked_bex_freq_6_amplitude_0.5_rep_9_t_H.png	 H	 t	 t	 n.a.	 3.170824e-01
8	 3	 114	 unflanked	 bex	 32	 0.250000	 0.000000	 unflanked_bex_freq_32_amplitude_0.25_rep_1_r_K.png	 K	 r	 b	 n.a.	 2.883986e-01
8	 3	 115	 unflanked	 bex	 2	 3.000000	 0.000000	 unflanked_bex_freq_2_amplitude_3_rep_0_t_H.png	 H	 t	 t	 n.a.	 3.074115e-01
8	 3	 116	 unflanked	 bex	 2	 2.500000	 0.000000	 unflanked_bex_freq_2_amplitude_2.5_rep_7_t_K.png	 K	 t	 b	 n.a.	 6.157091e-01
8	 3	 117	 unflanked	 bex	 16	 0.500000	 0.000000	 unflanked_bex_freq_16_amplitude_0.5_rep_5_l_K.png	 K	 l	 l	 n.a.	 4.585407e-01
8	 3	 118	 unflanked	 bex	 4	 0.500000	 0.000000	 unflanked_bex_freq_4_amplitude_0.5_rep_5_r_K.png	 K	 r	 l	 n.a.	 6.589121e-01
8	 3	 119	 unflanked	 bex	 4	 0.250000	 0.000000	 unflanked_bex_freq_4_amplitude_0.25_rep_5_t_D.png	 D	 t	 b	 n.a.	 4.992406e-01
8	 3	 120	 unflanked	 bex	 8	 1.500000	 0.000000	 unflanked_bex_freq_8_amplitude_1.5_rep_5_t_K.png	 K	 t	 r	 n.a.	 3.916602e-01
8	 3	 121	 unflanked	 bex	 2	 1.000000	 0.000000	 unflanked_bex_freq_2_amplitude_1_rep_4_b_D.png	 D	 b	 b	 n.a.	 3.923235e-01
8	 3	 122	 unflanked	 bex	 6	 2.500000	 0.000000	 unflanked_bex_freq_6_amplitude_2.5_rep_0_t_K.png	 K	 t	 t	 n.a.	 3.594202e-01
8	 3	 123	 unflanked	 bex	 4	 2.500000	 0.000000	 unflanked_bex_freq_4_amplitude_2.5_rep_6_l_K.png	 K	 l	 l	 n.a.	 2.649899e-01
8	 3	 124	 unflanked	 bex	 32	 0.250000	 0.000000	 unflanked_bex_freq_32_amplitude_0.25_rep_5_t_K.png	 K	 t	 r	 n.a.	 4.245663e-01
8	 3	 125	 unflanked	 bex	 8	 0.250000	 0.000000	 unflanked_bex_freq_8_amplitude_0.25_rep_2_t_D.png	 D	 t	 b	 n.a.	 3.444427e-01
8	 3	 126	 unflanked	 bex	 6	 1.000000	 0.000000	 unflanked_bex_freq_6_amplitude_1_rep_2_b_D.png	 D	 b	 b	 n.a.	 4.049523e-01
8	 3	 127	 unflanked	 bex	 6	 2.000000	 0.000000	 unflanked_bex_freq_6_amplitude_2_rep_2_l_K.png	 K	 l	 l	 n.a.	 2.140209e-01
8	 3	 128	 unflanked	 bex	 8	 2.500000	 0.000000	 unflanked_bex_freq_8_amplitude_2.5_rep_1_t_H.png	 H	 t	 t	 n.a.	 2.328450e-01
8	 3	 129	 unflanked	 bex	 6	 0.250000	 0.000000	 unflanked_bex_freq_6_amplitude_0.25_rep_3_t_D.png	 D	 t	 l	 n.a.	 4.762890e-01
8	 3	 130	 unflanked	 bex	 8	 2.000000	 0.000000	 unflanked_bex_freq_8_amplitude_2_rep_0_r_N.png	 N	 r	 r	 n.a.	 2.146444e-01
8	 3	 131	 unflanked	 bex	 2	 3.000000	 0.000000	 unflanked_bex_freq_2_amplitude_3_rep_1_l_K.png	 K	 l	 t	 n.a.	 2.927456e-01
8	 3	 132	 unflanked	 bex	 2	 2.500000	 0.000000	 unflanked_bex_freq_2_amplitude_2.5_rep_0_r_H.png	 H	 r	 r	 n.a.	 2.111328e-01
8	 3	 133	 unflanked	 bex	 16	 2.500000	 0.000000	 unflanked_bex_freq_16_amplitude_2.5_rep_9_l_D.png	 D	 l	 l	 n.a.	 2.132194e-01
8	 3	 134	 unflanked	 bex	 16	 0.500000	 0.000000	 unflanked_bex_freq_16_amplitude_0.5_rep_4_l_K.png	 K	 l	 r	 n.a.	 4.931253e-01
8	 3	 135	 unflanked	 bex	 32	 1.500000	 0.000000	 unflanked_bex_freq_32_amplitude_1.5_rep_3_l_N.png	 N	 l	 l	 n.a.	 2.432339e-01
8	 3	 136	 unflanked	 bex	 8	 1.500000	 0.000000	 unflanked_bex_freq_8_amplitude_1.5_rep_9_t_H.png	 H	 t	 t	 n.a.	 4.155940e-01
8	 3	 137	 unflanked	 bex	 4	 3.000000	 0.000000	 unflanked_bex_freq_4_amplitude_3_rep_8_l_N.png	 N	 l	 l	 n.a.	 2.669219e-01
8	 3	 138	 unflanked	 bex	 8	 1.500000	 0.000000	 unflanked_bex_freq_8_amplitude_1.5_rep_0_r_K.png	 K	 r	 r	 n.a.	 4.706349e-01
8	 3	 139	 unflanked	 bex	 4	 1.500000	 0.000000	 unflanked_bex_freq_4_amplitude_1.5_rep_6_t_N.png	 N	 t	 t	 n.a.	 6.154927e-01
8	 3	 140	 unflanked	 bex	 8	 2.500000	 0.000000	 unflanked_bex_freq_8_amplitude_2.5_rep_9_b_N.png	 N	 b	 b	 n.a.	 3.318173e-01
8	 3	 141	 unflanked	 bex	 8	 1.000000	 0.000000	 unflanked_bex_freq_8_amplitude_1_rep_1_l_H.png	 H	 l	 b	 n.a.	 4.085539e-01
8	 3	 142	 unflanked	 bex	 4	 2.500000	 0.000000	 unflanked_bex_freq_4_amplitude_2.5_rep_1_r_H.png	 H	 r	 r	 n.a.	 2.176211e-01
8	 3	 143	 unflanked	 bex	 32	 0.250000	 0.000000	 unflanked_bex_freq_32_amplitude_0.25_rep_8_b_K.png	 K	 b	 r	 n.a.	 4.309669e-01
8	 3	 144	 unflanked	 bex	 16	 0.250000	 0.000000	 unflanked_bex_freq_16_amplitude_0.25_rep_8_t_N.png	 N	 t	 b	 n.a.	 4.487231e-01
8	 3	 145	 unflanked	 bex	 4	 2.000000	 0.000000	 unflanked_bex_freq_4_amplitude_2_rep_1_r_D.png	 D	 r	 r	 n.a.	 2.569276e-01
8	 3	 146	 unflanked	 bex	 32	 1.000000	 0.000000	 unflanked_bex_freq_32_amplitude_1_rep_4_r_D.png	 D	 r	 b	 n.a.	 4.623315e-01
8	 3	 147	 unflanked	 bex	 4	 2.000000	 0.000000	 unflanked_bex_freq_4_amplitude_2_rep_9_l_K.png	 K	 l	 l	 n.a.	 2.440362e-01
8	 3	 148	 unflanked	 bex	 6	 2.000000	 0.000000	 unflanked_bex_freq_6_amplitude_2_rep_7_t_N.png	 N	 t	 t	 n.a.	 2.913749e-01
8	 3	 149	 unflanked	 bex	 6	 0.500000	 0.000000	 unflanked_bex_freq_6_amplitude_0.5_rep_2_t_K.png	 K	 t	 r	 n.a.	 4.963650e-01
8	 3	 150	 unflanked	 bex	 32	 3.000000	 0.000000	 unflanked_bex_freq_32_amplitude_3_rep_5_r_N.png	 N	 r	 r	 n.a.	 3.382385e-01
8	 3	 151	 unflanked	 bex	 32	 2.000000	 0.000000	 unflanked_bex_freq_32_amplitude_2_rep_8_b_H.png	 H	 b	 r	 n.a.	 4.647362e-01
8	 3	 152	 unflanked	 bex	 16	 1.000000	 0.000000	 unflanked_bex_freq_16_amplitude_1_rep_7_l_H.png	 H	 l	 l	 n.a.	 6.379584e-01
8	 3	 153	 unflanked	 bex	 4	 3.000000	 0.000000	 unflanked_bex_freq_4_amplitude_3_rep_5_r_K.png	 K	 r	 r	 n.a.	 2.147162e-01
8	 3	 154	 unflanked	 bex	 2	 2.500000	 0.000000	 unflanked_bex_freq_2_amplitude_2.5_rep_5_b_K.png	 K	 b	 b	 n.a.	 3.677848e-01
8	 3	 155	 unflanked	 bex	 16	 0.250000	 0.000000	 unflanked_bex_freq_16_amplitude_0.25_rep_4_l_K.png	 K	 l	 t	 n.a.	 3.696561e-01
8	 3	 156	 unflanked	 bex	 2	 2.000000	 0.000000	 unflanked_bex_freq_2_amplitude_2_rep_3_l_D.png	 D	 l	 l	 n.a.	 3.482366e-01
8	 3	 157	 unflanked	 bex	 32	 0.250000	 0.000000	 unflanked_bex_freq_32_amplitude_0.25_rep_2_l_D.png	 D	 l	 b	 n.a.	 6.202199e-01
8	 3	 158	 unflanked	 bex	 4	 1.500000	 0.000000	 unflanked_bex_freq_4_amplitude_1.5_rep_2_t_H.png	 H	 t	 t	 n.a.	 3.369180e-01
8	 3	 159	 unflanked	 bex	 6	 1.500000	 0.000000	 unflanked_bex_freq_6_amplitude_1.5_rep_7_b_K.png	 K	 b	 b	 n.a.	 4.572451e-01
8	 3	 160	 unflanked	 bex	 6	 2.500000	 0.000000	 unflanked_bex_freq_6_amplitude_2.5_rep_3_b_K.png	 K	 b	 b	 n.a.	 2.905561e-01
8	 3	 161	 unflanked	 bex	 4	 0.500000	 0.000000	 unflanked_bex_freq_4_amplitude_0.5_rep_3_b_H.png	 H	 b	 t	 n.a.	 4.280371e-01
8	 3	 162	 unflanked	 bex	 32	 0.500000	 0.000000	 unflanked_bex_freq_32_amplitude_0.5_rep_7_l_N.png	 N	 l	 r	 n.a.	 3.031636e-01
8	 3	 163	 unflanked	 bex	 32	 1.000000	 0.000000	 unflanked_bex_freq_32_amplitude_1_rep_8_l_H.png	 H	 l	 l	 n.a.	 3.032106e-01
8	 3	 164	 unflanked	 bex	 16	 0.250000	 0.000000	 unflanked_bex_freq_16_amplitude_0.25_rep_2_l_K.png	 K	 l	 r	 n.a.	 2.368848e-01
8	 3	 165	 unflanked	 bex	 2	 2.500000	 0.000000	 unflanked_bex_freq_2_amplitude_2.5_rep_4_l_D.png	 D	 l	 l	 n.a.	 3.021381e-01
8	 3	 166	 unflanked	 bex	 6	 2.000000	 0.000000	 unflanked_bex_freq_6_amplitude_2_rep_9_l_K.png	 K	 l	 l	 n.a.	 2.913956e-01
8	 3	 167	 unflanked	 bex	 6	 1.000000	 0.000000	 unflanked_bex_freq_6_amplitude_1_rep_5_b_N.png	 N	 b	 b	 n.a.	 4.629651e-01
8	 3	 168	 unflanked	 bex	 8	 2.500000	 0.000000	 unflanked_bex_freq_8_amplitude_2.5_rep_5_b_D.png	 D	 b	 b	 n.a.	 3.079279e-01
8	 3	 169	 unflanked	 bex	 2	 3.000000	 0.000000	 unflanked_bex_freq_2_amplitude_3_rep_9_l_H.png	 H	 l	 l	 n.a.	 2.585649e-01
8	 3	 170	 unflanked	 bex	 16	 2.000000	 0.000000	 unflanked_bex_freq_16_amplitude_2_rep_9_r_H.png	 H	 r	 r	 n.a.	 2.124147e-01
8	 3	 171	 unflanked	 bex	 6	 2.500000	 0.000000	 unflanked_bex_freq_6_amplitude_2.5_rep_2_b_K.png	 K	 b	 b	 n.a.	 3.076645e-01
8	 3	 172	 unflanked	 bex	 2	 2.500000	 0.000000	 unflanked_bex_freq_2_amplitude_2.5_rep_1_b_K.png	 K	 b	 b	 n.a.	 4.281065e-01
8	 3	 173	 unflanked	 bex	 4	 1.500000	 0.000000	 unflanked_bex_freq_4_amplitude_1.5_rep_5_r_K.png	 K	 r	 r	 n.a.	 2.376268e-01
8	 3	 174	 unflanked	 bex	 16	 2.000000	 0.000000	 unflanked_bex_freq_16_amplitude_2_rep_5_l_D.png	 D	 l	 l	 n.a.	 2.222468e-01
8	 3	 175	 unflanked	 bex	 2	 2.500000	 0.000000	 unflanked_bex_freq_2_amplitude_2.5_rep_3_b_K.png	 K	 b	 b	 n.a.	 2.514515e-01
8	 3	 176	 unflanked	 bex	 8	 0.500000	 0.000000	 unflanked_bex_freq_8_amplitude_0.5_rep_8_r_K.png	 K	 r	 l	 n.a.	 3.301165e-01
8	 3	 177	 unflanked	 bex	 4	 2.500000	 0.000000	 unflanked_bex_freq_4_amplitude_2.5_rep_2_t_N.png	 N	 t	 l	 n.a.	 3.463766e-01
8	 3	 178	 unflanked	 bex	 32	 0.500000	 0.000000	 unflanked_bex_freq_32_amplitude_0.5_rep_1_b_K.png	 K	 b	 r	 n.a.	 4.209944e-01
8	 3	 179	 unflanked	 bex	 2	 2.000000	 0.000000	 unflanked_bex_freq_2_amplitude_2_rep_7_b_H.png	 H	 b	 t	 n.a.	 3.118858e-01
8	 3	 180	 unflanked	 bex	 32	 0.500000	 0.000000	 unflanked_bex_freq_32_amplitude_0.5_rep_4_b_H.png	 H	 b	 l	 n.a.	 5.911135e-01
8	 3	 181	 unflanked	 bex	 16	 0.500000	 0.000000	 unflanked_bex_freq_16_amplitude_0.5_rep_3_r_K.png	 K	 r	 b	 n.a.	 5.049610e-01
8	 3	 182	 unflanked	 bex	 16	 1.000000	 0.000000	 unflanked_bex_freq_16_amplitude_1_rep_3_r_K.png	 K	 r	 t	 n.a.	 4.418723e-01
8	 3	 183	 unflanked	 bex	 2	 3.000000	 0.000000	 unflanked_bex_freq_2_amplitude_3_rep_2_r_K.png	 K	 r	 r	 n.a.	 3.157038e-01
8	 3	 184	 unflanked	 bex	 32	 1.000000	 0.000000	 unflanked_bex_freq_32_amplitude_1_rep_3_l_H.png	 H	 l	 b	 n.a.	 5.130618e-01
8	 3	 185	 unflanked	 bex	 2	 2.500000	 0.000000	 unflanked_bex_freq_2_amplitude_2.5_rep_9_r_N.png	 N	 r	 r	 n.a.	 3.311833e-01
8	 3	 186	 unflanked	 bex	 4	 1.000000	 0.000000	 unflanked_bex_freq_4_amplitude_1_rep_1_r_H.png	 H	 r	 r	 n.a.	 3.325173e-01
8	 3	 187	 unflanked	 bex	 6	 0.500000	 0.000000	 unflanked_bex_freq_6_amplitude_0.5_rep_7_l_D.png	 D	 l	 l	 n.a.	 4.817942e-01
8	 3	 188	 unflanked	 bex	 16	 3.000000	 0.000000	 unflanked_bex_freq_16_amplitude_3_rep_4_l_N.png	 N	 l	 l	 n.a.	 4.287113e-01
8	 3	 189	 unflanked	 bex	 16	 1.500000	 0.000000	 unflanked_bex_freq_16_amplitude_1.5_rep_2_b_K.png	 K	 b	 l	 n.a.	 6.107246e-01
8	 3	 190	 unflanked	 bex	 6	 2.500000	 0.000000	 unflanked_bex_freq_6_amplitude_2.5_rep_5_t_K.png	 K	 t	 t	 n.a.	 2.624024e-01
8	 3	 191	 unflanked	 bex	 2	 0.250000	 0.000000	 unflanked_bex_freq_2_amplitude_0.25_rep_7_r_H.png	 H	 r	 b	 n.a.	 4.919246e-01
8	 3	 192	 unflanked	 bex	 4	 0.500000	 0.000000	 unflanked_bex_freq_4_amplitude_0.5_rep_7_r_D.png	 D	 r	 r	 n.a.	 4.045386e-01
8	 3	 193	 unflanked	 bex	 32	 2.500000	 0.000000	 unflanked_bex_freq_32_amplitude_2.5_rep_1_l_H.png	 H	 l	 l	 n.a.	 5.033365e-01
8	 3	 194	 unflanked	 bex	 32	 2.500000	 0.000000	 unflanked_bex_freq_32_amplitude_2.5_rep_0_t_K.png	 K	 t	 t	 n.a.	 3.882221e-01
8	 3	 195	 unflanked	 bex	 6	 0.250000	 0.000000	 unflanked_bex_freq_6_amplitude_0.25_rep_2_r_D.png	 D	 r	 r	 n.a.	 5.497094e-01
8	 3	 196	 unflanked	 bex	 2	 1.500000	 0.000000	 unflanked_bex_freq_2_amplitude_1.5_rep_5_l_H.png	 H	 l	 l	 n.a.	 4.086124e-01
8	 3	 197	 unflanked	 bex	 4	 2.000000	 0.000000	 unflanked_bex_freq_4_amplitude_2_rep_3_r_H.png	 H	 r	 r	 n.a.	 2.243127e-01
8	 3	 198	 unflanked	 bex	 8	 2.500000	 0.000000	 unflanked_bex_freq_8_amplitude_2.5_rep_4_l_K.png	 K	 l	 l	 n.a.	 2.279562e-01
8	 3	 199	 unflanked	 bex	 2	 2.000000	 0.000000	 unflanked_bex_freq_2_amplitude_2_rep_9_b_N.png	 N	 b	 b	 n.a.	 4.235423e-01
8	 3	 200	 unflanked	 bex	 6	 3.000000	 0.000000	 unflanked_bex_freq_6_amplitude_3_rep_2_l_H.png	 H	 l	 l	 n.a.	 2.363839e-01
8	 3	 201	 unflanked	 bex	 6	 1.500000	 0.000000	 unflanked_bex_freq_6_amplitude_1.5_rep_1_b_N.png	 N	 b	 b	 n.a.	 2.520649e-01
8	 3	 202	 unflanked	 bex	 16	 0.250000	 0.000000	 unflanked_bex_freq_16_amplitude_0.25_rep_1_l_K.png	 K	 l	 b	 n.a.	 6.173402e-01
8	 3	 203	 unflanked	 bex	 2	 1.500000	 0.000000	 unflanked_bex_freq_2_amplitude_1.5_rep_8_l_K.png	 K	 l	 l	 n.a.	 2.519656e-01
8	 3	 204	 unflanked	 bex	 8	 1.500000	 0.000000	 unflanked_bex_freq_8_amplitude_1.5_rep_1_b_K.png	 K	 b	 b	 n.a.	 3.170896e-01
8	 3	 205	 unflanked	 bex	 32	 2.000000	 0.000000	 unflanked_bex_freq_32_amplitude_2_rep_4_t_H.png	 H	 t	 r	 n.a.	 4.331505e-01
8	 3	 206	 unflanked	 bex	 32	 3.000000	 0.000000	 unflanked_bex_freq_32_amplitude_3_rep_6_l_N.png	 N	 l	 l	 n.a.	 3.195281e-01
8	 3	 207	 unflanked	 bex	 32	 1.500000	 0.000000	 unflanked_bex_freq_32_amplitude_1.5_rep_7_t_H.png	 H	 t	 t	 n.a.	 3.757224e-01
8	 3	 208	 unflanked	 bex	 32	 1.000000	 0.000000	 unflanked_bex_freq_32_amplitude_1_rep_0_t_D.png	 D	 t	 l	 n.a.	 5.288909e-01
8	 3	 209	 unflanked	 bex	 32	 0.500000	 0.000000	 unflanked_bex_freq_32_amplitude_0.5_rep_0_b_H.png	 H	 b	 l	 n.a.	 6.328952e-01
8	 3	 210	 unflanked	 bex	 8	 3.000000	 0.000000	 unflanked_bex_freq_8_amplitude_3_rep_5_b_N.png	 N	 b	 b	 n.a.	 2.793274e-01
8	 3	 211	 unflanked	 bex	 32	 0.250000	 0.000000	 unflanked_bex_freq_32_amplitude_0.25_rep_0_t_N.png	 N	 t	 b	 n.a.	 4.669846e-01
8	 3	 212	 unflanked	 bex	 16	 2.000000	 0.000000	 unflanked_bex_freq_16_amplitude_2_rep_7_t_K.png	 K	 t	 l	 n.a.	 3.579563e-01
8	 3	 213	 unflanked	 bex	 4	 0.500000	 0.000000	 unflanked_bex_freq_4_amplitude_0.5_rep_2_r_D.png	 D	 r	 r	 n.a.	 3.828681e-01
8	 3	 214	 unflanked	 bex	 32	 3.000000	 0.000000	 unflanked_bex_freq_32_amplitude_3_rep_0_t_N.png	 N	 t	 b	 n.a.	 5.598892e-01
8	 3	 215	 unflanked	 bex	 2	 3.000000	 0.000000	 unflanked_bex_freq_2_amplitude_3_rep_4_r_H.png	 H	 r	 r	 n.a.	 2.436739e-01
8	 3	 216	 unflanked	 bex	 6	 3.000000	 0.000000	 unflanked_bex_freq_6_amplitude_3_rep_5_b_K.png	 K	 b	 b	 n.a.	 2.389985e-01
8	 3	 217	 unflanked	 bex	 16	 1.500000	 0.000000	 unflanked_bex_freq_16_amplitude_1.5_rep_9_t_H.png	 H	 t	 t	 n.a.	 3.905367e-01
8	 3	 218	 unflanked	 bex	 16	 1.000000	 0.000000	 unflanked_bex_freq_16_amplitude_1_rep_5_r_D.png	 D	 r	 r	 n.a.	 3.355210e-01
8	 3	 219	 unflanked	 bex	 6	 0.250000	 0.000000	 unflanked_bex_freq_6_amplitude_0.25_rep_4_b_N.png	 N	 b	 r	 n.a.	 3.650024e-01
8	 3	 220	 unflanked	 bex	 6	 0.500000	 0.000000	 unflanked_bex_freq_6_amplitude_0.5_rep_1_r_K.png	 K	 r	 b	 n.a.	 3.696063e-01
8	 3	 221	 unflanked	 bex	 2	 1.000000	 0.000000	 unflanked_bex_freq_2_amplitude_1_rep_3_l_K.png	 K	 l	 r	 n.a.	 2.601684e-01
8	 3	 222	 unflanked	 bex	 8	 0.250000	 0.000000	 unflanked_bex_freq_8_amplitude_0.25_rep_1_l_D.png	 D	 l	 l	 n.a.	 2.047055e-01
8	 3	 223	 unflanked	 bex	 2	 1.000000	 0.000000	 unflanked_bex_freq_2_amplitude_1_rep_6_t_N.png	 N	 t	 r	 n.a.	 3.923427e-01
8	 3	 224	 unflanked	 bex	 8	 1.000000	 0.000000	 unflanked_bex_freq_8_amplitude_1_rep_2_l_K.png	 K	 l	 r	 n.a.	 4.000546e-01
8	 3	 225	 unflanked	 bex	 2	 1.500000	 0.000000	 unflanked_bex_freq_2_amplitude_1.5_rep_1_t_N.png	 N	 t	 t	 n.a.	 3.985520e-01
8	 3	 226	 unflanked	 bex	 2	 0.500000	 0.000000	 unflanked_bex_freq_2_amplitude_0.5_rep_5_t_N.png	 N	 t	 r	 n.a.	 6.105669e-01
8	 3	 227	 unflanked	 bex	 16	 2.000000	 0.000000	 unflanked_bex_freq_16_amplitude_2_rep_0_l_K.png	 K	 l	 l	 n.a.	 2.237951e-01
8	 3	 228	 unflanked	 bex	 2	 0.500000	 0.000000	 unflanked_bex_freq_2_amplitude_0.5_rep_0_l_N.png	 N	 l	 r	 n.a.	 2.838226e-01
8	 3	 229	 unflanked	 bex	 4	 0.500000	 0.000000	 unflanked_bex_freq_4_amplitude_0.5_rep_4_l_K.png	 K	 l	 t	 n.a.	 4.193124e-01
8	 3	 230	 unflanked	 bex	 8	 1.500000	 0.000000	 unflanked_bex_freq_8_amplitude_1.5_rep_6_r_D.png	 D	 r	 r	 n.a.	 2.405391e-01
8	 3	 231	 unflanked	 bex	 8	 1.000000	 0.000000	 unflanked_bex_freq_8_amplitude_1_rep_6_r_H.png	 H	 r	 r	 n.a.	 2.501576e-01
8	 3	 232	 unflanked	 bex	 16	 3.000000	 0.000000	 unflanked_bex_freq_16_amplitude_3_rep_1_r_K.png	 K	 r	 r	 n.a.	 2.297863e-01
8	 3	 233	 unflanked	 bex	 6	 1.000000	 0.000000	 unflanked_bex_freq_6_amplitude_1_rep_1_l_N.png	 N	 l	 l	 n.a.	 2.816448e-01
8	 3	 234	 unflanked	 bex	 16	 0.250000	 0.000000	 unflanked_bex_freq_16_amplitude_0.25_rep_5_b_D.png	 D	 b	 t	 n.a.	 3.206148e-01
8	 3	 235	 unflanked	 bex	 4	 2.000000	 0.000000	 unflanked_bex_freq_4_amplitude_2_rep_6_l_D.png	 D	 l	 l	 n.a.	 2.157728e-01
8	 3	 236	 unflanked	 bex	 2	 2.000000	 0.000000	 unflanked_bex_freq_2_amplitude_2_rep_0_r_N.png	 N	 r	 t	 n.a.	 4.281835e-01
8	 3	 237	 unflanked	 bex	 16	 2.500000	 0.000000	 unflanked_bex_freq_16_amplitude_2.5_rep_5_l_N.png	 N	 l	 l	 n.a.	 2.066729e-01
8	 3	 238	 unflanked	 bex	 32	 3.000000	 0.000000	 unflanked_bex_freq_32_amplitude_3_rep_3_r_H.png	 H	 r	 r	 n.a.	 3.997952e-01
8	 3	 239	 unflanked	 bex	 32	 1.500000	 0.000000	 unflanked_bex_freq_32_amplitude_1.5_rep_2_l_D.png	 D	 l	 l	 n.a.	 4.450304e-01
8	 3	 240	 unflanked	 bex	 16	 3.000000	 0.000000	 unflanked_bex_freq_16_amplitude_3_rep_3_b_N.png	 N	 b	 b	 n.a.	 3.224576e-01
8	 3	 241	 unflanked	 bex	 16	 3.000000	 0.000000	 unflanked_bex_freq_16_amplitude_3_rep_5_r_H.png	 H	 r	 r	 n.a.	 2.304495e-01
8	 3	 242	 unflanked	 bex	 32	 1.500000	 0.000000	 unflanked_bex_freq_32_amplitude_1.5_rep_1_l_K.png	 K	 l	 l	 n.a.	 2.196535e-01
8	 3	 243	 unflanked	 bex	 6	 0.250000	 0.000000	 unflanked_bex_freq_6_amplitude_0.25_rep_1_t_N.png	 N	 t	 l	 n.a.	 4.725478e-01
8	 3	 244	 unflanked	 bex	 4	 2.500000	 0.000000	 unflanked_bex_freq_4_amplitude_2.5_rep_3_r_H.png	 H	 r	 r	 n.a.	 2.031470e-01
8	 3	 245	 unflanked	 bex	 8	 3.000000	 0.000000	 unflanked_bex_freq_8_amplitude_3_rep_7_t_D.png	 D	 t	 t	 n.a.	 3.171503e-01
8	 3	 246	 unflanked	 bex	 4	 1.000000	 0.000000	 unflanked_bex_freq_4_amplitude_1_rep_8_t_H.png	 H	 t	 b	 n.a.	 3.512230e-01
8	 3	 247	 unflanked	 bex	 4	 2.500000	 0.000000	 unflanked_bex_freq_4_amplitude_2.5_rep_5_b_N.png	 N	 b	 b	 n.a.	 2.920575e-01
8	 3	 248	 unflanked	 bex	 2	 2.000000	 0.000000	 unflanked_bex_freq_2_amplitude_2_rep_1_t_N.png	 N	 t	 b	 n.a.	 5.844171e-01
8	 3	 249	 unflanked	 bex	 8	 1.000000	 0.000000	 unflanked_bex_freq_8_amplitude_1_rep_5_b_K.png	 K	 b	 l	 n.a.	 3.858770e-01
8	 3	 250	 unflanked	 bex	 16	 2.500000	 0.000000	 unflanked_bex_freq_16_amplitude_2.5_rep_1_t_N.png	 N	 t	 t	 n.a.	 3.375956e-01
8	 3	 251	 unflanked	 bex	 16	 1.500000	 0.000000	 unflanked_bex_freq_16_amplitude_1.5_rep_7_r_K.png	 K	 r	 l	 n.a.	 5.396803e-01
8	 3	 252	 unflanked	 bex	 2	 0.500000	 0.000000	 unflanked_bex_freq_2_amplitude_0.5_rep_7_r_K.png	 K	 r	 b	 n.a.	 6.285702e-01
8	 3	 253	 unflanked	 bex	 6	 3.000000	 0.000000	 unflanked_bex_freq_6_amplitude_3_rep_3_t_D.png	 D	 t	 t	 n.a.	 2.486307e-01
8	 3	 254	 unflanked	 bex	 8	 3.000000	 0.000000	 unflanked_bex_freq_8_amplitude_3_rep_2_l_D.png	 D	 l	 l	 n.a.	 2.327512e-01
8	 3	 255	 unflanked	 bex	 6	 2.500000	 0.000000	 unflanked_bex_freq_6_amplitude_2.5_rep_9_r_H.png	 H	 r	 r	 n.a.	 2.160672e-01
8	 3	 256	 unflanked	 bex	 8	 0.500000	 0.000000	 unflanked_bex_freq_8_amplitude_0.5_rep_6_l_D.png	 D	 l	 r	 n.a.	 4.275159e-01
8	 3	 257	 unflanked	 bex	 6	 0.250000	 0.000000	 unflanked_bex_freq_6_amplitude_0.25_rep_7_r_H.png	 H	 r	 l	 n.a.	 2.683106e-01
8	 3	 258	 unflanked	 bex	 2	 2.000000	 0.000000	 unflanked_bex_freq_2_amplitude_2_rep_5_r_K.png	 K	 r	 r	 n.a.	 2.215602e-01
8	 3	 259	 unflanked	 bex	 16	 3.000000	 0.000000	 unflanked_bex_freq_16_amplitude_3_rep_0_b_K.png	 K	 b	 b	 n.a.	 2.709896e-01
8	 3	 260	 unflanked	 bex	 6	 1.500000	 0.000000	 unflanked_bex_freq_6_amplitude_1.5_rep_8_l_H.png	 H	 l	 l	 n.a.	 3.612022e-01
8	 3	 261	 unflanked	 bex	 6	 1.500000	 0.000000	 unflanked_bex_freq_6_amplitude_1.5_rep_2_b_D.png	 D	 b	 b	 n.a.	 3.137018e-01
8	 3	 262	 unflanked	 bex	 8	 2.500000	 0.000000	 unflanked_bex_freq_8_amplitude_2.5_rep_0_t_N.png	 N	 t	 t	 n.a.	 2.571342e-01
8	 3	 263	 unflanked	 bex	 8	 2.000000	 0.000000	 unflanked_bex_freq_8_amplitude_2_rep_7_r_N.png	 N	 r	 r	 n.a.	 2.669303e-01
8	 3	 264	 unflanked	 bex	 2	 1.000000	 0.000000	 unflanked_bex_freq_2_amplitude_1_rep_7_t_K.png	 K	 t	 l	 n.a.	 6.123058e-01
8	 3	 265	 unflanked	 bex	 16	 0.500000	 0.000000	 unflanked_bex_freq_16_amplitude_0.5_rep_2_r_N.png	 N	 r	 t	 n.a.	 5.186494e-01
8	 3	 266	 unflanked	 bex	 2	 1.500000	 0.000000	 unflanked_bex_freq_2_amplitude_1.5_rep_4_r_H.png	 H	 r	 b	 n.a.	 3.150279e-01
8	 3	 267	 unflanked	 bex	 16	 1.000000	 0.000000	 unflanked_bex_freq_16_amplitude_1_rep_9_t_H.png	 H	 t	 t	 n.a.	 3.651841e-01
8	 3	 268	 unflanked	 bex	 4	 2.000000	 0.000000	 unflanked_bex_freq_4_amplitude_2_rep_0_r_K.png	 K	 r	 r	 n.a.	 2.566057e-01
8	 3	 269	 unflanked	 bex	 32	 2.500000	 0.000000	 unflanked_bex_freq_32_amplitude_2.5_rep_5_r_H.png	 H	 r	 r	 n.a.	 4.776708e-01
8	 3	 270	 unflanked	 bex	 6	 2.000000	 0.000000	 unflanked_bex_freq_6_amplitude_2_rep_3_t_K.png	 K	 t	 t	 n.a.	 3.040789e-01
8	 3	 271	 unflanked	 bex	 32	 1.000000	 0.000000	 unflanked_bex_freq_32_amplitude_1_rep_5_l_D.png	 D	 l	 l	 n.a.	 3.032515e-01
8	 3	 272	 unflanked	 bex	 4	 0.250000	 0.000000	 unflanked_bex_freq_4_amplitude_0.25_rep_8_r_N.png	 N	 r	 t	 n.a.	 4.683416e-01
8	 3	 273	 unflanked	 bex	 2	 0.250000	 0.000000	 unflanked_bex_freq_2_amplitude_0.25_rep_2_b_D.png	 D	 b	 t	 n.a.	 4.677596e-01
8	 3	 274	 unflanked	 bex	 8	 0.250000	 0.000000	 unflanked_bex_freq_8_amplitude_0.25_rep_7_r_N.png	 N	 r	 l	 n.a.	 4.128521e-01
8	 3	 275	 unflanked	 bex	 4	 1.500000	 0.000000	 unflanked_bex_freq_4_amplitude_1.5_rep_7_b_N.png	 N	 b	 t	 n.a.	 6.239694e-01
8	 3	 276	 unflanked	 bex	 6	 2.500000	 0.000000	 unflanked_bex_freq_6_amplitude_2.5_rep_7_r_N.png	 N	 r	 r	 n.a.	 2.965767e-01
8	 3	 277	 unflanked	 bex	 32	 0.500000	 0.000000	 unflanked_bex_freq_32_amplitude_0.5_rep_6_t_N.png	 N	 t	 b	 n.a.	 4.388149e-01
8	 3	 278	 unflanked	 bex	 2	 0.250000	 0.000000	 unflanked_bex_freq_2_amplitude_0.25_rep_9_t_D.png	 D	 t	 l	 n.a.	 3.492660e-01
8	 3	 279	 unflanked	 bex	 8	 0.250000	 0.000000	 unflanked_bex_freq_8_amplitude_0.25_rep_6_t_K.png	 K	 t	 b	 n.a.	 3.759784e-01
8	 3	 280	 unflanked	 bex	 6	 0.250000	 0.000000	 unflanked_bex_freq_6_amplitude_0.25_rep_0_l_D.png	 D	 l	 b	 n.a.	 6.384377e-01
8	 3	 281	 unflanked	 bex	 8	 2.000000	 0.000000	 unflanked_bex_freq_8_amplitude_2_rep_3_t_H.png	 H	 t	 t	 n.a.	 2.546117e-01
8	 3	 282	 unflanked	 bex	 32	 3.000000	 0.000000	 unflanked_bex_freq_32_amplitude_3_rep_7_b_N.png	 N	 b	 b	 n.a.	 2.937160e-01
8	 3	 283	 unflanked	 bex	 6	 3.000000	 0.000000	 unflanked_bex_freq_6_amplitude_3_rep_6_l_K.png	 K	 l	 l	 n.a.	 2.143918e-01
8	 3	 284	 unflanked	 bex	 32	 2.000000	 0.000000	 unflanked_bex_freq_32_amplitude_2_rep_0_r_N.png	 N	 r	 b	 n.a.	 5.589590e-01
8	 3	 285	 unflanked	 bex	 4	 1.000000	 0.000000	 unflanked_bex_freq_4_amplitude_1_rep_7_l_K.png	 K	 l	 b	 n.a.	 3.820605e-01
8	 3	 286	 unflanked	 bex	 6	 0.250000	 0.000000	 unflanked_bex_freq_6_amplitude_0.25_rep_9_t_H.png	 H	 t	 t	 n.a.	 2.090694e-01
8	 3	 287	 unflanked	 bex	 6	 1.500000	 0.000000	 unflanked_bex_freq_6_amplitude_1.5_rep_5_b_N.png	 N	 b	 b	 n.a.	 3.728407e-01
8	 3	 288	 unflanked	 bex	 16	 0.250000	 0.000000	 unflanked_bex_freq_16_amplitude_0.25_rep_9_t_H.png	 H	 t	 t	 n.a.	 1.987533e-01
8	 3	 289	 unflanked	 bex	 2	 1.500000	 0.000000	 unflanked_bex_freq_2_amplitude_1.5_rep_7_b_N.png	 N	 b	 b	 n.a.	 3.832622e-01
8	 3	 290	 unflanked	 bex	 2	 1.500000	 0.000000	 unflanked_bex_freq_2_amplitude_1.5_rep_0_b_K.png	 K	 b	 b	 n.a.	 3.735275e-01
8	 3	 291	 unflanked	 bex	 32	 0.250000	 0.000000	 unflanked_bex_freq_32_amplitude_0.25_rep_3_r_H.png	 H	 r	 r	 n.a.	 4.481587e-01
8	 3	 292	 unflanked	 bex	 2	 0.250000	 0.000000	 unflanked_bex_freq_2_amplitude_0.25_rep_1_l_N.png	 N	 l	 t	 n.a.	 2.978228e-01
8	 3	 293	 unflanked	 bex	 6	 1.000000	 0.000000	 unflanked_bex_freq_6_amplitude_1_rep_7_t_H.png	 H	 t	 t	 n.a.	 2.889654e-01
8	 3	 294	 unflanked	 bex	 8	 3.000000	 0.000000	 unflanked_bex_freq_8_amplitude_3_rep_1_r_K.png	 K	 r	 r	 n.a.	 2.219626e-01
8	 3	 295	 unflanked	 bex	 6	 0.500000	 0.000000	 unflanked_bex_freq_6_amplitude_0.5_rep_6_t_N.png	 N	 t	 t	 n.a.	 4.938242e-01
8	 3	 296	 unflanked	 bex	 8	 2.500000	 0.000000	 unflanked_bex_freq_8_amplitude_2.5_rep_7_t_K.png	 K	 t	 t	 n.a.	 4.293215e-01
8	 3	 297	 unflanked	 bex	 16	 2.000000	 0.000000	 unflanked_bex_freq_16_amplitude_2_rep_4_b_D.png	 D	 b	 b	 n.a.	 3.616781e-01
8	 3	 298	 unflanked	 bex	 4	 1.000000	 0.000000	 unflanked_bex_freq_4_amplitude_1_rep_5_l_D.png	 D	 l	 b	 n.a.	 4.738268e-01
8	 3	 299	 unflanked	 bex	 2	 2.000000	 0.000000	 unflanked_bex_freq_2_amplitude_2_rep_2_r_D.png	 D	 r	 t	 n.a.	 4.065125e-01
8	 3	 300	 unflanked	 bex	 6	 1.500000	 0.000000	 unflanked_bex_freq_6_amplitude_1.5_rep_3_t_N.png	 N	 t	 b	 n.a.	 4.359697e-01
8	 3	 301	 unflanked	 bex	 6	 0.500000	 0.000000	 unflanked_bex_freq_6_amplitude_0.5_rep_8_r_K.png	 K	 r	 t	 n.a.	 4.703586e-01
8	 3	 302	 unflanked	 bex	 4	 3.000000	 0.000000	 unflanked_bex_freq_4_amplitude_3_rep_9_t_H.png	 H	 t	 t	 n.a.	 2.263019e-01
8	 3	 303	 unflanked	 bex	 8	 0.500000	 0.000000	 unflanked_bex_freq_8_amplitude_0.5_rep_3_t_N.png	 N	 t	 b	 n.a.	 6.474835e-01
8	 3	 304	 unflanked	 bex	 32	 1.000000	 0.000000	 unflanked_bex_freq_32_amplitude_1_rep_7_l_K.png	 K	 l	 l	 n.a.	 4.721194e-01
8	 3	 305	 unflanked	 bex	 16	 2.500000	 0.000000	 unflanked_bex_freq_16_amplitude_2.5_rep_0_t_H.png	 H	 t	 t	 n.a.	 4.697786e-01
8	 3	 306	 unflanked	 bex	 4	 1.000000	 0.000000	 unflanked_bex_freq_4_amplitude_1_rep_6_l_N.png	 N	 l	 l	 n.a.	 4.389643e-01
8	 3	 307	 unflanked	 bex	 2	 3.000000	 0.000000	 unflanked_bex_freq_2_amplitude_3_rep_5_r_K.png	 K	 r	 r	 n.a.	 2.154453e-01
8	 3	 308	 unflanked	 bex	 8	 1.500000	 0.000000	 unflanked_bex_freq_8_amplitude_1.5_rep_8_l_D.png	 D	 l	 l	 n.a.	 2.488777e-01
8	 3	 309	 unflanked	 bex	 16	 0.250000	 0.000000	 unflanked_bex_freq_16_amplitude_0.25_rep_6_l_N.png	 N	 l	 t	 n.a.	 5.033483e-01
8	 3	 310	 unflanked	 bex	 16	 3.000000	 0.000000	 unflanked_bex_freq_16_amplitude_3_rep_6_l_K.png	 K	 l	 l	 n.a.	 2.520127e-01
8	 3	 311	 unflanked	 bex	 4	 2.000000	 0.000000	 unflanked_bex_freq_4_amplitude_2_rep_7_l_N.png	 N	 l	 t	 n.a.	 2.997718e-01
8	 3	 312	 unflanked	 bex	 6	 1.500000	 0.000000	 unflanked_bex_freq_6_amplitude_1.5_rep_4_b_N.png	 N	 b	 b	 n.a.	 2.822696e-01
8	 3	 313	 unflanked	 bex	 8	 0.500000	 0.000000	 unflanked_bex_freq_8_amplitude_0.5_rep_4_r_D.png	 D	 r	 r	 n.a.	 2.915824e-01
8	 3	 314	 unflanked	 bex	 8	 1.000000	 0.000000	 unflanked_bex_freq_8_amplitude_1_rep_4_b_H.png	 H	 b	 b	 n.a.	 3.565074e-01
8	 3	 315	 unflanked	 bex	 6	 1.500000	 0.000000	 unflanked_bex_freq_6_amplitude_1.5_rep_6_t_K.png	 K	 t	 b	 n.a.	 4.065620e-01
8	 3	 316	 unflanked	 bex	 32	 2.000000	 0.000000	 unflanked_bex_freq_32_amplitude_2_rep_7_b_H.png	 H	 b	 b	 n.a.	 3.481392e-01
8	 3	 317	 unflanked	 bex	 4	 3.000000	 0.000000	 unflanked_bex_freq_4_amplitude_3_rep_3_b_D.png	 D	 b	 b	 n.a.	 2.634192e-01
8	 3	 318	 unflanked	 bex	 16	 1.000000	 0.000000	 unflanked_bex_freq_16_amplitude_1_rep_4_t_K.png	 K	 t	 b	 n.a.	 3.774712e-01
8	 3	 319	 unflanked	 bex	 32	 1.000000	 0.000000	 unflanked_bex_freq_32_amplitude_1_rep_9_r_K.png	 K	 r	 r	 n.a.	 3.913843e-01
8	 3	 320	 unflanked	 bex	 8	 0.250000	 0.000000	 unflanked_bex_freq_8_amplitude_0.25_rep_3_l_H.png	 H	 l	 r	 n.a.	 6.799540e-01
8	 3	 321	 unflanked	 bex	 6	 0.250000	 0.000000	 unflanked_bex_freq_6_amplitude_0.25_rep_8_l_H.png	 H	 l	 b	 n.a.	 2.780637e-01
8	 3	 322	 unflanked	 bex	 16	 1.500000	 0.000000	 unflanked_bex_freq_16_amplitude_1.5_rep_3_t_D.png	 D	 t	 l	 n.a.	 3.594727e-01
8	 3	 323	 unflanked	 bex	 8	 1.500000	 0.000000	 unflanked_bex_freq_8_amplitude_1.5_rep_2_l_H.png	 H	 l	 l	 n.a.	 3.832918e-01
8	 3	 324	 unflanked	 bex	 16	 2.500000	 0.000000	 unflanked_bex_freq_16_amplitude_2.5_rep_2_r_N.png	 N	 r	 r	 n.a.	 2.279281e-01
8	 3	 325	 unflanked	 bex	 16	 0.500000	 0.000000	 unflanked_bex_freq_16_amplitude_0.5_rep_6_r_H.png	 H	 r	 r	 n.a.	 5.166129e-01
8	 3	 326	 unflanked	 bex	 6	 0.250000	 0.000000	 unflanked_bex_freq_6_amplitude_0.25_rep_5_l_D.png	 D	 l	 b	 n.a.	 3.432330e-01
8	 3	 327	 unflanked	 bex	 32	 3.000000	 0.000000	 unflanked_bex_freq_32_amplitude_3_rep_4_t_D.png	 D	 t	 t	 n.a.	 3.711695e-01
8	 3	 328	 unflanked	 bex	 6	 0.250000	 0.000000	 unflanked_bex_freq_6_amplitude_0.25_rep_6_r_K.png	 K	 r	 b	 n.a.	 3.911912e-01
8	 3	 329	 unflanked	 bex	 4	 1.000000	 0.000000	 unflanked_bex_freq_4_amplitude_1_rep_3_l_K.png	 K	 l	 t	 n.a.	 2.685376e-01
8	 3	 330	 unflanked	 bex	 2	 1.000000	 0.000000	 unflanked_bex_freq_2_amplitude_1_rep_8_l_D.png	 D	 l	 t	 n.a.	 4.094100e-01
8	 3	 331	 unflanked	 bex	 16	 1.500000	 0.000000	 unflanked_bex_freq_16_amplitude_1.5_rep_6_t_N.png	 N	 t	 b	 n.a.	 4.370578e-01
8	 3	 332	 unflanked	 bex	 2	 0.500000	 0.000000	 unflanked_bex_freq_2_amplitude_0.5_rep_9_t_H.png	 H	 t	 t	 n.a.	 2.447685e-01
8	 3	 333	 unflanked	 bex	 4	 1.500000	 0.000000	 unflanked_bex_freq_4_amplitude_1.5_rep_0_l_H.png	 H	 l	 l	 n.a.	 2.840609e-01
8	 3	 334	 unflanked	 bex	 32	 2.000000	 0.000000	 unflanked_bex_freq_32_amplitude_2_rep_9_r_K.png	 K	 r	 r	 n.a.	 2.635685e-01
8	 3	 335	 unflanked	 bex	 16	 0.500000	 0.000000	 unflanked_bex_freq_16_amplitude_0.5_rep_9_b_K.png	 K	 b	 t	 n.a.	 3.510204e-01
8	 3	 336	 unflanked	 bex	 32	 0.500000	 0.000000	 unflanked_bex_freq_32_amplitude_0.5_rep_9_t_N.png	 N	 t	 b	 n.a.	 3.715505e-01
8	 3	 337	 unflanked	 bex	 2	 3.000000	 0.000000	 unflanked_bex_freq_2_amplitude_3_rep_7_r_D.png	 D	 r	 r	 n.a.	 2.144853e-01
8	 3	 338	 unflanked	 bex	 8	 1.000000	 0.000000	 unflanked_bex_freq_8_amplitude_1_rep_9_b_K.png	 K	 b	 t	 n.a.	 5.379548e-01
8	 3	 339	 unflanked	 bex	 16	 0.250000	 0.000000	 unflanked_bex_freq_16_amplitude_0.25_rep_3_r_N.png	 N	 r	 l	 n.a.	 3.046668e-01
8	 3	 340	 unflanked	 bex	 6	 3.000000	 0.000000	 unflanked_bex_freq_6_amplitude_3_rep_0_b_K.png	 K	 b	 b	 n.a.	 2.635719e-01
8	 3	 341	 unflanked	 bex	 16	 3.000000	 0.000000	 unflanked_bex_freq_16_amplitude_3_rep_8_b_N.png	 N	 b	 t	 n.a.	 4.054725e-01
8	 3	 342	 unflanked	 bex	 16	 1.000000	 0.000000	 unflanked_bex_freq_16_amplitude_1_rep_2_l_K.png	 K	 l	 l	 n.a.	 3.323195e-01
8	 3	 343	 unflanked	 bex	 16	 0.250000	 0.000000	 unflanked_bex_freq_16_amplitude_0.25_rep_0_l_H.png	 H	 l	 r	 n.a.	 6.191039e-01
8	 3	 344	 unflanked	 bex	 16	 1.000000	 0.000000	 unflanked_bex_freq_16_amplitude_1_rep_6_t_D.png	 D	 t	 t	 n.a.	 3.118895e-01
8	 3	 345	 unflanked	 bex	 8	 0.500000	 0.000000	 unflanked_bex_freq_8_amplitude_0.5_rep_7_l_K.png	 K	 l	 l	 n.a.	 3.525956e-01
8	 3	 346	 unflanked	 bex	 32	 1.000000	 0.000000	 unflanked_bex_freq_32_amplitude_1_rep_1_l_K.png	 K	 l	 b	 n.a.	 4.475590e-01
8	 3	 347	 unflanked	 bex	 4	 3.000000	 0.000000	 unflanked_bex_freq_4_amplitude_3_rep_2_t_D.png	 D	 t	 t	 n.a.	 2.180192e-01
8	 3	 348	 unflanked	 bex	 8	 2.500000	 0.000000	 unflanked_bex_freq_8_amplitude_2.5_rep_6_l_K.png	 K	 l	 l	 n.a.	 2.595124e-01
8	 3	 349	 unflanked	 bex	 8	 2.500000	 0.000000	 unflanked_bex_freq_8_amplitude_2.5_rep_2_b_D.png	 D	 b	 b	 n.a.	 2.600430e-01
8	 3	 350	 unflanked	 bex	 8	 1.000000	 0.000000	 unflanked_bex_freq_8_amplitude_1_rep_7_r_H.png	 H	 r	 r	 n.a.	 3.046014e-01
8	 3	 351	 unflanked	 bex	 2	 0.250000	 0.000000	 unflanked_bex_freq_2_amplitude_0.25_rep_8_l_N.png	 N	 l	 r	 n.a.	 2.837256e-01
8	 3	 352	 unflanked	 bex	 2	 2.500000	 0.000000	 unflanked_bex_freq_2_amplitude_2.5_rep_2_b_D.png	 D	 b	 b	 n.a.	 4.081218e-01
8	 3	 353	 unflanked	 bex	 6	 3.000000	 0.000000	 unflanked_bex_freq_6_amplitude_3_rep_8_l_N.png	 N	 l	 l	 n.a.	 2.343219e-01
8	 3	 354	 unflanked	 bex	 6	 1.000000	 0.000000	 unflanked_bex_freq_6_amplitude_1_rep_8_r_K.png	 K	 r	 r	 n.a.	 3.970186e-01
8	 3	 355	 unflanked	 bex	 8	 2.000000	 0.000000	 unflanked_bex_freq_8_amplitude_2_rep_6_r_K.png	 K	 r	 r	 n.a.	 2.557225e-01
8	 3	 356	 unflanked	 bex	 2	 1.500000	 0.000000	 unflanked_bex_freq_2_amplitude_1.5_rep_9_t_H.png	 H	 t	 t	 n.a.	 2.800031e-01
8	 3	 357	 unflanked	 bex	 32	 2.500000	 0.000000	 unflanked_bex_freq_32_amplitude_2.5_rep_7_l_H.png	 H	 l	 l	 n.a.	 1.974074e-01
8	 3	 358	 unflanked	 bex	 32	 0.500000	 0.000000	 unflanked_bex_freq_32_amplitude_0.5_rep_5_l_D.png	 D	 l	 t	 n.a.	 2.768996e-01
8	 3	 359	 unflanked	 bex	 8	 0.250000	 0.000000	 unflanked_bex_freq_8_amplitude_0.25_rep_0_t_D.png	 D	 t	 r	 n.a.	 2.372450e-01
8	 3	 360	 unflanked	 bex	 2	 1.000000	 0.000000	 unflanked_bex_freq_2_amplitude_1_rep_0_r_D.png	 D	 r	 t	 n.a.	 5.259257e-01
8	 3	 361	 unflanked	 bex	 8	 2.000000	 0.000000	 unflanked_bex_freq_8_amplitude_2_rep_1_l_D.png	 D	 l	 b	 n.a.	 4.501763e-01
8	 3	 362	 unflanked	 bex	 4	 2.000000	 0.000000	 unflanked_bex_freq_4_amplitude_2_rep_2_b_N.png	 N	 b	 b	 n.a.	 5.461165e-01
8	 3	 363	 unflanked	 bex	 16	 2.000000	 0.000000	 unflanked_bex_freq_16_amplitude_2_rep_2_t_H.png	 H	 t	 b	 n.a.	 4.612802e-01
8	 3	 364	 unflanked	 bex	 4	 1.500000	 0.000000	 unflanked_bex_freq_4_amplitude_1.5_rep_4_l_H.png	 H	 l	 l	 n.a.	 2.335487e-01
8	 3	 365	 unflanked	 bex	 32	 2.500000	 0.000000	 unflanked_bex_freq_32_amplitude_2.5_rep_8_b_N.png	 N	 b	 t	 n.a.	 3.901764e-01
8	 3	 366	 unflanked	 bex	 8	 0.500000	 0.000000	 unflanked_bex_freq_8_amplitude_0.5_rep_1_r_D.png	 D	 r	 r	 n.a.	 2.069024e-01
8	 3	 367	 unflanked	 bex	 8	 1.000000	 0.000000	 unflanked_bex_freq_8_amplitude_1_rep_8_b_D.png	 D	 b	 b	 n.a.	 3.346497e-01
8	 3	 368	 unflanked	 bex	 2	 0.500000	 0.000000	 unflanked_bex_freq_2_amplitude_0.5_rep_1_r_H.png	 H	 r	 r	 n.a.	 6.255146e-01
8	 3	 369	 unflanked	 bex	 2	 2.000000	 0.000000	 unflanked_bex_freq_2_amplitude_2_rep_6_b_N.png	 N	 b	 b	 n.a.	 7.193753e-01
8	 3	 370	 unflanked	 bex	 16	 0.250000	 0.000000	 unflanked_bex_freq_16_amplitude_0.25_rep_7_l_D.png	 D	 l	 t	 n.a.	 4.600430e-01
8	 3	 371	 unflanked	 bex	 32	 0.500000	 0.000000	 unflanked_bex_freq_32_amplitude_0.5_rep_8_l_D.png	 D	 l	 b	 n.a.	 2.921065e-01
8	 3	 372	 unflanked	 bex	 32	 0.250000	 0.000000	 unflanked_bex_freq_32_amplitude_0.25_rep_9_t_K.png	 K	 t	 r	 n.a.	 3.366299e-01
8	 3	 373	 unflanked	 bex	 4	 1.500000	 0.000000	 unflanked_bex_freq_4_amplitude_1.5_rep_3_b_K.png	 K	 b	 r	 n.a.	 2.777912e-01
8	 3	 374	 unflanked	 bex	 32	 1.000000	 0.000000	 unflanked_bex_freq_32_amplitude_1_rep_2_t_N.png	 N	 t	 b	 n.a.	 4.836092e-01
8	 3	 375	 unflanked	 bex	 4	 0.250000	 0.000000	 unflanked_bex_freq_4_amplitude_0.25_rep_9_l_H.png	 H	 l	 l	 n.a.	 3.074056e-01
8	 3	 376	 unflanked	 bex	 16	 3.000000	 0.000000	 unflanked_bex_freq_16_amplitude_3_rep_2_t_D.png	 D	 t	 t	 n.a.	 3.235372e-01
8	 3	 377	 unflanked	 bex	 32	 1.000000	 0.000000	 unflanked_bex_freq_32_amplitude_1_rep_6_b_K.png	 K	 b	 r	 n.a.	 3.835342e-01
8	 3	 378	 unflanked	 bex	 4	 2.000000	 0.000000	 unflanked_bex_freq_4_amplitude_2_rep_4_l_K.png	 K	 l	 l	 n.a.	 2.577396e-01
8	 3	 379	 unflanked	 bex	 6	 1.000000	 0.000000	 unflanked_bex_freq_6_amplitude_1_rep_4_l_K.png	 K	 l	 b	 n.a.	 4.425254e-01
8	 3	 380	 unflanked	 bex	 2	 0.500000	 0.000000	 unflanked_bex_freq_2_amplitude_0.5_rep_3_r_H.png	 H	 r	 r	 n.a.	 4.437928e-01
8	 3	 381	 unflanked	 bex	 8	 3.000000	 0.000000	 unflanked_bex_freq_8_amplitude_3_rep_6_b_H.png	 H	 b	 b	 n.a.	 5.051439e-01
8	 3	 382	 unflanked	 bex	 4	 1.500000	 0.000000	 unflanked_bex_freq_4_amplitude_1.5_rep_9_r_K.png	 K	 r	 r	 n.a.	 2.346787e-01
8	 3	 383	 unflanked	 bex	 16	 1.500000	 0.000000	 unflanked_bex_freq_16_amplitude_1.5_rep_0_b_H.png	 H	 b	 b	 n.a.	 5.922475e-01
8	 3	 384	 unflanked	 bex	 4	 1.500000	 0.000000	 unflanked_bex_freq_4_amplitude_1.5_rep_8_t_K.png	 K	 t	 t	 n.a.	 4.899513e-01
8	 3	 385	 unflanked	 bex	 8	 0.500000	 0.000000	 unflanked_bex_freq_8_amplitude_0.5_rep_2_b_K.png	 K	 b	 t	 n.a.	 3.093586e-01
8	 3	 386	 unflanked	 bex	 8	 2.000000	 0.000000	 unflanked_bex_freq_8_amplitude_2_rep_2_t_N.png	 N	 t	 t	 n.a.	 2.907137e-01
8	 3	 387	 unflanked	 bex	 32	 1.500000	 0.000000	 unflanked_bex_freq_32_amplitude_1.5_rep_9_b_H.png	 H	 b	 b	 n.a.	 5.593739e-01
8	 3	 388	 unflanked	 bex	 2	 1.000000	 0.000000	 unflanked_bex_freq_2_amplitude_1_rep_1_l_D.png	 D	 l	 l	 n.a.	 3.481609e-01
8	 3	 389	 unflanked	 bex	 32	 3.000000	 0.000000	 unflanked_bex_freq_32_amplitude_3_rep_8_t_K.png	 K	 t	 b	 n.a.	 5.222910e-01
8	 3	 390	 unflanked	 bex	 6	 2.000000	 0.000000	 unflanked_bex_freq_6_amplitude_2_rep_8_b_N.png	 N	 b	 b	 n.a.	 3.609466e-01
8	 3	 391	 unflanked	 bex	 16	 2.000000	 0.000000	 unflanked_bex_freq_16_amplitude_2_rep_6_l_N.png	 N	 l	 l	 n.a.	 2.715127e-01
8	 3	 392	 unflanked	 bex	 4	 3.000000	 0.000000	 unflanked_bex_freq_4_amplitude_3_rep_1_r_K.png	 K	 r	 r	 n.a.	 1.952352e-01
8	 3	 393	 unflanked	 bex	 2	 1.500000	 0.000000	 unflanked_bex_freq_2_amplitude_1.5_rep_3_b_H.png	 H	 b	 l	 n.a.	 2.493469e-01
8	 3	 394	 unflanked	 bex	 4	 0.500000	 0.000000	 unflanked_bex_freq_4_amplitude_0.5_rep_0_r_D.png	 D	 r	 r	 n.a.	 4.432841e-01
8	 3	 395	 unflanked	 bex	 2	 1.500000	 0.000000	 unflanked_bex_freq_2_amplitude_1.5_rep_6_t_H.png	 H	 t	 t	 n.a.	 2.873519e-01
8	 3	 396	 unflanked	 bex	 6	 1.000000	 0.000000	 unflanked_bex_freq_6_amplitude_1_rep_3_b_K.png	 K	 b	 t	 n.a.	 4.980876e-01
8	 3	 397	 unflanked	 bex	 16	 1.500000	 0.000000	 unflanked_bex_freq_16_amplitude_1.5_rep_5_t_H.png	 H	 t	 b	 n.a.	 3.809928e-01
8	 3	 398	 unflanked	 bex	 8	 2.000000	 0.000000	 unflanked_bex_freq_8_amplitude_2_rep_8_t_K.png	 K	 t	 t	 n.a.	 2.788283e-01
8	 3	 399	 unflanked	 bex	 32	 1.500000	 0.000000	 unflanked_bex_freq_32_amplitude_1.5_rep_0_l_D.png	 D	 l	 b	 n.a.	 5.388712e-01
8	 3	 400	 unflanked	 bex	 4	 1.000000	 0.000000	 unflanked_bex_freq_4_amplitude_1_rep_0_b_H.png	 H	 b	 b	 n.a.	 3.705604e-01
8	 3	 401	 unflanked	 bex	 4	 3.000000	 0.000000	 unflanked_bex_freq_4_amplitude_3_rep_0_r_H.png	 H	 r	 r	 n.a.	 2.259229e-01
8	 3	 402	 unflanked	 bex	 8	 0.250000	 0.000000	 unflanked_bex_freq_8_amplitude_0.25_rep_5_l_D.png	 D	 l	 b	 n.a.	 4.528275e-01
8	 3	 403	 unflanked	 bex	 4	 1.000000	 0.000000	 unflanked_bex_freq_4_amplitude_1_rep_2_r_H.png	 H	 r	 r	 n.a.	 4.854463e-01
8	 3	 404	 unflanked	 bex	 6	 2.000000	 0.000000	 unflanked_bex_freq_6_amplitude_2_rep_4_b_K.png	 K	 b	 b	 n.a.	 3.180009e-01
8	 3	 405	 unflanked	 bex	 16	 2.000000	 0.000000	 unflanked_bex_freq_16_amplitude_2_rep_3_l_K.png	 K	 l	 l	 n.a.	 2.746902e-01
8	 3	 406	 unflanked	 bex	 16	 2.500000	 0.000000	 unflanked_bex_freq_16_amplitude_2.5_rep_4_r_H.png	 H	 r	 r	 n.a.	 2.184942e-01
8	 3	 407	 unflanked	 bex	 32	 2.500000	 0.000000	 unflanked_bex_freq_32_amplitude_2.5_rep_9_l_K.png	 K	 l	 l	 n.a.	 2.695148e-01
8	 3	 408	 unflanked	 bex	 16	 2.500000	 0.000000	 unflanked_bex_freq_16_amplitude_2.5_rep_6_r_K.png	 K	 r	 r	 n.a.	 2.400725e-01
8	 3	 409	 unflanked	 bex	 32	 0.500000	 0.000000	 unflanked_bex_freq_32_amplitude_0.5_rep_3_t_N.png	 N	 t	 l	 n.a.	 5.014217e-01
8	 3	 410	 unflanked	 bex	 6	 3.000000	 0.000000	 unflanked_bex_freq_6_amplitude_3_rep_9_l_K.png	 K	 l	 l	 n.a.	 2.316564e-01
8	 3	 411	 unflanked	 bex	 6	 1.000000	 0.000000	 unflanked_bex_freq_6_amplitude_1_rep_9_r_N.png	 N	 r	 r	 n.a.	 4.226429e-01
8	 3	 412	 unflanked	 bex	 8	 1.500000	 0.000000	 unflanked_bex_freq_8_amplitude_1.5_rep_7_r_K.png	 K	 r	 t	 n.a.	 4.291137e-01
8	 3	 413	 unflanked	 bex	 16	 0.500000	 0.000000	 unflanked_bex_freq_16_amplitude_0.5_rep_0_r_N.png	 N	 r	 b	 n.a.	 3.558868e-01
8	 3	 414	 unflanked	 bex	 6	 2.000000	 0.000000	 unflanked_bex_freq_6_amplitude_2_rep_1_b_D.png	 D	 b	 b	 n.a.	 3.079514e-01
8	 3	 415	 unflanked	 bex	 2	 1.000000	 0.000000	 unflanked_bex_freq_2_amplitude_1_rep_2_r_K.png	 K	 r	 t	 n.a.	 4.911008e-01
8	 3	 416	 unflanked	 bex	 8	 0.500000	 0.000000	 unflanked_bex_freq_8_amplitude_0.5_rep_9_t_N.png	 N	 t	 b	 n.a.	 5.188130e-01
8	 3	 417	 unflanked	 bex	 16	 1.000000	 0.000000	 unflanked_bex_freq_16_amplitude_1_rep_1_l_K.png	 K	 l	 l	 n.a.	 5.086776e-01
8	 3	 418	 unflanked	 bex	 16	 2.000000	 0.000000	 unflanked_bex_freq_16_amplitude_2_rep_1_b_K.png	 K	 b	 b	 n.a.	 3.517960e-01
8	 3	 419	 unflanked	 bex	 16	 0.500000	 0.000000	 unflanked_bex_freq_16_amplitude_0.5_rep_7_t_D.png	 D	 t	 r	 n.a.	 6.206968e-01
8	 3	 420	 unflanked	 bex	 16	 2.500000	 0.000000	 unflanked_bex_freq_16_amplitude_2.5_rep_3_l_N.png	 N	 l	 l	 n.a.	 2.737658e-01
