subject	 session	 trial	 flanked	 distortion	 freq	 amplitude	 spacing	 im_name	 targ_letter	 targ_pos	 response	 eyemovement	 RT
5	 5	 1	 flanked	 bex	 6	 2.500000	 2.000000	 flanked_bex_freq_6_amplitude_2.5_rep_8_l_D_2.0.png	 D	 l	 l	 n.a.	 3.165902e-01
5	 5	 2	 flanked	 bex	 2	 5.000000	 2.000000	 flanked_bex_freq_2_amplitude_5_rep_2_t_N_2.0.png	 N	 t	 t	 n.a.	 4.046576e-01
5	 5	 3	 flanked	 bex	 16	 1.000000	 2.000000	 flanked_bex_freq_16_amplitude_1_rep_3_l_K_2.0.png	 K	 l	 r	 n.a.	 1.051391e+00
5	 5	 4	 flanked	 bex	 8	 1.000000	 2.000000	 flanked_bex_freq_8_amplitude_1_rep_7_t_D_2.0.png	 D	 t	 b	 n.a.	 3.411851e-01
5	 5	 5	 flanked	 bex	 8	 0.500000	 2.000000	 flanked_bex_freq_8_amplitude_0.5_rep_9_t_D_2.0.png	 D	 t	 l	 n.a.	 2.641960e-01
5	 5	 6	 flanked	 bex	 16	 2.000000	 2.000000	 flanked_bex_freq_16_amplitude_2_rep_6_t_D_2.0.png	 D	 t	 r	 n.a.	 4.084148e-01
5	 5	 7	 flanked	 bex	 16	 3.000000	 2.000000	 flanked_bex_freq_16_amplitude_3_rep_1_b_H_2.0.png	 H	 b	 t	 n.a.	 6.279413e-01
5	 5	 8	 flanked	 bex	 2	 2.000000	 2.000000	 flanked_bex_freq_2_amplitude_2_rep_2_r_N_2.0.png	 N	 r	 t	 n.a.	 4.431885e-01
5	 5	 9	 flanked	 bex	 8	 1.000000	 2.000000	 flanked_bex_freq_8_amplitude_1_rep_1_t_H_2.0.png	 H	 t	 t	 n.a.	 6.279447e-01
5	 5	 10	 flanked	 bex	 32	 3.000000	 2.000000	 flanked_bex_freq_32_amplitude_3_rep_5_l_K_2.0.png	 K	 l	 l	 n.a.	 3.210093e-01
5	 5	 11	 flanked	 bex	 32	 1.500000	 2.000000	 flanked_bex_freq_32_amplitude_1.5_rep_5_l_N_2.0.png	 N	 l	 l	 n.a.	 4.554482e-01
5	 5	 12	 flanked	 bex	 6	 0.500000	 2.000000	 flanked_bex_freq_6_amplitude_0.5_rep_3_t_K_2.0.png	 K	 t	 l	 n.a.	 9.226484e-01
5	 5	 13	 flanked	 bex	 6	 1.500000	 2.000000	 flanked_bex_freq_6_amplitude_1.5_rep_0_b_N_2.0.png	 N	 b	 t	 n.a.	 6.470266e-01
5	 5	 14	 flanked	 bex	 8	 5.000000	 2.000000	 flanked_bex_freq_8_amplitude_5_rep_6_t_N_2.0.png	 N	 t	 t	 n.a.	 4.940021e-01
5	 5	 15	 flanked	 bex	 2	 0.500000	 2.000000	 flanked_bex_freq_2_amplitude_0.5_rep_0_b_H_2.0.png	 H	 b	 t	 n.a.	 7.346379e-01
5	 5	 16	 flanked	 bex	 16	 2.000000	 2.000000	 flanked_bex_freq_16_amplitude_2_rep_4_l_K_2.0.png	 K	 l	 r	 n.a.	 4.446570e-01
5	 5	 17	 flanked	 bex	 16	 5.000000	 2.000000	 flanked_bex_freq_16_amplitude_5_rep_1_t_K_2.0.png	 K	 t	 t	 n.a.	 4.155560e-01
5	 5	 18	 flanked	 bex	 16	 1.500000	 2.000000	 flanked_bex_freq_16_amplitude_1.5_rep_1_l_N_2.0.png	 N	 l	 l	 n.a.	 4.688786e-01
5	 5	 19	 flanked	 bex	 6	 0.500000	 2.000000	 flanked_bex_freq_6_amplitude_0.5_rep_1_t_D_2.0.png	 D	 t	 r	 n.a.	 5.927339e-01
5	 5	 20	 flanked	 bex	 32	 0.500000	 2.000000	 flanked_bex_freq_32_amplitude_0.5_rep_1_r_N_2.0.png	 N	 r	 r	 n.a.	 7.366537e-01
5	 5	 21	 flanked	 bex	 4	 1.500000	 2.000000	 flanked_bex_freq_4_amplitude_1.5_rep_6_l_N_2.0.png	 N	 l	 l	 n.a.	 3.573108e-01
5	 5	 22	 flanked	 bex	 32	 3.000000	 2.000000	 flanked_bex_freq_32_amplitude_3_rep_0_t_H_2.0.png	 H	 t	 t	 n.a.	 4.816533e-01
5	 5	 23	 flanked	 bex	 32	 1.000000	 2.000000	 flanked_bex_freq_32_amplitude_1_rep_5_b_N_2.0.png	 N	 b	 b	 n.a.	 4.692631e-01
5	 5	 24	 flanked	 bex	 8	 1.500000	 2.000000	 flanked_bex_freq_8_amplitude_1.5_rep_9_t_D_2.0.png	 D	 t	 r	 n.a.	 4.240504e-01
5	 5	 25	 flanked	 bex	 32	 0.500000	 2.000000	 flanked_bex_freq_32_amplitude_0.5_rep_0_b_K_2.0.png	 K	 b	 t	 n.a.	 6.390763e-01
5	 5	 26	 flanked	 bex	 8	 0.500000	 2.000000	 flanked_bex_freq_8_amplitude_0.5_rep_0_b_D_2.0.png	 D	 b	 r	 n.a.	 5.486382e-01
5	 5	 27	 flanked	 bex	 6	 2.000000	 2.000000	 flanked_bex_freq_6_amplitude_2_rep_8_r_D_2.0.png	 D	 r	 r	 n.a.	 3.624538e-01
5	 5	 28	 flanked	 bex	 6	 1.000000	 2.000000	 flanked_bex_freq_6_amplitude_1_rep_8_b_D_2.0.png	 D	 b	 b	 n.a.	 7.085171e-01
5	 5	 29	 flanked	 bex	 4	 0.500000	 2.000000	 flanked_bex_freq_4_amplitude_0.5_rep_4_b_N_2.0.png	 N	 b	 t	 n.a.	 5.324242e-01
5	 5	 30	 flanked	 bex	 2	 2.500000	 2.000000	 flanked_bex_freq_2_amplitude_2.5_rep_6_t_K_2.0.png	 K	 t	 t	 n.a.	 6.181528e-01
5	 5	 31	 flanked	 bex	 2	 3.000000	 2.000000	 flanked_bex_freq_2_amplitude_3_rep_1_b_K_2.0.png	 K	 b	 b	 n.a.	 5.263530e-01
5	 5	 32	 flanked	 bex	 6	 2.000000	 2.000000	 flanked_bex_freq_6_amplitude_2_rep_7_t_N_2.0.png	 N	 t	 t	 n.a.	 7.344324e-01
5	 5	 33	 flanked	 bex	 2	 1.500000	 2.000000	 flanked_bex_freq_2_amplitude_1.5_rep_5_r_H_2.0.png	 H	 r	 r	 n.a.	 3.447181e-01
5	 5	 34	 flanked	 bex	 6	 1.000000	 2.000000	 flanked_bex_freq_6_amplitude_1_rep_7_l_D_2.0.png	 D	 l	 r	 n.a.	 6.743619e-01
5	 5	 35	 flanked	 bex	 8	 5.000000	 2.000000	 flanked_bex_freq_8_amplitude_5_rep_0_r_D_2.0.png	 D	 r	 r	 n.a.	 2.781573e-01
5	 5	 36	 flanked	 bex	 4	 1.000000	 2.000000	 flanked_bex_freq_4_amplitude_1_rep_1_r_N_2.0.png	 N	 r	 r	 n.a.	 4.301257e-01
5	 5	 37	 flanked	 bex	 16	 3.000000	 2.000000	 flanked_bex_freq_16_amplitude_3_rep_4_r_H_2.0.png	 H	 r	 r	 n.a.	 3.433843e-01
5	 5	 38	 flanked	 bex	 2	 0.500000	 2.000000	 flanked_bex_freq_2_amplitude_0.5_rep_7_r_D_2.0.png	 D	 r	 t	 n.a.	 5.294627e-01
5	 5	 39	 flanked	 bex	 16	 1.000000	 2.000000	 flanked_bex_freq_16_amplitude_1_rep_2_l_K_2.0.png	 K	 l	 r	 n.a.	 4.483756e-01
5	 5	 40	 flanked	 bex	 2	 0.500000	 2.000000	 flanked_bex_freq_2_amplitude_0.5_rep_5_l_D_2.0.png	 D	 l	 b	 n.a.	 4.208086e-01
5	 5	 41	 flanked	 bex	 32	 2.000000	 2.000000	 flanked_bex_freq_32_amplitude_2_rep_4_r_K_2.0.png	 K	 r	 l	 n.a.	 6.901163e-01
5	 5	 42	 flanked	 bex	 6	 1.000000	 2.000000	 flanked_bex_freq_6_amplitude_1_rep_2_l_H_2.0.png	 H	 l	 t	 n.a.	 8.327059e-01
5	 5	 43	 flanked	 bex	 8	 1.500000	 2.000000	 flanked_bex_freq_8_amplitude_1.5_rep_2_b_D_2.0.png	 D	 b	 r	 n.a.	 3.716164e-01
5	 5	 44	 flanked	 bex	 2	 5.000000	 2.000000	 flanked_bex_freq_2_amplitude_5_rep_8_b_K_2.0.png	 K	 b	 b	 n.a.	 3.808937e-01
5	 5	 45	 flanked	 bex	 6	 0.500000	 2.000000	 flanked_bex_freq_6_amplitude_0.5_rep_0_r_N_2.0.png	 N	 r	 r	 n.a.	 3.988274e-01
5	 5	 46	 flanked	 bex	 4	 0.500000	 2.000000	 flanked_bex_freq_4_amplitude_0.5_rep_7_t_K_2.0.png	 K	 t	 r	 n.a.	 5.318585e-01
5	 5	 47	 flanked	 bex	 4	 2.500000	 2.000000	 flanked_bex_freq_4_amplitude_2.5_rep_9_l_H_2.0.png	 H	 l	 l	 n.a.	 2.975225e-01
5	 5	 48	 flanked	 bex	 8	 2.500000	 2.000000	 flanked_bex_freq_8_amplitude_2.5_rep_6_t_H_2.0.png	 H	 t	 t	 n.a.	 5.270936e-01
5	 5	 49	 flanked	 bex	 8	 2.000000	 2.000000	 flanked_bex_freq_8_amplitude_2_rep_2_r_H_2.0.png	 H	 r	 r	 n.a.	 3.907259e-01
5	 5	 50	 flanked	 bex	 8	 2.000000	 2.000000	 flanked_bex_freq_8_amplitude_2_rep_3_b_D_2.0.png	 D	 b	 b	 n.a.	 4.732803e-01
5	 5	 51	 flanked	 bex	 4	 1.000000	 2.000000	 flanked_bex_freq_4_amplitude_1_rep_3_b_H_2.0.png	 H	 b	 b	 n.a.	 4.003570e-01
5	 5	 52	 flanked	 bex	 6	 0.500000	 2.000000	 flanked_bex_freq_6_amplitude_0.5_rep_4_t_D_2.0.png	 D	 t	 r	 n.a.	 3.852049e-01
5	 5	 53	 flanked	 bex	 32	 5.000000	 2.000000	 flanked_bex_freq_32_amplitude_5_rep_2_r_D_2.0.png	 D	 r	 r	 n.a.	 2.581065e-01
5	 5	 54	 flanked	 bex	 32	 3.000000	 2.000000	 flanked_bex_freq_32_amplitude_3_rep_6_t_N_2.0.png	 N	 t	 t	 n.a.	 5.446593e-01
5	 5	 55	 flanked	 bex	 16	 2.500000	 2.000000	 flanked_bex_freq_16_amplitude_2.5_rep_7_r_D_2.0.png	 D	 r	 r	 n.a.	 3.494474e-01
5	 5	 56	 flanked	 bex	 6	 1.500000	 2.000000	 flanked_bex_freq_6_amplitude_1.5_rep_2_t_N_2.0.png	 N	 t	 t	 n.a.	 4.011418e-01
5	 5	 57	 flanked	 bex	 32	 5.000000	 2.000000	 flanked_bex_freq_32_amplitude_5_rep_9_l_D_2.0.png	 D	 l	 l	 n.a.	 3.050642e-01
5	 5	 58	 flanked	 bex	 2	 3.000000	 2.000000	 flanked_bex_freq_2_amplitude_3_rep_2_l_K_2.0.png	 K	 l	 b	 n.a.	 6.077119e-01
5	 5	 59	 flanked	 bex	 32	 0.500000	 2.000000	 flanked_bex_freq_32_amplitude_0.5_rep_6_r_K_2.0.png	 K	 r	 l	 n.a.	 4.565994e-01
5	 5	 60	 flanked	 bex	 16	 2.500000	 2.000000	 flanked_bex_freq_16_amplitude_2.5_rep_0_l_K_2.0.png	 K	 l	 l	 n.a.	 3.083961e-01
5	 5	 61	 flanked	 bex	 4	 0.500000	 2.000000	 flanked_bex_freq_4_amplitude_0.5_rep_0_b_H_2.0.png	 H	 b	 r	 n.a.	 4.681865e-01
5	 5	 62	 flanked	 bex	 4	 1.500000	 2.000000	 flanked_bex_freq_4_amplitude_1.5_rep_5_l_H_2.0.png	 H	 l	 l	 n.a.	 4.517865e-01
5	 5	 63	 flanked	 bex	 32	 1.500000	 2.000000	 flanked_bex_freq_32_amplitude_1.5_rep_7_t_H_2.0.png	 H	 t	 t	 n.a.	 3.879455e-01
5	 5	 64	 flanked	 bex	 6	 3.000000	 2.000000	 flanked_bex_freq_6_amplitude_3_rep_4_t_D_2.0.png	 D	 t	 t	 n.a.	 3.518401e-01
5	 5	 65	 flanked	 bex	 32	 5.000000	 2.000000	 flanked_bex_freq_32_amplitude_5_rep_8_l_K_2.0.png	 K	 l	 l	 n.a.	 2.937837e-01
5	 5	 66	 flanked	 bex	 6	 2.000000	 2.000000	 flanked_bex_freq_6_amplitude_2_rep_4_t_D_2.0.png	 D	 t	 t	 n.a.	 6.396584e-01
5	 5	 67	 flanked	 bex	 16	 1.500000	 2.000000	 flanked_bex_freq_16_amplitude_1.5_rep_3_t_H_2.0.png	 H	 t	 r	 n.a.	 5.394172e-01
5	 5	 68	 flanked	 bex	 32	 2.000000	 2.000000	 flanked_bex_freq_32_amplitude_2_rep_9_l_N_2.0.png	 N	 l	 l	 n.a.	 4.043733e-01
5	 5	 69	 flanked	 bex	 2	 2.500000	 2.000000	 flanked_bex_freq_2_amplitude_2.5_rep_0_r_K_2.0.png	 K	 r	 r	 n.a.	 3.945558e-01
5	 5	 70	 flanked	 bex	 4	 5.000000	 2.000000	 flanked_bex_freq_4_amplitude_5_rep_1_t_K_2.0.png	 K	 t	 t	 n.a.	 3.271663e-01
5	 5	 71	 flanked	 bex	 32	 2.000000	 2.000000	 flanked_bex_freq_32_amplitude_2_rep_3_b_K_2.0.png	 K	 b	 b	 n.a.	 4.328296e-01
5	 5	 72	 flanked	 bex	 32	 2.000000	 2.000000	 flanked_bex_freq_32_amplitude_2_rep_5_t_K_2.0.png	 K	 t	 r	 n.a.	 4.017514e-01
5	 5	 73	 flanked	 bex	 4	 5.000000	 2.000000	 flanked_bex_freq_4_amplitude_5_rep_6_b_N_2.0.png	 N	 b	 b	 n.a.	 3.773317e-01
5	 5	 74	 flanked	 bex	 16	 2.000000	 2.000000	 flanked_bex_freq_16_amplitude_2_rep_2_l_N_2.0.png	 N	 l	 l	 n.a.	 3.684429e-01
5	 5	 75	 flanked	 bex	 32	 1.000000	 2.000000	 flanked_bex_freq_32_amplitude_1_rep_6_t_D_2.0.png	 D	 t	 r	 n.a.	 5.522484e-01
5	 5	 76	 flanked	 bex	 6	 1.000000	 2.000000	 flanked_bex_freq_6_amplitude_1_rep_9_t_K_2.0.png	 K	 t	 b	 n.a.	 6.980717e-01
5	 5	 77	 flanked	 bex	 4	 1.000000	 2.000000	 flanked_bex_freq_4_amplitude_1_rep_0_b_D_2.0.png	 D	 b	 l	 n.a.	 4.326919e-01
5	 5	 78	 flanked	 bex	 2	 3.000000	 2.000000	 flanked_bex_freq_2_amplitude_3_rep_0_l_H_2.0.png	 H	 l	 l	 n.a.	 3.501863e-01
5	 5	 79	 flanked	 bex	 32	 1.000000	 2.000000	 flanked_bex_freq_32_amplitude_1_rep_8_t_K_2.0.png	 K	 t	 t	 n.a.	 5.089940e-01
5	 5	 80	 flanked	 bex	 16	 2.500000	 2.000000	 flanked_bex_freq_16_amplitude_2.5_rep_3_l_N_2.0.png	 N	 l	 l	 n.a.	 3.627123e-01
5	 5	 81	 flanked	 bex	 2	 5.000000	 2.000000	 flanked_bex_freq_2_amplitude_5_rep_0_t_N_2.0.png	 N	 t	 r	 n.a.	 4.019077e-01
5	 5	 82	 flanked	 bex	 2	 1.500000	 2.000000	 flanked_bex_freq_2_amplitude_1.5_rep_0_b_D_2.0.png	 D	 b	 t	 n.a.	 6.557404e-01
5	 5	 83	 flanked	 bex	 4	 1.000000	 2.000000	 flanked_bex_freq_4_amplitude_1_rep_2_b_D_2.0.png	 D	 b	 r	 n.a.	 4.881291e-01
5	 5	 84	 flanked	 bex	 8	 1.000000	 2.000000	 flanked_bex_freq_8_amplitude_1_rep_4_t_N_2.0.png	 N	 t	 r	 n.a.	 8.709933e-01
5	 5	 85	 flanked	 bex	 16	 0.500000	 2.000000	 flanked_bex_freq_16_amplitude_0.5_rep_7_l_N_2.0.png	 N	 l	 b	 n.a.	 3.805828e-01
5	 5	 86	 flanked	 bex	 2	 0.500000	 2.000000	 flanked_bex_freq_2_amplitude_0.5_rep_4_b_H_2.0.png	 H	 b	 t	 n.a.	 3.345524e-01
5	 5	 87	 flanked	 bex	 32	 2.500000	 2.000000	 flanked_bex_freq_32_amplitude_2.5_rep_4_l_N_2.0.png	 N	 l	 l	 n.a.	 2.945172e-01
5	 5	 88	 flanked	 bex	 2	 1.000000	 2.000000	 flanked_bex_freq_2_amplitude_1_rep_7_b_N_2.0.png	 N	 b	 l	 n.a.	 6.454013e-01
5	 5	 89	 flanked	 bex	 8	 0.500000	 2.000000	 flanked_bex_freq_8_amplitude_0.5_rep_1_l_H_2.0.png	 H	 l	 t	 n.a.	 5.405525e-01
5	 5	 90	 flanked	 bex	 32	 2.500000	 2.000000	 flanked_bex_freq_32_amplitude_2.5_rep_2_b_H_2.0.png	 H	 b	 l	 n.a.	 8.977881e-01
5	 5	 91	 flanked	 bex	 4	 3.000000	 2.000000	 flanked_bex_freq_4_amplitude_3_rep_4_t_D_2.0.png	 D	 t	 b	 n.a.	 7.327410e-01
5	 5	 92	 flanked	 bex	 6	 2.000000	 2.000000	 flanked_bex_freq_6_amplitude_2_rep_6_b_D_2.0.png	 D	 b	 b	 n.a.	 5.667025e-01
5	 5	 93	 flanked	 bex	 8	 2.500000	 2.000000	 flanked_bex_freq_8_amplitude_2.5_rep_0_l_N_2.0.png	 N	 l	 l	 n.a.	 2.889417e-01
5	 5	 94	 flanked	 bex	 8	 0.500000	 2.000000	 flanked_bex_freq_8_amplitude_0.5_rep_8_l_D_2.0.png	 D	 l	 l	 n.a.	 5.236663e-01
5	 5	 95	 flanked	 bex	 32	 3.000000	 2.000000	 flanked_bex_freq_32_amplitude_3_rep_4_b_N_2.0.png	 N	 b	 t	 n.a.	 4.835527e-01
5	 5	 96	 flanked	 bex	 32	 1.500000	 2.000000	 flanked_bex_freq_32_amplitude_1.5_rep_4_b_H_2.0.png	 H	 b	 l	 n.a.	 4.471791e-01
5	 5	 97	 flanked	 bex	 16	 2.000000	 2.000000	 flanked_bex_freq_16_amplitude_2_rep_5_b_N_2.0.png	 N	 b	 t	 n.a.	 5.141269e-01
5	 5	 98	 flanked	 bex	 8	 5.000000	 2.000000	 flanked_bex_freq_8_amplitude_5_rep_1_l_D_2.0.png	 D	 l	 l	 n.a.	 2.330110e-01
5	 5	 99	 flanked	 bex	 4	 1.000000	 2.000000	 flanked_bex_freq_4_amplitude_1_rep_7_l_D_2.0.png	 D	 l	 t	 n.a.	 6.697378e-01
5	 5	 100	 flanked	 bex	 8	 0.500000	 2.000000	 flanked_bex_freq_8_amplitude_0.5_rep_6_t_N_2.0.png	 N	 t	 r	 n.a.	 3.715081e-01
5	 5	 101	 flanked	 bex	 2	 0.500000	 2.000000	 flanked_bex_freq_2_amplitude_0.5_rep_9_r_K_2.0.png	 K	 r	 l	 n.a.	 5.628610e-01
5	 5	 102	 flanked	 bex	 6	 3.000000	 2.000000	 flanked_bex_freq_6_amplitude_3_rep_9_l_D_2.0.png	 D	 l	 l	 n.a.	 2.583237e-01
5	 5	 103	 flanked	 bex	 8	 1.000000	 2.000000	 flanked_bex_freq_8_amplitude_1_rep_3_t_K_2.0.png	 K	 t	 t	 n.a.	 3.788976e-01
5	 5	 104	 flanked	 bex	 4	 2.000000	 2.000000	 flanked_bex_freq_4_amplitude_2_rep_6_l_D_2.0.png	 D	 l	 r	 n.a.	 2.150153e-01
5	 5	 105	 flanked	 bex	 32	 1.000000	 2.000000	 flanked_bex_freq_32_amplitude_1_rep_1_b_K_2.0.png	 K	 b	 b	 n.a.	 7.314220e-01
5	 5	 106	 flanked	 bex	 16	 1.500000	 2.000000	 flanked_bex_freq_16_amplitude_1.5_rep_5_t_H_2.0.png	 H	 t	 t	 n.a.	 5.155684e-01
5	 5	 107	 flanked	 bex	 16	 1.500000	 2.000000	 flanked_bex_freq_16_amplitude_1.5_rep_0_b_K_2.0.png	 K	 b	 t	 n.a.	 5.628195e-01
5	 5	 108	 flanked	 bex	 8	 2.500000	 2.000000	 flanked_bex_freq_8_amplitude_2.5_rep_5_r_K_2.0.png	 K	 r	 r	 n.a.	 3.246538e-01
5	 5	 109	 flanked	 bex	 2	 1.500000	 2.000000	 flanked_bex_freq_2_amplitude_1.5_rep_4_r_N_2.0.png	 N	 r	 t	 n.a.	 5.850462e-01
5	 5	 110	 flanked	 bex	 6	 2.000000	 2.000000	 flanked_bex_freq_6_amplitude_2_rep_2_l_D_2.0.png	 D	 l	 l	 n.a.	 2.610084e-01
5	 5	 111	 flanked	 bex	 8	 2.500000	 2.000000	 flanked_bex_freq_8_amplitude_2.5_rep_2_l_D_2.0.png	 D	 l	 l	 n.a.	 3.702210e-01
5	 5	 112	 flanked	 bex	 8	 5.000000	 2.000000	 flanked_bex_freq_8_amplitude_5_rep_5_l_D_2.0.png	 D	 l	 l	 n.a.	 2.457211e-01
5	 5	 113	 flanked	 bex	 4	 5.000000	 2.000000	 flanked_bex_freq_4_amplitude_5_rep_5_b_N_2.0.png	 N	 b	 b	 n.a.	 3.699347e-01
5	 5	 114	 flanked	 bex	 2	 1.500000	 2.000000	 flanked_bex_freq_2_amplitude_1.5_rep_9_t_D_2.0.png	 D	 t	 b	 n.a.	 7.261922e-01
5	 5	 115	 flanked	 bex	 4	 5.000000	 2.000000	 flanked_bex_freq_4_amplitude_5_rep_0_t_D_2.0.png	 D	 t	 t	 n.a.	 4.864394e-01
5	 5	 116	 flanked	 bex	 4	 0.500000	 2.000000	 flanked_bex_freq_4_amplitude_0.5_rep_6_l_H_2.0.png	 H	 l	 l	 n.a.	 4.101215e-01
5	 5	 117	 flanked	 bex	 6	 1.000000	 2.000000	 flanked_bex_freq_6_amplitude_1_rep_1_b_K_2.0.png	 K	 b	 b	 n.a.	 7.303383e-01
5	 5	 118	 flanked	 bex	 16	 1.500000	 2.000000	 flanked_bex_freq_16_amplitude_1.5_rep_4_r_K_2.0.png	 K	 r	 r	 n.a.	 3.167353e-01
5	 5	 119	 flanked	 bex	 2	 2.000000	 2.000000	 flanked_bex_freq_2_amplitude_2_rep_9_l_H_2.0.png	 H	 l	 b	 n.a.	 4.362987e-01
5	 5	 120	 flanked	 bex	 2	 5.000000	 2.000000	 flanked_bex_freq_2_amplitude_5_rep_3_l_H_2.0.png	 H	 l	 l	 n.a.	 2.878138e-01
5	 5	 121	 flanked	 bex	 16	 5.000000	 2.000000	 flanked_bex_freq_16_amplitude_5_rep_9_b_D_2.0.png	 D	 b	 b	 n.a.	 4.245085e-01
5	 5	 122	 flanked	 bex	 4	 2.000000	 2.000000	 flanked_bex_freq_4_amplitude_2_rep_7_t_D_2.0.png	 D	 t	 r	 n.a.	 4.973523e-01
5	 5	 123	 flanked	 bex	 16	 5.000000	 2.000000	 flanked_bex_freq_16_amplitude_5_rep_4_b_N_2.0.png	 N	 b	 b	 n.a.	 4.785217e-01
5	 5	 124	 flanked	 bex	 6	 5.000000	 2.000000	 flanked_bex_freq_6_amplitude_5_rep_4_b_D_2.0.png	 D	 b	 b	 n.a.	 2.575200e-01
5	 5	 125	 flanked	 bex	 32	 1.000000	 2.000000	 flanked_bex_freq_32_amplitude_1_rep_9_t_K_2.0.png	 K	 t	 r	 n.a.	 4.394496e-01
5	 5	 126	 flanked	 bex	 4	 3.000000	 2.000000	 flanked_bex_freq_4_amplitude_3_rep_7_b_D_2.0.png	 D	 b	 t	 n.a.	 5.212522e-01
5	 5	 127	 flanked	 bex	 2	 2.000000	 2.000000	 flanked_bex_freq_2_amplitude_2_rep_7_t_H_2.0.png	 H	 t	 b	 n.a.	 4.495880e-01
5	 5	 128	 flanked	 bex	 8	 5.000000	 2.000000	 flanked_bex_freq_8_amplitude_5_rep_7_b_H_2.0.png	 H	 b	 b	 n.a.	 2.473541e-01
5	 5	 129	 flanked	 bex	 2	 1.500000	 2.000000	 flanked_bex_freq_2_amplitude_1.5_rep_6_l_H_2.0.png	 H	 l	 r	 n.a.	 7.642747e-01
5	 5	 130	 flanked	 bex	 6	 3.000000	 2.000000	 flanked_bex_freq_6_amplitude_3_rep_3_l_H_2.0.png	 H	 l	 l	 n.a.	 2.469598e-01
5	 5	 131	 flanked	 bex	 2	 3.000000	 2.000000	 flanked_bex_freq_2_amplitude_3_rep_4_r_D_2.0.png	 D	 r	 r	 n.a.	 4.071239e-01
5	 5	 132	 flanked	 bex	 16	 3.000000	 2.000000	 flanked_bex_freq_16_amplitude_3_rep_9_r_K_2.0.png	 K	 r	 r	 n.a.	 2.422359e-01
5	 5	 133	 flanked	 bex	 6	 1.500000	 2.000000	 flanked_bex_freq_6_amplitude_1.5_rep_8_b_K_2.0.png	 K	 b	 b	 n.a.	 3.344253e-01
5	 5	 134	 flanked	 bex	 8	 5.000000	 2.000000	 flanked_bex_freq_8_amplitude_5_rep_3_l_N_2.0.png	 N	 l	 l	 n.a.	 2.476666e-01
5	 5	 135	 flanked	 bex	 2	 2.500000	 2.000000	 flanked_bex_freq_2_amplitude_2.5_rep_5_t_N_2.0.png	 N	 t	 r	 n.a.	 3.174669e-01
5	 5	 136	 flanked	 bex	 32	 5.000000	 2.000000	 flanked_bex_freq_32_amplitude_5_rep_7_l_K_2.0.png	 K	 l	 l	 n.a.	 2.237387e-01
5	 5	 137	 flanked	 bex	 32	 1.500000	 2.000000	 flanked_bex_freq_32_amplitude_1.5_rep_2_l_K_2.0.png	 K	 l	 r	 n.a.	 7.374443e-01
5	 5	 138	 flanked	 bex	 6	 1.500000	 2.000000	 flanked_bex_freq_6_amplitude_1.5_rep_9_b_H_2.0.png	 H	 b	 t	 n.a.	 4.335074e-01
5	 5	 139	 flanked	 bex	 8	 2.000000	 2.000000	 flanked_bex_freq_8_amplitude_2_rep_1_l_K_2.0.png	 K	 l	 l	 n.a.	 2.428123e-01
5	 5	 140	 flanked	 bex	 4	 1.000000	 2.000000	 flanked_bex_freq_4_amplitude_1_rep_4_l_K_2.0.png	 K	 l	 b	 n.a.	 4.637482e-01
5	 5	 141	 flanked	 bex	 2	 2.000000	 2.000000	 flanked_bex_freq_2_amplitude_2_rep_5_t_D_2.0.png	 D	 t	 b	 n.a.	 4.490209e-01
5	 5	 142	 flanked	 bex	 16	 2.500000	 2.000000	 flanked_bex_freq_16_amplitude_2.5_rep_4_t_H_2.0.png	 H	 t	 t	 n.a.	 4.415981e-01
5	 5	 143	 flanked	 bex	 8	 2.500000	 2.000000	 flanked_bex_freq_8_amplitude_2.5_rep_9_b_K_2.0.png	 K	 b	 b	 n.a.	 3.455064e-01
5	 5	 144	 flanked	 bex	 2	 5.000000	 2.000000	 flanked_bex_freq_2_amplitude_5_rep_6_r_D_2.0.png	 D	 r	 r	 n.a.	 3.547621e-01
5	 5	 145	 flanked	 bex	 32	 5.000000	 2.000000	 flanked_bex_freq_32_amplitude_5_rep_1_r_H_2.0.png	 H	 r	 r	 n.a.	 2.290561e-01
5	 5	 146	 flanked	 bex	 32	 2.000000	 2.000000	 flanked_bex_freq_32_amplitude_2_rep_0_t_K_2.0.png	 K	 t	 t	 n.a.	 5.384060e-01
5	 5	 147	 flanked	 bex	 6	 5.000000	 2.000000	 flanked_bex_freq_6_amplitude_5_rep_1_t_H_2.0.png	 H	 t	 t	 n.a.	 4.159029e-01
5	 5	 148	 flanked	 bex	 4	 2.000000	 2.000000	 flanked_bex_freq_4_amplitude_2_rep_2_l_K_2.0.png	 K	 l	 l	 n.a.	 3.371626e-01
5	 5	 149	 flanked	 bex	 4	 3.000000	 2.000000	 flanked_bex_freq_4_amplitude_3_rep_9_r_H_2.0.png	 H	 r	 r	 n.a.	 1.993743e-01
5	 5	 150	 flanked	 bex	 4	 1.500000	 2.000000	 flanked_bex_freq_4_amplitude_1.5_rep_7_b_H_2.0.png	 H	 b	 t	 n.a.	 6.450475e-01
5	 5	 151	 flanked	 bex	 6	 5.000000	 2.000000	 flanked_bex_freq_6_amplitude_5_rep_0_b_N_2.0.png	 N	 b	 b	 n.a.	 2.779119e-01
5	 5	 152	 flanked	 bex	 6	 3.000000	 2.000000	 flanked_bex_freq_6_amplitude_3_rep_1_b_N_2.0.png	 N	 b	 r	 n.a.	 4.383040e-01
5	 5	 153	 flanked	 bex	 32	 1.500000	 2.000000	 flanked_bex_freq_32_amplitude_1.5_rep_1_r_K_2.0.png	 K	 r	 r	 n.a.	 4.158589e-01
5	 5	 154	 flanked	 bex	 6	 3.000000	 2.000000	 flanked_bex_freq_6_amplitude_3_rep_8_b_D_2.0.png	 D	 b	 b	 n.a.	 3.810498e-01
5	 5	 155	 flanked	 bex	 16	 1.000000	 2.000000	 flanked_bex_freq_16_amplitude_1_rep_0_t_K_2.0.png	 K	 t	 t	 n.a.	 4.686059e-01
5	 5	 156	 flanked	 bex	 4	 0.500000	 2.000000	 flanked_bex_freq_4_amplitude_0.5_rep_3_l_K_2.0.png	 K	 l	 l	 n.a.	 4.152896e-01
5	 5	 157	 flanked	 bex	 16	 5.000000	 2.000000	 flanked_bex_freq_16_amplitude_5_rep_3_b_N_2.0.png	 N	 b	 b	 n.a.	 4.000124e-01
5	 5	 158	 flanked	 bex	 2	 2.500000	 2.000000	 flanked_bex_freq_2_amplitude_2.5_rep_8_r_H_2.0.png	 H	 r	 r	 n.a.	 4.095945e-01
5	 5	 159	 flanked	 bex	 8	 2.000000	 2.000000	 flanked_bex_freq_8_amplitude_2_rep_9_l_D_2.0.png	 D	 l	 l	 n.a.	 2.499227e-01
5	 5	 160	 flanked	 bex	 2	 3.000000	 2.000000	 flanked_bex_freq_2_amplitude_3_rep_9_r_N_2.0.png	 N	 r	 b	 n.a.	 3.926437e-01
5	 5	 161	 flanked	 bex	 32	 1.000000	 2.000000	 flanked_bex_freq_32_amplitude_1_rep_4_r_N_2.0.png	 N	 r	 t	 n.a.	 4.465745e-01
5	 5	 162	 flanked	 bex	 6	 1.500000	 2.000000	 flanked_bex_freq_6_amplitude_1.5_rep_6_b_N_2.0.png	 N	 b	 b	 n.a.	 3.917341e-01
5	 5	 163	 flanked	 bex	 4	 1.500000	 2.000000	 flanked_bex_freq_4_amplitude_1.5_rep_9_b_K_2.0.png	 K	 b	 b	 n.a.	 3.679619e-01
5	 5	 164	 flanked	 bex	 16	 2.500000	 2.000000	 flanked_bex_freq_16_amplitude_2.5_rep_8_l_N_2.0.png	 N	 l	 l	 n.a.	 4.359393e-01
5	 5	 165	 flanked	 bex	 4	 1.500000	 2.000000	 flanked_bex_freq_4_amplitude_1.5_rep_3_l_D_2.0.png	 D	 l	 r	 n.a.	 4.745794e-01
5	 5	 166	 flanked	 bex	 2	 3.000000	 2.000000	 flanked_bex_freq_2_amplitude_3_rep_5_r_D_2.0.png	 D	 r	 r	 n.a.	 4.001545e-01
5	 5	 167	 flanked	 bex	 32	 5.000000	 2.000000	 flanked_bex_freq_32_amplitude_5_rep_3_r_H_2.0.png	 H	 r	 r	 n.a.	 2.892233e-01
5	 5	 168	 flanked	 bex	 16	 5.000000	 2.000000	 flanked_bex_freq_16_amplitude_5_rep_2_l_D_2.0.png	 D	 l	 l	 n.a.	 2.212935e-01
5	 5	 169	 flanked	 bex	 32	 3.000000	 2.000000	 flanked_bex_freq_32_amplitude_3_rep_9_l_D_2.0.png	 D	 l	 l	 n.a.	 3.111650e-01
5	 5	 170	 flanked	 bex	 4	 2.500000	 2.000000	 flanked_bex_freq_4_amplitude_2.5_rep_7_t_D_2.0.png	 D	 t	 r	 n.a.	 6.567505e-01
5	 5	 171	 flanked	 bex	 16	 0.500000	 2.000000	 flanked_bex_freq_16_amplitude_0.5_rep_5_r_N_2.0.png	 N	 r	 l	 n.a.	 5.047414e-01
5	 5	 172	 flanked	 bex	 8	 1.000000	 2.000000	 flanked_bex_freq_8_amplitude_1_rep_2_r_N_2.0.png	 N	 r	 r	 n.a.	 4.769885e-01
5	 5	 173	 flanked	 bex	 32	 1.000000	 2.000000	 flanked_bex_freq_32_amplitude_1_rep_0_r_D_2.0.png	 D	 r	 t	 n.a.	 9.315674e-01
5	 5	 174	 flanked	 bex	 16	 2.500000	 2.000000	 flanked_bex_freq_16_amplitude_2.5_rep_9_r_N_2.0.png	 N	 r	 r	 n.a.	 2.272046e-01
5	 5	 175	 flanked	 bex	 32	 1.500000	 2.000000	 flanked_bex_freq_32_amplitude_1.5_rep_9_l_K_2.0.png	 K	 l	 l	 n.a.	 3.771972e-01
5	 5	 176	 flanked	 bex	 8	 2.000000	 2.000000	 flanked_bex_freq_8_amplitude_2_rep_8_l_D_2.0.png	 D	 l	 l	 n.a.	 2.979795e-01
5	 5	 177	 flanked	 bex	 8	 0.500000	 2.000000	 flanked_bex_freq_8_amplitude_0.5_rep_3_t_H_2.0.png	 H	 t	 b	 n.a.	 5.073597e-01
5	 5	 178	 flanked	 bex	 32	 0.500000	 2.000000	 flanked_bex_freq_32_amplitude_0.5_rep_5_r_K_2.0.png	 K	 r	 r	 n.a.	 2.848753e-01
5	 5	 179	 flanked	 bex	 8	 2.500000	 2.000000	 flanked_bex_freq_8_amplitude_2.5_rep_7_b_N_2.0.png	 N	 b	 r	 n.a.	 8.161518e-01
5	 5	 180	 flanked	 bex	 6	 2.500000	 2.000000	 flanked_bex_freq_6_amplitude_2.5_rep_6_t_D_2.0.png	 D	 t	 t	 n.a.	 4.758303e-01
5	 5	 181	 flanked	 bex	 32	 0.500000	 2.000000	 flanked_bex_freq_32_amplitude_0.5_rep_3_t_N_2.0.png	 N	 t	 r	 n.a.	 4.411568e-01
5	 5	 182	 flanked	 bex	 2	 0.500000	 2.000000	 flanked_bex_freq_2_amplitude_0.5_rep_1_l_D_2.0.png	 D	 l	 r	 n.a.	 9.263904e-01
5	 5	 183	 flanked	 bex	 4	 5.000000	 2.000000	 flanked_bex_freq_4_amplitude_5_rep_7_r_H_2.0.png	 H	 r	 r	 n.a.	 2.896340e-01
5	 5	 184	 flanked	 bex	 8	 2.500000	 2.000000	 flanked_bex_freq_8_amplitude_2.5_rep_4_b_D_2.0.png	 D	 b	 t	 n.a.	 5.175702e-01
5	 5	 185	 flanked	 bex	 4	 0.500000	 2.000000	 flanked_bex_freq_4_amplitude_0.5_rep_1_r_H_2.0.png	 H	 r	 r	 n.a.	 6.524029e-01
5	 5	 186	 flanked	 bex	 8	 3.000000	 2.000000	 flanked_bex_freq_8_amplitude_3_rep_2_r_D_2.0.png	 D	 r	 r	 n.a.	 2.656697e-01
5	 5	 187	 flanked	 bex	 4	 1.000000	 2.000000	 flanked_bex_freq_4_amplitude_1_rep_8_t_H_2.0.png	 H	 t	 b	 n.a.	 3.725404e-01
5	 5	 188	 flanked	 bex	 8	 2.000000	 2.000000	 flanked_bex_freq_8_amplitude_2_rep_0_t_D_2.0.png	 D	 t	 t	 n.a.	 9.662488e-01
5	 5	 189	 flanked	 bex	 8	 3.000000	 2.000000	 flanked_bex_freq_8_amplitude_3_rep_1_b_K_2.0.png	 K	 b	 b	 n.a.	 4.482403e-01
5	 5	 190	 flanked	 bex	 8	 2.500000	 2.000000	 flanked_bex_freq_8_amplitude_2.5_rep_1_l_D_2.0.png	 D	 l	 l	 n.a.	 2.882361e-01
5	 5	 191	 flanked	 bex	 16	 5.000000	 2.000000	 flanked_bex_freq_16_amplitude_5_rep_6_l_N_2.0.png	 N	 l	 l	 n.a.	 2.203872e-01
5	 5	 192	 flanked	 bex	 4	 2.500000	 2.000000	 flanked_bex_freq_4_amplitude_2.5_rep_8_b_D_2.0.png	 D	 b	 t	 n.a.	 7.176514e-01
5	 5	 193	 flanked	 bex	 16	 0.500000	 2.000000	 flanked_bex_freq_16_amplitude_0.5_rep_6_t_N_2.0.png	 N	 t	 b	 n.a.	 6.305461e-01
5	 5	 194	 flanked	 bex	 16	 5.000000	 2.000000	 flanked_bex_freq_16_amplitude_5_rep_0_t_D_2.0.png	 D	 t	 t	 n.a.	 4.788392e-01
5	 5	 195	 flanked	 bex	 8	 2.500000	 2.000000	 flanked_bex_freq_8_amplitude_2.5_rep_3_l_N_2.0.png	 N	 l	 l	 n.a.	 2.610707e-01
5	 5	 196	 flanked	 bex	 32	 1.500000	 2.000000	 flanked_bex_freq_32_amplitude_1.5_rep_3_r_D_2.0.png	 D	 r	 r	 n.a.	 4.443936e-01
5	 5	 197	 flanked	 bex	 32	 1.500000	 2.000000	 flanked_bex_freq_32_amplitude_1.5_rep_0_b_H_2.0.png	 H	 b	 t	 n.a.	 5.942954e-01
5	 5	 198	 flanked	 bex	 6	 2.500000	 2.000000	 flanked_bex_freq_6_amplitude_2.5_rep_4_t_K_2.0.png	 K	 t	 t	 n.a.	 4.390865e-01
5	 5	 199	 flanked	 bex	 2	 1.500000	 2.000000	 flanked_bex_freq_2_amplitude_1.5_rep_8_l_D_2.0.png	 D	 l	 r	 n.a.	 4.562453e-01
5	 5	 200	 flanked	 bex	 2	 1.500000	 2.000000	 flanked_bex_freq_2_amplitude_1.5_rep_2_b_H_2.0.png	 H	 b	 t	 n.a.	 5.486720e-01
5	 5	 201	 flanked	 bex	 4	 5.000000	 2.000000	 flanked_bex_freq_4_amplitude_5_rep_8_l_N_2.0.png	 N	 l	 l	 n.a.	 2.736958e-01
5	 5	 202	 flanked	 bex	 4	 2.500000	 2.000000	 flanked_bex_freq_4_amplitude_2.5_rep_2_t_N_2.0.png	 N	 t	 t	 n.a.	 5.034159e-01
5	 5	 203	 flanked	 bex	 2	 2.500000	 2.000000	 flanked_bex_freq_2_amplitude_2.5_rep_2_l_K_2.0.png	 K	 l	 b	 n.a.	 5.119904e-01
5	 5	 204	 flanked	 bex	 32	 2.500000	 2.000000	 flanked_bex_freq_32_amplitude_2.5_rep_8_b_H_2.0.png	 H	 b	 b	 n.a.	 4.871191e-01
5	 5	 205	 flanked	 bex	 4	 0.500000	 2.000000	 flanked_bex_freq_4_amplitude_0.5_rep_9_t_K_2.0.png	 K	 t	 r	 n.a.	 3.836571e-01
5	 5	 206	 flanked	 bex	 2	 1.000000	 2.000000	 flanked_bex_freq_2_amplitude_1_rep_3_b_K_2.0.png	 K	 b	 b	 n.a.	 4.848365e-01
5	 5	 207	 flanked	 bex	 4	 2.500000	 2.000000	 flanked_bex_freq_4_amplitude_2.5_rep_4_l_H_2.0.png	 H	 l	 l	 n.a.	 2.853035e-01
5	 5	 208	 flanked	 bex	 4	 2.500000	 2.000000	 flanked_bex_freq_4_amplitude_2.5_rep_0_t_K_2.0.png	 K	 t	 t	 n.a.	 5.693555e-01
5	 5	 209	 flanked	 bex	 8	 3.000000	 2.000000	 flanked_bex_freq_8_amplitude_3_rep_7_l_K_2.0.png	 K	 l	 l	 n.a.	 2.910211e-01
5	 5	 210	 flanked	 bex	 6	 1.000000	 2.000000	 flanked_bex_freq_6_amplitude_1_rep_0_t_K_2.0.png	 K	 t	 b	 n.a.	 3.359954e-01
5	 5	 211	 flanked	 bex	 16	 2.500000	 2.000000	 flanked_bex_freq_16_amplitude_2.5_rep_1_r_H_2.0.png	 H	 r	 r	 n.a.	 2.384163e-01
5	 5	 212	 flanked	 bex	 4	 2.500000	 2.000000	 flanked_bex_freq_4_amplitude_2.5_rep_5_r_H_2.0.png	 H	 r	 r	 n.a.	 3.007242e-01
5	 5	 213	 flanked	 bex	 6	 2.000000	 2.000000	 flanked_bex_freq_6_amplitude_2_rep_1_t_K_2.0.png	 K	 t	 t	 n.a.	 4.781169e-01
5	 5	 214	 flanked	 bex	 8	 2.500000	 2.000000	 flanked_bex_freq_8_amplitude_2.5_rep_8_r_N_2.0.png	 N	 r	 r	 n.a.	 2.690679e-01
5	 5	 215	 flanked	 bex	 32	 3.000000	 2.000000	 flanked_bex_freq_32_amplitude_3_rep_1_t_K_2.0.png	 K	 t	 l	 n.a.	 3.494449e-01
5	 5	 216	 flanked	 bex	 32	 2.000000	 2.000000	 flanked_bex_freq_32_amplitude_2_rep_8_l_N_2.0.png	 N	 l	 r	 n.a.	 8.393059e-01
5	 5	 217	 flanked	 bex	 6	 0.500000	 2.000000	 flanked_bex_freq_6_amplitude_0.5_rep_6_r_K_2.0.png	 K	 r	 r	 n.a.	 5.355684e-01
5	 5	 218	 flanked	 bex	 8	 1.500000	 2.000000	 flanked_bex_freq_8_amplitude_1.5_rep_3_t_K_2.0.png	 K	 t	 t	 n.a.	 2.922503e-01
5	 5	 219	 flanked	 bex	 32	 2.500000	 2.000000	 flanked_bex_freq_32_amplitude_2.5_rep_7_l_H_2.0.png	 H	 l	 l	 n.a.	 3.456289e-01
5	 5	 220	 flanked	 bex	 8	 2.000000	 2.000000	 flanked_bex_freq_8_amplitude_2_rep_5_t_D_2.0.png	 D	 t	 l	 n.a.	 4.075726e-01
5	 5	 221	 flanked	 bex	 16	 1.000000	 2.000000	 flanked_bex_freq_16_amplitude_1_rep_9_t_D_2.0.png	 D	 t	 r	 n.a.	 5.019470e-01
5	 5	 222	 flanked	 bex	 4	 1.000000	 2.000000	 flanked_bex_freq_4_amplitude_1_rep_6_r_D_2.0.png	 D	 r	 r	 n.a.	 6.877849e-01
5	 5	 223	 flanked	 bex	 16	 0.500000	 2.000000	 flanked_bex_freq_16_amplitude_0.5_rep_3_l_D_2.0.png	 D	 l	 t	 n.a.	 3.361601e-01
5	 5	 224	 flanked	 bex	 4	 5.000000	 2.000000	 flanked_bex_freq_4_amplitude_5_rep_3_t_H_2.0.png	 H	 t	 t	 n.a.	 4.400364e-01
5	 5	 225	 flanked	 bex	 32	 0.500000	 2.000000	 flanked_bex_freq_32_amplitude_0.5_rep_7_t_D_2.0.png	 D	 t	 l	 n.a.	 3.242477e-01
5	 5	 226	 flanked	 bex	 2	 0.500000	 2.000000	 flanked_bex_freq_2_amplitude_0.5_rep_2_b_K_2.0.png	 K	 b	 b	 n.a.	 4.703014e-01
5	 5	 227	 flanked	 bex	 16	 1.500000	 2.000000	 flanked_bex_freq_16_amplitude_1.5_rep_7_l_H_2.0.png	 H	 l	 l	 n.a.	 6.030151e-01
5	 5	 228	 flanked	 bex	 32	 5.000000	 2.000000	 flanked_bex_freq_32_amplitude_5_rep_6_l_N_2.0.png	 N	 l	 l	 n.a.	 3.165952e-01
5	 5	 229	 flanked	 bex	 6	 0.500000	 2.000000	 flanked_bex_freq_6_amplitude_0.5_rep_7_r_K_2.0.png	 K	 r	 r	 n.a.	 5.447913e-01
5	 5	 230	 flanked	 bex	 16	 0.500000	 2.000000	 flanked_bex_freq_16_amplitude_0.5_rep_9_b_N_2.0.png	 N	 b	 r	 n.a.	 4.916845e-01
5	 5	 231	 flanked	 bex	 2	 1.000000	 2.000000	 flanked_bex_freq_2_amplitude_1_rep_8_l_K_2.0.png	 K	 l	 l	 n.a.	 4.946771e-01
5	 5	 232	 flanked	 bex	 16	 1.500000	 2.000000	 flanked_bex_freq_16_amplitude_1.5_rep_6_b_K_2.0.png	 K	 b	 b	 n.a.	 4.193335e-01
5	 5	 233	 flanked	 bex	 4	 1.500000	 2.000000	 flanked_bex_freq_4_amplitude_1.5_rep_0_b_H_2.0.png	 H	 b	 l	 n.a.	 4.018233e-01
5	 5	 234	 flanked	 bex	 16	 2.500000	 2.000000	 flanked_bex_freq_16_amplitude_2.5_rep_6_r_D_2.0.png	 D	 r	 r	 n.a.	 3.218327e-01
5	 5	 235	 flanked	 bex	 8	 0.500000	 2.000000	 flanked_bex_freq_8_amplitude_0.5_rep_7_t_K_2.0.png	 K	 t	 t	 n.a.	 6.186928e-01
5	 5	 236	 flanked	 bex	 8	 3.000000	 2.000000	 flanked_bex_freq_8_amplitude_3_rep_8_t_N_2.0.png	 N	 t	 t	 n.a.	 4.109558e-01
5	 5	 237	 flanked	 bex	 8	 5.000000	 2.000000	 flanked_bex_freq_8_amplitude_5_rep_8_t_D_2.0.png	 D	 t	 t	 n.a.	 4.075294e-01
5	 5	 238	 flanked	 bex	 4	 0.500000	 2.000000	 flanked_bex_freq_4_amplitude_0.5_rep_5_r_K_2.0.png	 K	 r	 t	 n.a.	 5.878006e-01
5	 5	 239	 flanked	 bex	 6	 3.000000	 2.000000	 flanked_bex_freq_6_amplitude_3_rep_2_t_D_2.0.png	 D	 t	 t	 n.a.	 4.485163e-01
5	 5	 240	 flanked	 bex	 16	 0.500000	 2.000000	 flanked_bex_freq_16_amplitude_0.5_rep_2_l_H_2.0.png	 H	 l	 b	 n.a.	 6.747149e-01
5	 5	 241	 flanked	 bex	 32	 5.000000	 2.000000	 flanked_bex_freq_32_amplitude_5_rep_4_l_K_2.0.png	 K	 l	 l	 n.a.	 2.916596e-01
5	 5	 242	 flanked	 bex	 4	 3.000000	 2.000000	 flanked_bex_freq_4_amplitude_3_rep_1_l_H_2.0.png	 H	 l	 l	 n.a.	 3.819991e-01
5	 5	 243	 flanked	 bex	 6	 1.500000	 2.000000	 flanked_bex_freq_6_amplitude_1.5_rep_5_b_K_2.0.png	 K	 b	 t	 n.a.	 5.146956e-01
5	 5	 244	 flanked	 bex	 16	 2.500000	 2.000000	 flanked_bex_freq_16_amplitude_2.5_rep_2_r_H_2.0.png	 H	 r	 r	 n.a.	 2.716269e-01
5	 5	 245	 flanked	 bex	 6	 3.000000	 2.000000	 flanked_bex_freq_6_amplitude_3_rep_0_b_K_2.0.png	 K	 b	 b	 n.a.	 3.829081e-01
5	 5	 246	 flanked	 bex	 16	 2.000000	 2.000000	 flanked_bex_freq_16_amplitude_2_rep_9_l_H_2.0.png	 H	 l	 l	 n.a.	 2.337940e-01
5	 5	 247	 flanked	 bex	 32	 1.000000	 2.000000	 flanked_bex_freq_32_amplitude_1_rep_7_t_D_2.0.png	 D	 t	 r	 n.a.	 3.225446e-01
5	 5	 248	 flanked	 bex	 16	 3.000000	 2.000000	 flanked_bex_freq_16_amplitude_3_rep_0_b_N_2.0.png	 N	 b	 b	 n.a.	 3.830853e-01
5	 5	 249	 flanked	 bex	 16	 3.000000	 2.000000	 flanked_bex_freq_16_amplitude_3_rep_2_r_N_2.0.png	 N	 r	 r	 n.a.	 2.874838e-01
5	 5	 250	 flanked	 bex	 16	 1.000000	 2.000000	 flanked_bex_freq_16_amplitude_1_rep_6_l_N_2.0.png	 N	 l	 l	 n.a.	 4.027402e-01
5	 5	 251	 flanked	 bex	 2	 1.500000	 2.000000	 flanked_bex_freq_2_amplitude_1.5_rep_3_b_N_2.0.png	 N	 b	 r	 n.a.	 3.140593e-01
5	 5	 252	 flanked	 bex	 2	 2.500000	 2.000000	 flanked_bex_freq_2_amplitude_2.5_rep_9_r_N_2.0.png	 N	 r	 r	 n.a.	 3.966073e-01
5	 5	 253	 flanked	 bex	 2	 5.000000	 2.000000	 flanked_bex_freq_2_amplitude_5_rep_5_t_H_2.0.png	 H	 t	 t	 n.a.	 3.918523e-01
5	 5	 254	 flanked	 bex	 6	 5.000000	 2.000000	 flanked_bex_freq_6_amplitude_5_rep_9_l_K_2.0.png	 K	 l	 l	 n.a.	 2.718355e-01
5	 5	 255	 flanked	 bex	 16	 1.000000	 2.000000	 flanked_bex_freq_16_amplitude_1_rep_4_r_H_2.0.png	 H	 r	 r	 n.a.	 2.560346e-01
5	 5	 256	 flanked	 bex	 4	 2.000000	 2.000000	 flanked_bex_freq_4_amplitude_2_rep_1_t_D_2.0.png	 D	 t	 r	 n.a.	 4.260141e-01
5	 5	 257	 flanked	 bex	 6	 5.000000	 2.000000	 flanked_bex_freq_6_amplitude_5_rep_5_t_K_2.0.png	 K	 t	 t	 n.a.	 3.388160e-01
5	 5	 258	 flanked	 bex	 2	 1.000000	 2.000000	 flanked_bex_freq_2_amplitude_1_rep_0_t_K_2.0.png	 K	 t	 r	 n.a.	 4.328186e-01
5	 5	 259	 flanked	 bex	 16	 3.000000	 2.000000	 flanked_bex_freq_16_amplitude_3_rep_7_r_H_2.0.png	 H	 r	 r	 n.a.	 2.728451e-01
5	 5	 260	 flanked	 bex	 4	 1.500000	 2.000000	 flanked_bex_freq_4_amplitude_1.5_rep_1_l_N_2.0.png	 N	 l	 r	 n.a.	 7.601381e-01
5	 5	 261	 flanked	 bex	 8	 5.000000	 2.000000	 flanked_bex_freq_8_amplitude_5_rep_2_l_N_2.0.png	 N	 l	 l	 n.a.	 2.726220e-01
5	 5	 262	 flanked	 bex	 32	 3.000000	 2.000000	 flanked_bex_freq_32_amplitude_3_rep_2_r_N_2.0.png	 N	 r	 r	 n.a.	 3.168217e-01
5	 5	 263	 flanked	 bex	 32	 2.000000	 2.000000	 flanked_bex_freq_32_amplitude_2_rep_6_l_D_2.0.png	 D	 l	 l	 n.a.	 3.465915e-01
5	 5	 264	 flanked	 bex	 6	 0.500000	 2.000000	 flanked_bex_freq_6_amplitude_0.5_rep_2_t_K_2.0.png	 K	 t	 t	 n.a.	 5.525387e-01
5	 5	 265	 flanked	 bex	 8	 3.000000	 2.000000	 flanked_bex_freq_8_amplitude_3_rep_9_l_K_2.0.png	 K	 l	 l	 n.a.	 3.048626e-01
5	 5	 266	 flanked	 bex	 32	 5.000000	 2.000000	 flanked_bex_freq_32_amplitude_5_rep_5_l_H_2.0.png	 H	 l	 l	 n.a.	 2.821591e-01
5	 5	 267	 flanked	 bex	 6	 1.500000	 2.000000	 flanked_bex_freq_6_amplitude_1.5_rep_3_t_N_2.0.png	 N	 t	 r	 n.a.	 3.251423e-01
5	 5	 268	 flanked	 bex	 16	 1.000000	 2.000000	 flanked_bex_freq_16_amplitude_1_rep_8_l_K_2.0.png	 K	 l	 r	 n.a.	 4.224355e-01
5	 5	 269	 flanked	 bex	 8	 1.500000	 2.000000	 flanked_bex_freq_8_amplitude_1.5_rep_5_l_N_2.0.png	 N	 l	 r	 n.a.	 4.506978e-01
5	 5	 270	 flanked	 bex	 32	 0.500000	 2.000000	 flanked_bex_freq_32_amplitude_0.5_rep_2_b_H_2.0.png	 H	 b	 r	 n.a.	 7.932442e-01
5	 5	 271	 flanked	 bex	 6	 1.000000	 2.000000	 flanked_bex_freq_6_amplitude_1_rep_6_b_K_2.0.png	 K	 b	 b	 n.a.	 5.078597e-01
5	 5	 272	 flanked	 bex	 2	 5.000000	 2.000000	 flanked_bex_freq_2_amplitude_5_rep_4_b_H_2.0.png	 H	 b	 r	 n.a.	 8.378464e-01
5	 5	 273	 flanked	 bex	 2	 0.500000	 2.000000	 flanked_bex_freq_2_amplitude_0.5_rep_6_b_H_2.0.png	 H	 b	 t	 n.a.	 4.759930e-01
5	 5	 274	 flanked	 bex	 2	 5.000000	 2.000000	 flanked_bex_freq_2_amplitude_5_rep_1_r_N_2.0.png	 N	 r	 r	 n.a.	 2.984651e-01
5	 5	 275	 flanked	 bex	 4	 3.000000	 2.000000	 flanked_bex_freq_4_amplitude_3_rep_2_t_N_2.0.png	 N	 t	 t	 n.a.	 4.593213e-01
5	 5	 276	 flanked	 bex	 2	 3.000000	 2.000000	 flanked_bex_freq_2_amplitude_3_rep_6_b_N_2.0.png	 N	 b	 r	 n.a.	 5.790523e-01
5	 5	 277	 flanked	 bex	 2	 2.500000	 2.000000	 flanked_bex_freq_2_amplitude_2.5_rep_3_b_K_2.0.png	 K	 b	 b	 n.a.	 4.467381e-01
5	 5	 278	 flanked	 bex	 32	 1.500000	 2.000000	 flanked_bex_freq_32_amplitude_1.5_rep_6_l_N_2.0.png	 N	 l	 l	 n.a.	 4.337678e-01
5	 5	 279	 flanked	 bex	 16	 1.000000	 2.000000	 flanked_bex_freq_16_amplitude_1_rep_5_l_D_2.0.png	 D	 l	 t	 n.a.	 4.664598e-01
5	 5	 280	 flanked	 bex	 32	 0.500000	 2.000000	 flanked_bex_freq_32_amplitude_0.5_rep_9_b_D_2.0.png	 D	 b	 r	 n.a.	 4.014281e-01
5	 5	 281	 flanked	 bex	 8	 0.500000	 2.000000	 flanked_bex_freq_8_amplitude_0.5_rep_4_l_D_2.0.png	 D	 l	 b	 n.a.	 6.048626e-01
5	 5	 282	 flanked	 bex	 8	 1.000000	 2.000000	 flanked_bex_freq_8_amplitude_1_rep_5_r_N_2.0.png	 N	 r	 b	 n.a.	 4.162758e-01
5	 5	 283	 flanked	 bex	 4	 5.000000	 2.000000	 flanked_bex_freq_4_amplitude_5_rep_2_r_D_2.0.png	 D	 r	 r	 n.a.	 2.487600e-01
5	 5	 284	 flanked	 bex	 6	 3.000000	 2.000000	 flanked_bex_freq_6_amplitude_3_rep_5_b_K_2.0.png	 K	 b	 b	 n.a.	 3.794245e-01
5	 5	 285	 flanked	 bex	 2	 2.000000	 2.000000	 flanked_bex_freq_2_amplitude_2_rep_6_t_N_2.0.png	 N	 t	 t	 n.a.	 6.725279e-01
5	 5	 286	 flanked	 bex	 4	 1.000000	 2.000000	 flanked_bex_freq_4_amplitude_1_rep_9_b_D_2.0.png	 D	 b	 t	 n.a.	 6.143453e-01
5	 5	 287	 flanked	 bex	 16	 2.000000	 2.000000	 flanked_bex_freq_16_amplitude_2_rep_7_t_D_2.0.png	 D	 t	 r	 n.a.	 3.322973e-01
5	 5	 288	 flanked	 bex	 6	 3.000000	 2.000000	 flanked_bex_freq_6_amplitude_3_rep_6_l_D_2.0.png	 D	 l	 l	 n.a.	 2.733655e-01
5	 5	 289	 flanked	 bex	 8	 3.000000	 2.000000	 flanked_bex_freq_8_amplitude_3_rep_0_b_K_2.0.png	 K	 b	 b	 n.a.	 3.901644e-01
5	 5	 290	 flanked	 bex	 16	 0.500000	 2.000000	 flanked_bex_freq_16_amplitude_0.5_rep_0_t_N_2.0.png	 N	 t	 r	 n.a.	 5.842365e-01
5	 5	 291	 flanked	 bex	 6	 0.500000	 2.000000	 flanked_bex_freq_6_amplitude_0.5_rep_5_r_D_2.0.png	 D	 r	 r	 n.a.	 4.876958e-01
5	 5	 292	 flanked	 bex	 4	 0.500000	 2.000000	 flanked_bex_freq_4_amplitude_0.5_rep_8_l_H_2.0.png	 H	 l	 l	 n.a.	 7.488257e-01
5	 5	 293	 flanked	 bex	 16	 1.000000	 2.000000	 flanked_bex_freq_16_amplitude_1_rep_1_l_K_2.0.png	 K	 l	 b	 n.a.	 5.432472e-01
5	 5	 294	 flanked	 bex	 4	 2.000000	 2.000000	 flanked_bex_freq_4_amplitude_2_rep_9_r_D_2.0.png	 D	 r	 r	 n.a.	 3.244303e-01
5	 5	 295	 flanked	 bex	 32	 2.500000	 2.000000	 flanked_bex_freq_32_amplitude_2.5_rep_0_l_D_2.0.png	 D	 l	 l	 n.a.	 3.960998e-01
5	 5	 296	 flanked	 bex	 16	 2.500000	 2.000000	 flanked_bex_freq_16_amplitude_2.5_rep_5_t_K_2.0.png	 K	 t	 b	 n.a.	 4.710314e-01
5	 5	 297	 flanked	 bex	 16	 0.500000	 2.000000	 flanked_bex_freq_16_amplitude_0.5_rep_1_l_D_2.0.png	 D	 l	 b	 n.a.	 3.302918e-01
5	 5	 298	 flanked	 bex	 16	 3.000000	 2.000000	 flanked_bex_freq_16_amplitude_3_rep_8_b_H_2.0.png	 H	 b	 l	 n.a.	 7.444524e-01
5	 5	 299	 flanked	 bex	 6	 1.500000	 2.000000	 flanked_bex_freq_6_amplitude_1.5_rep_1_l_D_2.0.png	 D	 l	 b	 n.a.	 4.498118e-01
5	 5	 300	 flanked	 bex	 4	 3.000000	 2.000000	 flanked_bex_freq_4_amplitude_3_rep_8_b_N_2.0.png	 N	 b	 r	 n.a.	 3.266384e-01
5	 5	 301	 flanked	 bex	 16	 1.500000	 2.000000	 flanked_bex_freq_16_amplitude_1.5_rep_2_l_N_2.0.png	 N	 l	 l	 n.a.	 4.029622e-01
5	 5	 302	 flanked	 bex	 16	 3.000000	 2.000000	 flanked_bex_freq_16_amplitude_3_rep_5_r_K_2.0.png	 K	 r	 r	 n.a.	 2.733623e-01
5	 5	 303	 flanked	 bex	 6	 2.000000	 2.000000	 flanked_bex_freq_6_amplitude_2_rep_3_r_K_2.0.png	 K	 r	 r	 n.a.	 2.732942e-01
5	 5	 304	 flanked	 bex	 32	 3.000000	 2.000000	 flanked_bex_freq_32_amplitude_3_rep_3_t_D_2.0.png	 D	 t	 l	 n.a.	 3.346002e-01
5	 5	 305	 flanked	 bex	 2	 5.000000	 2.000000	 flanked_bex_freq_2_amplitude_5_rep_9_l_N_2.0.png	 N	 l	 l	 n.a.	 3.767400e-01
5	 5	 306	 flanked	 bex	 6	 2.500000	 2.000000	 flanked_bex_freq_6_amplitude_2.5_rep_1_l_H_2.0.png	 H	 l	 l	 n.a.	 2.466424e-01
5	 5	 307	 flanked	 bex	 2	 2.500000	 2.000000	 flanked_bex_freq_2_amplitude_2.5_rep_1_t_H_2.0.png	 H	 t	 r	 n.a.	 6.994282e-01
5	 5	 308	 flanked	 bex	 32	 2.000000	 2.000000	 flanked_bex_freq_32_amplitude_2_rep_1_b_H_2.0.png	 H	 b	 t	 n.a.	 5.510774e-01
5	 5	 309	 flanked	 bex	 32	 2.000000	 2.000000	 flanked_bex_freq_32_amplitude_2_rep_2_b_N_2.0.png	 N	 b	 r	 n.a.	 2.936548e-01
5	 5	 310	 flanked	 bex	 8	 1.000000	 2.000000	 flanked_bex_freq_8_amplitude_1_rep_8_r_K_2.0.png	 K	 r	 r	 n.a.	 4.421341e-01
5	 5	 311	 flanked	 bex	 2	 1.500000	 2.000000	 flanked_bex_freq_2_amplitude_1.5_rep_1_b_K_2.0.png	 K	 b	 b	 n.a.	 4.408380e-01
5	 5	 312	 flanked	 bex	 4	 1.500000	 2.000000	 flanked_bex_freq_4_amplitude_1.5_rep_4_l_N_2.0.png	 N	 l	 r	 n.a.	 5.460264e-01
5	 5	 313	 flanked	 bex	 8	 3.000000	 2.000000	 flanked_bex_freq_8_amplitude_3_rep_5_t_H_2.0.png	 H	 t	 t	 n.a.	 5.231597e-01
5	 5	 314	 flanked	 bex	 6	 5.000000	 2.000000	 flanked_bex_freq_6_amplitude_5_rep_3_l_K_2.0.png	 K	 l	 l	 n.a.	 2.499608e-01
5	 5	 315	 flanked	 bex	 16	 0.500000	 2.000000	 flanked_bex_freq_16_amplitude_0.5_rep_8_t_H_2.0.png	 H	 t	 b	 n.a.	 3.840552e-01
5	 5	 316	 flanked	 bex	 6	 2.500000	 2.000000	 flanked_bex_freq_6_amplitude_2.5_rep_2_r_D_2.0.png	 D	 r	 r	 n.a.	 3.160033e-01
5	 5	 317	 flanked	 bex	 4	 3.000000	 2.000000	 flanked_bex_freq_4_amplitude_3_rep_0_l_K_2.0.png	 K	 l	 l	 n.a.	 3.260601e-01
5	 5	 318	 flanked	 bex	 2	 1.000000	 2.000000	 flanked_bex_freq_2_amplitude_1_rep_4_l_K_2.0.png	 K	 l	 r	 n.a.	 4.147374e-01
5	 5	 319	 flanked	 bex	 2	 2.000000	 2.000000	 flanked_bex_freq_2_amplitude_2_rep_0_t_N_2.0.png	 N	 t	 t	 n.a.	 5.374062e-01
5	 5	 320	 flanked	 bex	 6	 5.000000	 2.000000	 flanked_bex_freq_6_amplitude_5_rep_6_b_K_2.0.png	 K	 b	 b	 n.a.	 3.998094e-01
5	 5	 321	 flanked	 bex	 2	 3.000000	 2.000000	 flanked_bex_freq_2_amplitude_3_rep_8_b_D_2.0.png	 D	 b	 l	 n.a.	 5.318988e-01
5	 5	 322	 flanked	 bex	 8	 1.000000	 2.000000	 flanked_bex_freq_8_amplitude_1_rep_0_r_H_2.0.png	 H	 r	 r	 n.a.	 4.141494e-01
5	 5	 323	 flanked	 bex	 8	 5.000000	 2.000000	 flanked_bex_freq_8_amplitude_5_rep_4_t_K_2.0.png	 K	 t	 t	 n.a.	 4.019315e-01
5	 5	 324	 flanked	 bex	 4	 2.500000	 2.000000	 flanked_bex_freq_4_amplitude_2.5_rep_6_l_N_2.0.png	 N	 l	 b	 n.a.	 2.784028e-01
5	 5	 325	 flanked	 bex	 32	 3.000000	 2.000000	 flanked_bex_freq_32_amplitude_3_rep_7_b_D_2.0.png	 D	 b	 t	 n.a.	 5.490709e-01
5	 5	 326	 flanked	 bex	 6	 2.000000	 2.000000	 flanked_bex_freq_6_amplitude_2_rep_9_t_H_2.0.png	 H	 t	 t	 n.a.	 4.106511e-01
5	 5	 327	 flanked	 bex	 2	 2.000000	 2.000000	 flanked_bex_freq_2_amplitude_2_rep_1_b_D_2.0.png	 D	 b	 r	 n.a.	 3.963112e-01
5	 5	 328	 flanked	 bex	 4	 2.000000	 2.000000	 flanked_bex_freq_4_amplitude_2_rep_8_t_H_2.0.png	 H	 t	 r	 n.a.	 3.554829e-01
5	 5	 329	 flanked	 bex	 8	 0.500000	 2.000000	 flanked_bex_freq_8_amplitude_0.5_rep_5_r_K_2.0.png	 K	 r	 r	 n.a.	 3.538380e-01
5	 5	 330	 flanked	 bex	 2	 1.000000	 2.000000	 flanked_bex_freq_2_amplitude_1_rep_9_t_D_2.0.png	 D	 t	 r	 n.a.	 4.733521e-01
5	 5	 331	 flanked	 bex	 6	 2.000000	 2.000000	 flanked_bex_freq_6_amplitude_2_rep_0_r_H_2.0.png	 H	 r	 r	 n.a.	 3.367001e-01
5	 5	 332	 flanked	 bex	 4	 5.000000	 2.000000	 flanked_bex_freq_4_amplitude_5_rep_9_r_N_2.0.png	 N	 r	 r	 n.a.	 3.133298e-01
5	 5	 333	 flanked	 bex	 6	 2.500000	 2.000000	 flanked_bex_freq_6_amplitude_2.5_rep_5_b_H_2.0.png	 H	 b	 r	 n.a.	 5.396449e-01
5	 5	 334	 flanked	 bex	 16	 2.000000	 2.000000	 flanked_bex_freq_16_amplitude_2_rep_0_r_N_2.0.png	 N	 r	 r	 n.a.	 3.441381e-01
5	 5	 335	 flanked	 bex	 16	 1.500000	 2.000000	 flanked_bex_freq_16_amplitude_1.5_rep_8_l_N_2.0.png	 N	 l	 b	 n.a.	 4.414769e-01
5	 5	 336	 flanked	 bex	 8	 3.000000	 2.000000	 flanked_bex_freq_8_amplitude_3_rep_6_r_H_2.0.png	 H	 r	 r	 n.a.	 2.656543e-01
5	 5	 337	 flanked	 bex	 6	 1.500000	 2.000000	 flanked_bex_freq_6_amplitude_1.5_rep_4_r_H_2.0.png	 H	 r	 r	 n.a.	 2.868716e-01
5	 5	 338	 flanked	 bex	 16	 5.000000	 2.000000	 flanked_bex_freq_16_amplitude_5_rep_8_t_N_2.0.png	 N	 t	 t	 n.a.	 3.624305e-01
5	 5	 339	 flanked	 bex	 2	 2.500000	 2.000000	 flanked_bex_freq_2_amplitude_2.5_rep_7_l_K_2.0.png	 K	 l	 l	 n.a.	 2.674172e-01
5	 5	 340	 flanked	 bex	 6	 3.000000	 2.000000	 flanked_bex_freq_6_amplitude_3_rep_7_t_K_2.0.png	 K	 t	 t	 n.a.	 3.357822e-01
5	 5	 341	 flanked	 bex	 8	 3.000000	 2.000000	 flanked_bex_freq_8_amplitude_3_rep_3_b_D_2.0.png	 D	 b	 b	 n.a.	 4.462318e-01
5	 5	 342	 flanked	 bex	 6	 0.500000	 2.000000	 flanked_bex_freq_6_amplitude_0.5_rep_9_r_N_2.0.png	 N	 r	 t	 n.a.	 4.375670e-01
5	 5	 343	 flanked	 bex	 4	 3.000000	 2.000000	 flanked_bex_freq_4_amplitude_3_rep_3_r_D_2.0.png	 D	 r	 r	 n.a.	 3.045696e-01
5	 5	 344	 flanked	 bex	 2	 2.000000	 2.000000	 flanked_bex_freq_2_amplitude_2_rep_4_b_N_2.0.png	 N	 b	 l	 n.a.	 6.204669e-01
5	 5	 345	 flanked	 bex	 8	 1.000000	 2.000000	 flanked_bex_freq_8_amplitude_1_rep_9_b_D_2.0.png	 D	 b	 l	 n.a.	 4.512776e-01
5	 5	 346	 flanked	 bex	 32	 1.500000	 2.000000	 flanked_bex_freq_32_amplitude_1.5_rep_8_l_D_2.0.png	 D	 l	 t	 n.a.	 4.536383e-01
5	 5	 347	 flanked	 bex	 8	 2.000000	 2.000000	 flanked_bex_freq_8_amplitude_2_rep_4_l_N_2.0.png	 N	 l	 r	 n.a.	 3.251089e-01
5	 5	 348	 flanked	 bex	 16	 5.000000	 2.000000	 flanked_bex_freq_16_amplitude_5_rep_7_t_H_2.0.png	 H	 t	 t	 n.a.	 4.119876e-01
5	 5	 349	 flanked	 bex	 6	 0.500000	 2.000000	 flanked_bex_freq_6_amplitude_0.5_rep_8_t_K_2.0.png	 K	 t	 l	 n.a.	 4.900887e-01
5	 5	 350	 flanked	 bex	 8	 3.000000	 2.000000	 flanked_bex_freq_8_amplitude_3_rep_4_r_D_2.0.png	 D	 r	 r	 n.a.	 2.893564e-01
5	 5	 351	 flanked	 bex	 2	 1.000000	 2.000000	 flanked_bex_freq_2_amplitude_1_rep_1_b_D_2.0.png	 D	 b	 r	 n.a.	 3.670463e-01
5	 5	 352	 flanked	 bex	 16	 5.000000	 2.000000	 flanked_bex_freq_16_amplitude_5_rep_5_r_N_2.0.png	 N	 r	 r	 n.a.	 2.552063e-01
5	 5	 353	 flanked	 bex	 4	 1.500000	 2.000000	 flanked_bex_freq_4_amplitude_1.5_rep_8_r_N_2.0.png	 N	 r	 b	 n.a.	 3.638837e-01
5	 5	 354	 flanked	 bex	 2	 3.000000	 2.000000	 flanked_bex_freq_2_amplitude_3_rep_7_r_H_2.0.png	 H	 r	 r	 n.a.	 2.090784e-01
5	 5	 355	 flanked	 bex	 6	 2.500000	 2.000000	 flanked_bex_freq_6_amplitude_2.5_rep_0_r_N_2.0.png	 N	 r	 r	 n.a.	 2.231077e-01
5	 5	 356	 flanked	 bex	 6	 1.500000	 2.000000	 flanked_bex_freq_6_amplitude_1.5_rep_7_b_H_2.0.png	 H	 b	 b	 n.a.	 3.780286e-01
5	 5	 357	 flanked	 bex	 8	 1.500000	 2.000000	 flanked_bex_freq_8_amplitude_1.5_rep_4_l_D_2.0.png	 D	 l	 l	 n.a.	 2.286223e-01
5	 5	 358	 flanked	 bex	 2	 3.000000	 2.000000	 flanked_bex_freq_2_amplitude_3_rep_3_b_H_2.0.png	 H	 b	 b	 n.a.	 4.147329e-01
5	 5	 359	 flanked	 bex	 4	 5.000000	 2.000000	 flanked_bex_freq_4_amplitude_5_rep_4_r_D_2.0.png	 D	 r	 r	 n.a.	 2.452880e-01
5	 5	 360	 flanked	 bex	 2	 1.000000	 2.000000	 flanked_bex_freq_2_amplitude_1_rep_2_l_N_2.0.png	 N	 l	 b	 n.a.	 3.860442e-01
5	 5	 361	 flanked	 bex	 4	 0.500000	 2.000000	 flanked_bex_freq_4_amplitude_0.5_rep_2_r_N_2.0.png	 N	 r	 t	 n.a.	 4.152472e-01
5	 5	 362	 flanked	 bex	 32	 2.500000	 2.000000	 flanked_bex_freq_32_amplitude_2.5_rep_5_r_N_2.0.png	 N	 r	 l	 n.a.	 6.028835e-01
5	 5	 363	 flanked	 bex	 32	 2.000000	 2.000000	 flanked_bex_freq_32_amplitude_2_rep_7_b_K_2.0.png	 K	 b	 b	 n.a.	 3.104338e-01
5	 5	 364	 flanked	 bex	 6	 5.000000	 2.000000	 flanked_bex_freq_6_amplitude_5_rep_7_l_D_2.0.png	 D	 l	 l	 n.a.	 2.138675e-01
5	 5	 365	 flanked	 bex	 32	 1.000000	 2.000000	 flanked_bex_freq_32_amplitude_1_rep_2_l_H_2.0.png	 H	 l	 t	 n.a.	 5.105888e-01
5	 5	 366	 flanked	 bex	 4	 2.000000	 2.000000	 flanked_bex_freq_4_amplitude_2_rep_5_t_D_2.0.png	 D	 t	 b	 n.a.	 4.303069e-01
5	 5	 367	 flanked	 bex	 4	 3.000000	 2.000000	 flanked_bex_freq_4_amplitude_3_rep_5_r_D_2.0.png	 D	 r	 r	 n.a.	 2.974175e-01
5	 5	 368	 flanked	 bex	 32	 2.500000	 2.000000	 flanked_bex_freq_32_amplitude_2.5_rep_6_r_K_2.0.png	 K	 r	 r	 n.a.	 3.988986e-01
5	 5	 369	 flanked	 bex	 4	 1.500000	 2.000000	 flanked_bex_freq_4_amplitude_1.5_rep_2_b_K_2.0.png	 K	 b	 b	 n.a.	 4.270642e-01
5	 5	 370	 flanked	 bex	 8	 0.500000	 2.000000	 flanked_bex_freq_8_amplitude_0.5_rep_2_t_D_2.0.png	 D	 t	 l	 n.a.	 4.420495e-01
5	 5	 371	 flanked	 bex	 16	 1.500000	 2.000000	 flanked_bex_freq_16_amplitude_1.5_rep_9_r_H_2.0.png	 H	 r	 r	 n.a.	 4.423433e-01
5	 5	 372	 flanked	 bex	 32	 2.500000	 2.000000	 flanked_bex_freq_32_amplitude_2.5_rep_3_t_N_2.0.png	 N	 t	 r	 n.a.	 7.275017e-01
5	 5	 373	 flanked	 bex	 16	 0.500000	 2.000000	 flanked_bex_freq_16_amplitude_0.5_rep_4_r_K_2.0.png	 K	 r	 l	 n.a.	 3.597623e-01
5	 5	 374	 flanked	 bex	 2	 2.000000	 2.000000	 flanked_bex_freq_2_amplitude_2_rep_3_l_H_2.0.png	 H	 l	 l	 n.a.	 3.330760e-01
5	 5	 375	 flanked	 bex	 6	 1.000000	 2.000000	 flanked_bex_freq_6_amplitude_1_rep_3_r_D_2.0.png	 D	 r	 t	 n.a.	 7.364556e-01
5	 5	 376	 flanked	 bex	 32	 2.500000	 2.000000	 flanked_bex_freq_32_amplitude_2.5_rep_9_l_N_2.0.png	 N	 l	 l	 n.a.	 2.976237e-01
5	 5	 377	 flanked	 bex	 4	 2.000000	 2.000000	 flanked_bex_freq_4_amplitude_2_rep_4_l_N_2.0.png	 N	 l	 l	 n.a.	 3.163304e-01
5	 5	 378	 flanked	 bex	 2	 1.000000	 2.000000	 flanked_bex_freq_2_amplitude_1_rep_6_b_D_2.0.png	 D	 b	 r	 n.a.	 4.608512e-01
5	 5	 379	 flanked	 bex	 6	 5.000000	 2.000000	 flanked_bex_freq_6_amplitude_5_rep_8_l_K_2.0.png	 K	 l	 l	 n.a.	 2.232683e-01
5	 5	 380	 flanked	 bex	 4	 3.000000	 2.000000	 flanked_bex_freq_4_amplitude_3_rep_6_l_H_2.0.png	 H	 l	 l	 n.a.	 4.605111e-01
5	 5	 381	 flanked	 bex	 16	 2.000000	 2.000000	 flanked_bex_freq_16_amplitude_2_rep_8_b_K_2.0.png	 K	 b	 b	 n.a.	 4.608217e-01
5	 5	 382	 flanked	 bex	 32	 0.500000	 2.000000	 flanked_bex_freq_32_amplitude_0.5_rep_4_t_H_2.0.png	 H	 t	 l	 n.a.	 7.509602e-01
5	 5	 383	 flanked	 bex	 32	 2.500000	 2.000000	 flanked_bex_freq_32_amplitude_2.5_rep_1_r_D_2.0.png	 D	 r	 r	 n.a.	 4.066104e-01
5	 5	 384	 flanked	 bex	 8	 1.500000	 2.000000	 flanked_bex_freq_8_amplitude_1.5_rep_0_r_H_2.0.png	 H	 r	 r	 n.a.	 3.305808e-01
5	 5	 385	 flanked	 bex	 16	 1.000000	 2.000000	 flanked_bex_freq_16_amplitude_1_rep_7_t_H_2.0.png	 H	 t	 l	 n.a.	 3.443748e-01
5	 5	 386	 flanked	 bex	 8	 1.000000	 2.000000	 flanked_bex_freq_8_amplitude_1_rep_6_r_D_2.0.png	 D	 r	 r	 n.a.	 4.806619e-01
5	 5	 387	 flanked	 bex	 2	 1.000000	 2.000000	 flanked_bex_freq_2_amplitude_1_rep_5_r_N_2.0.png	 N	 r	 l	 n.a.	 4.146287e-01
5	 5	 388	 flanked	 bex	 2	 1.500000	 2.000000	 flanked_bex_freq_2_amplitude_1.5_rep_7_t_K_2.0.png	 K	 t	 b	 n.a.	 8.235746e-01
5	 5	 389	 flanked	 bex	 6	 2.000000	 2.000000	 flanked_bex_freq_6_amplitude_2_rep_5_t_D_2.0.png	 D	 t	 t	 n.a.	 6.101056e-01
5	 5	 390	 flanked	 bex	 6	 5.000000	 2.000000	 flanked_bex_freq_6_amplitude_5_rep_2_b_H_2.0.png	 H	 b	 b	 n.a.	 4.323124e-01
5	 5	 391	 flanked	 bex	 4	 2.000000	 2.000000	 flanked_bex_freq_4_amplitude_2_rep_3_r_H_2.0.png	 H	 r	 r	 n.a.	 3.305439e-01
5	 5	 392	 flanked	 bex	 2	 2.000000	 2.000000	 flanked_bex_freq_2_amplitude_2_rep_8_b_K_2.0.png	 K	 b	 l	 n.a.	 3.393874e-01
5	 5	 393	 flanked	 bex	 16	 2.000000	 2.000000	 flanked_bex_freq_16_amplitude_2_rep_3_b_H_2.0.png	 H	 b	 b	 n.a.	 5.781475e-01
5	 5	 394	 flanked	 bex	 16	 3.000000	 2.000000	 flanked_bex_freq_16_amplitude_3_rep_3_r_N_2.0.png	 N	 r	 r	 n.a.	 3.595721e-01
5	 5	 395	 flanked	 bex	 32	 0.500000	 2.000000	 flanked_bex_freq_32_amplitude_0.5_rep_8_b_N_2.0.png	 N	 b	 b	 n.a.	 5.794469e-01
5	 5	 396	 flanked	 bex	 6	 1.000000	 2.000000	 flanked_bex_freq_6_amplitude_1_rep_5_b_K_2.0.png	 K	 b	 b	 n.a.	 4.425867e-01
5	 5	 397	 flanked	 bex	 6	 2.500000	 2.000000	 flanked_bex_freq_6_amplitude_2.5_rep_7_b_N_2.0.png	 N	 b	 b	 n.a.	 4.302945e-01
5	 5	 398	 flanked	 bex	 8	 2.000000	 2.000000	 flanked_bex_freq_8_amplitude_2_rep_6_t_K_2.0.png	 K	 t	 t	 n.a.	 4.477274e-01
5	 5	 399	 flanked	 bex	 32	 1.000000	 2.000000	 flanked_bex_freq_32_amplitude_1_rep_3_l_H_2.0.png	 H	 l	 r	 n.a.	 3.371605e-01
5	 5	 400	 flanked	 bex	 8	 1.500000	 2.000000	 flanked_bex_freq_8_amplitude_1.5_rep_7_b_N_2.0.png	 N	 b	 r	 n.a.	 2.862055e-01
5	 5	 401	 flanked	 bex	 4	 1.000000	 2.000000	 flanked_bex_freq_4_amplitude_1_rep_5_r_K_2.0.png	 K	 r	 r	 n.a.	 8.420090e-01
5	 5	 402	 flanked	 bex	 2	 0.500000	 2.000000	 flanked_bex_freq_2_amplitude_0.5_rep_3_t_N_2.0.png	 N	 t	 r	 n.a.	 1.045995e+00
5	 5	 403	 flanked	 bex	 8	 1.500000	 2.000000	 flanked_bex_freq_8_amplitude_1.5_rep_6_r_N_2.0.png	 N	 r	 r	 n.a.	 3.072025e-01
5	 5	 404	 flanked	 bex	 6	 2.500000	 2.000000	 flanked_bex_freq_6_amplitude_2.5_rep_3_l_H_2.0.png	 H	 l	 l	 n.a.	 4.515152e-01
5	 5	 405	 flanked	 bex	 2	 2.500000	 2.000000	 flanked_bex_freq_2_amplitude_2.5_rep_4_b_N_2.0.png	 N	 b	 t	 n.a.	 4.509639e-01
5	 5	 406	 flanked	 bex	 8	 1.500000	 2.000000	 flanked_bex_freq_8_amplitude_1.5_rep_8_b_H_2.0.png	 H	 b	 r	 n.a.	 3.457178e-01
5	 5	 407	 flanked	 bex	 4	 2.500000	 2.000000	 flanked_bex_freq_4_amplitude_2.5_rep_1_l_N_2.0.png	 N	 l	 l	 n.a.	 2.541811e-01
5	 5	 408	 flanked	 bex	 8	 5.000000	 2.000000	 flanked_bex_freq_8_amplitude_5_rep_9_t_H_2.0.png	 H	 t	 t	 n.a.	 4.913041e-01
5	 5	 409	 flanked	 bex	 16	 2.000000	 2.000000	 flanked_bex_freq_16_amplitude_2_rep_1_b_K_2.0.png	 K	 b	 t	 n.a.	 6.383541e-01
5	 5	 410	 flanked	 bex	 32	 3.000000	 2.000000	 flanked_bex_freq_32_amplitude_3_rep_8_b_K_2.0.png	 K	 b	 b	 n.a.	 6.655466e-01
5	 5	 411	 flanked	 bex	 6	 1.000000	 2.000000	 flanked_bex_freq_6_amplitude_1_rep_4_r_H_2.0.png	 H	 r	 r	 n.a.	 3.807243e-01
5	 5	 412	 flanked	 bex	 16	 3.000000	 2.000000	 flanked_bex_freq_16_amplitude_3_rep_6_b_N_2.0.png	 N	 b	 b	 n.a.	 3.987302e-01
5	 5	 413	 flanked	 bex	 4	 2.000000	 2.000000	 flanked_bex_freq_4_amplitude_2_rep_0_t_H_2.0.png	 H	 t	 b	 n.a.	 3.303387e-01
5	 5	 414	 flanked	 bex	 8	 1.500000	 2.000000	 flanked_bex_freq_8_amplitude_1.5_rep_1_b_H_2.0.png	 H	 b	 r	 n.a.	 3.283613e-01
5	 5	 415	 flanked	 bex	 6	 2.500000	 2.000000	 flanked_bex_freq_6_amplitude_2.5_rep_9_l_K_2.0.png	 K	 l	 l	 n.a.	 2.423817e-01
5	 5	 416	 flanked	 bex	 2	 0.500000	 2.000000	 flanked_bex_freq_2_amplitude_0.5_rep_8_r_N_2.0.png	 N	 r	 t	 n.a.	 4.123124e-01
5	 5	 417	 flanked	 bex	 8	 2.000000	 2.000000	 flanked_bex_freq_8_amplitude_2_rep_7_l_D_2.0.png	 D	 l	 r	 n.a.	 3.489963e-01
5	 5	 418	 flanked	 bex	 2	 5.000000	 2.000000	 flanked_bex_freq_2_amplitude_5_rep_7_r_D_2.0.png	 D	 r	 r	 n.a.	 3.068731e-01
5	 5	 419	 flanked	 bex	 32	 5.000000	 2.000000	 flanked_bex_freq_32_amplitude_5_rep_0_b_N_2.0.png	 N	 b	 r	 n.a.	 4.532631e-01
5	 5	 420	 flanked	 bex	 4	 2.500000	 2.000000	 flanked_bex_freq_4_amplitude_2.5_rep_3_t_D_2.0.png	 D	 t	 t	 n.a.	 5.323857e-01
