subject	 session	 trial	 flanked	 distortion	 freq	 amplitude	 spacing	 im_name	 targ_letter	 targ_pos	 response	 eyemovement	 RT
8	 2	 1	 flanked	 rf	 3	 0.216700	 2.000000	 flanked_rf_freq_3_amplitude_0.2167_rep_5_b_N_2.0.png	 N	 b	 l	 n.a.	 5.338598e-01
8	 2	 2	 flanked	 rf	 2	 0.268300	 2.000000	 flanked_rf_freq_2_amplitude_0.2683_rep_0_l_H_2.0.png	 H	 l	 r	 n.a.	 4.611344e-01
8	 2	 3	 flanked	 rf	 12	 0.061700	 2.000000	 flanked_rf_freq_12_amplitude_0.0617_rep_9_l_H_2.0.png	 H	 l	 b	 n.a.	 3.477866e-01
8	 2	 4	 flanked	 rf	 2	 0.216700	 2.000000	 flanked_rf_freq_2_amplitude_0.2167_rep_8_r_H_2.0.png	 H	 r	 b	 n.a.	 3.303492e-01
8	 2	 5	 flanked	 rf	 3	 0.010000	 2.000000	 flanked_rf_freq_3_amplitude_0.01_rep_2_t_D_2.0.png	 D	 t	 t	 n.a.	 4.343947e-01
8	 2	 6	 flanked	 rf	 12	 0.113300	 2.000000	 flanked_rf_freq_12_amplitude_0.1133_rep_4_t_N_2.0.png	 N	 t	 t	 n.a.	 5.824003e-01
8	 2	 7	 flanked	 rf	 12	 0.061700	 2.000000	 flanked_rf_freq_12_amplitude_0.0617_rep_6_t_N_2.0.png	 N	 t	 l	 n.a.	 6.087200e-01
8	 2	 8	 flanked	 rf	 3	 0.320000	 2.000000	 flanked_rf_freq_3_amplitude_0.32_rep_8_t_H_2.0.png	 H	 t	 r	 n.a.	 3.542062e-01
8	 2	 9	 flanked	 rf	 4	 0.165000	 2.000000	 flanked_rf_freq_4_amplitude_0.165_rep_6_r_K_2.0.png	 K	 r	 b	 n.a.	 3.525146e-01
8	 2	 10	 flanked	 rf	 8	 0.216700	 2.000000	 flanked_rf_freq_8_amplitude_0.2167_rep_5_l_H_2.0.png	 H	 l	 t	 n.a.	 6.745594e-01
8	 2	 11	 flanked	 rf	 12	 0.320000	 2.000000	 flanked_rf_freq_12_amplitude_0.32_rep_2_t_D_2.0.png	 D	 t	 t	 n.a.	 2.537479e-01
8	 2	 12	 flanked	 rf	 4	 0.010000	 2.000000	 flanked_rf_freq_4_amplitude_0.01_rep_4_t_D_2.0.png	 D	 t	 l	 n.a.	 4.331952e-01
8	 2	 13	 flanked	 rf	 2	 0.320000	 2.000000	 flanked_rf_freq_2_amplitude_0.32_rep_7_l_D_2.0.png	 D	 l	 r	 n.a.	 3.676840e-01
8	 2	 14	 flanked	 rf	 12	 0.113300	 2.000000	 flanked_rf_freq_12_amplitude_0.1133_rep_0_b_N_2.0.png	 N	 b	 b	 n.a.	 3.856420e-01
8	 2	 15	 flanked	 rf	 5	 0.216700	 2.000000	 flanked_rf_freq_5_amplitude_0.2167_rep_6_t_K_2.0.png	 K	 t	 t	 n.a.	 2.829896e-01
8	 2	 16	 flanked	 rf	 3	 0.113300	 2.000000	 flanked_rf_freq_3_amplitude_0.1133_rep_3_t_N_2.0.png	 N	 t	 l	 n.a.	 3.820086e-01
8	 2	 17	 flanked	 rf	 8	 0.061700	 2.000000	 flanked_rf_freq_8_amplitude_0.0617_rep_2_r_K_2.0.png	 K	 r	 r	 n.a.	 1.917540e-01
8	 2	 18	 flanked	 rf	 3	 0.165000	 2.000000	 flanked_rf_freq_3_amplitude_0.165_rep_2_t_D_2.0.png	 D	 t	 t	 n.a.	 3.720427e-01
8	 2	 19	 flanked	 rf	 12	 0.165000	 2.000000	 flanked_rf_freq_12_amplitude_0.165_rep_0_l_H_2.0.png	 H	 l	 l	 n.a.	 3.208226e-01
8	 2	 20	 flanked	 rf	 12	 0.165000	 2.000000	 flanked_rf_freq_12_amplitude_0.165_rep_1_r_H_2.0.png	 H	 r	 r	 n.a.	 2.841948e-01
8	 2	 21	 flanked	 rf	 8	 0.165000	 2.000000	 flanked_rf_freq_8_amplitude_0.165_rep_6_l_H_2.0.png	 H	 l	 l	 n.a.	 3.112088e-01
8	 2	 22	 flanked	 rf	 5	 0.216700	 2.000000	 flanked_rf_freq_5_amplitude_0.2167_rep_7_t_D_2.0.png	 D	 t	 t	 n.a.	 3.435961e-01
8	 2	 23	 flanked	 rf	 4	 0.010000	 2.000000	 flanked_rf_freq_4_amplitude_0.01_rep_8_b_H_2.0.png	 H	 b	 l	 n.a.	 4.598655e-01
8	 2	 24	 flanked	 rf	 4	 0.061700	 2.000000	 flanked_rf_freq_4_amplitude_0.0617_rep_8_l_D_2.0.png	 D	 l	 r	 n.a.	 3.866472e-01
8	 2	 25	 flanked	 rf	 5	 0.010000	 2.000000	 flanked_rf_freq_5_amplitude_0.01_rep_1_r_K_2.0.png	 K	 r	 t	 n.a.	 2.870133e-01
8	 2	 26	 flanked	 rf	 5	 0.113300	 2.000000	 flanked_rf_freq_5_amplitude_0.1133_rep_7_r_D_2.0.png	 D	 r	 b	 n.a.	 6.698286e-01
8	 2	 27	 flanked	 rf	 4	 0.216700	 2.000000	 flanked_rf_freq_4_amplitude_0.2167_rep_2_t_N_2.0.png	 N	 t	 t	 n.a.	 4.464912e-01
8	 2	 28	 flanked	 rf	 2	 0.320000	 2.000000	 flanked_rf_freq_2_amplitude_0.32_rep_4_b_N_2.0.png	 N	 b	 b	 n.a.	 5.021718e-01
8	 2	 29	 flanked	 rf	 12	 0.061700	 2.000000	 flanked_rf_freq_12_amplitude_0.0617_rep_2_b_D_2.0.png	 D	 b	 l	 n.a.	 2.657364e-01
8	 2	 30	 flanked	 rf	 8	 0.010000	 2.000000	 flanked_rf_freq_8_amplitude_0.01_rep_6_l_N_2.0.png	 N	 l	 r	 n.a.	 2.617691e-01
8	 2	 31	 flanked	 rf	 2	 0.216700	 2.000000	 flanked_rf_freq_2_amplitude_0.2167_rep_6_l_K_2.0.png	 K	 l	 t	 n.a.	 1.441814e-01
8	 2	 32	 flanked	 rf	 5	 0.268300	 2.000000	 flanked_rf_freq_5_amplitude_0.2683_rep_9_t_H_2.0.png	 H	 t	 t	 n.a.	 3.263907e-01
8	 2	 33	 flanked	 rf	 2	 0.010000	 2.000000	 flanked_rf_freq_2_amplitude_0.01_rep_7_r_K_2.0.png	 K	 r	 l	 n.a.	 2.844951e-01
8	 2	 34	 flanked	 rf	 2	 0.165000	 2.000000	 flanked_rf_freq_2_amplitude_0.165_rep_6_l_H_2.0.png	 H	 l	 b	 n.a.	 2.347564e-01
8	 2	 35	 flanked	 rf	 5	 0.113300	 2.000000	 flanked_rf_freq_5_amplitude_0.1133_rep_3_l_H_2.0.png	 H	 l	 l	 n.a.	 2.575997e-01
8	 2	 36	 flanked	 rf	 4	 0.320000	 2.000000	 flanked_rf_freq_4_amplitude_0.32_rep_8_r_N_2.0.png	 N	 r	 r	 n.a.	 2.744417e-01
8	 2	 37	 flanked	 rf	 4	 0.268300	 2.000000	 flanked_rf_freq_4_amplitude_0.2683_rep_7_b_D_2.0.png	 D	 b	 t	 n.a.	 5.173342e-01
8	 2	 38	 flanked	 rf	 12	 0.165000	 2.000000	 flanked_rf_freq_12_amplitude_0.165_rep_2_b_N_2.0.png	 N	 b	 t	 n.a.	 4.471253e-01
8	 2	 39	 flanked	 rf	 4	 0.165000	 2.000000	 flanked_rf_freq_4_amplitude_0.165_rep_4_l_H_2.0.png	 H	 l	 b	 n.a.	 4.870592e-01
8	 2	 40	 flanked	 rf	 3	 0.320000	 2.000000	 flanked_rf_freq_3_amplitude_0.32_rep_1_t_H_2.0.png	 H	 t	 t	 n.a.	 4.543585e-01
8	 2	 41	 flanked	 rf	 12	 0.061700	 2.000000	 flanked_rf_freq_12_amplitude_0.0617_rep_4_l_N_2.0.png	 N	 l	 l	 n.a.	 2.962971e-01
8	 2	 42	 flanked	 rf	 2	 0.010000	 2.000000	 flanked_rf_freq_2_amplitude_0.01_rep_3_b_K_2.0.png	 K	 b	 b	 n.a.	 3.732625e-01
8	 2	 43	 flanked	 rf	 5	 0.061700	 2.000000	 flanked_rf_freq_5_amplitude_0.0617_rep_2_l_K_2.0.png	 K	 l	 r	 n.a.	 3.688034e-01
8	 2	 44	 flanked	 rf	 5	 0.061700	 2.000000	 flanked_rf_freq_5_amplitude_0.0617_rep_1_t_K_2.0.png	 K	 t	 l	 n.a.	 3.286626e-01
8	 2	 45	 flanked	 rf	 12	 0.320000	 2.000000	 flanked_rf_freq_12_amplitude_0.32_rep_4_r_D_2.0.png	 D	 r	 r	 n.a.	 2.302972e-01
8	 2	 46	 flanked	 rf	 2	 0.113300	 2.000000	 flanked_rf_freq_2_amplitude_0.1133_rep_6_b_N_2.0.png	 N	 b	 t	 n.a.	 2.616665e-01
8	 2	 47	 flanked	 rf	 8	 0.165000	 2.000000	 flanked_rf_freq_8_amplitude_0.165_rep_5_l_D_2.0.png	 D	 l	 r	 n.a.	 3.430966e-01
8	 2	 48	 flanked	 rf	 4	 0.061700	 2.000000	 flanked_rf_freq_4_amplitude_0.0617_rep_7_b_K_2.0.png	 K	 b	 b	 n.a.	 5.298517e-01
8	 2	 49	 flanked	 rf	 2	 0.216700	 2.000000	 flanked_rf_freq_2_amplitude_0.2167_rep_1_r_K_2.0.png	 K	 r	 t	 n.a.	 3.646134e-01
8	 2	 50	 flanked	 rf	 3	 0.268300	 2.000000	 flanked_rf_freq_3_amplitude_0.2683_rep_8_l_H_2.0.png	 H	 l	 l	 n.a.	 1.188723e-01
8	 2	 51	 flanked	 rf	 12	 0.320000	 2.000000	 flanked_rf_freq_12_amplitude_0.32_rep_0_l_D_2.0.png	 D	 l	 l	 n.a.	 2.558569e-01
8	 2	 52	 flanked	 rf	 12	 0.113300	 2.000000	 flanked_rf_freq_12_amplitude_0.1133_rep_3_b_H_2.0.png	 H	 b	 t	 n.a.	 4.906198e-01
8	 2	 53	 flanked	 rf	 4	 0.165000	 2.000000	 flanked_rf_freq_4_amplitude_0.165_rep_2_t_N_2.0.png	 N	 t	 l	 n.a.	 4.886070e-01
8	 2	 54	 flanked	 rf	 5	 0.165000	 2.000000	 flanked_rf_freq_5_amplitude_0.165_rep_8_l_K_2.0.png	 K	 l	 t	 n.a.	 3.213550e-01
8	 2	 55	 flanked	 rf	 2	 0.268300	 2.000000	 flanked_rf_freq_2_amplitude_0.2683_rep_5_b_H_2.0.png	 H	 b	 r	 n.a.	 2.607270e-01
8	 2	 56	 flanked	 rf	 2	 0.165000	 2.000000	 flanked_rf_freq_2_amplitude_0.165_rep_4_r_N_2.0.png	 N	 r	 b	 n.a.	 6.867051e-01
8	 2	 57	 flanked	 rf	 2	 0.268300	 2.000000	 flanked_rf_freq_2_amplitude_0.2683_rep_2_b_N_2.0.png	 N	 b	 l	 n.a.	 2.509774e-01
8	 2	 58	 flanked	 rf	 8	 0.216700	 2.000000	 flanked_rf_freq_8_amplitude_0.2167_rep_7_b_K_2.0.png	 K	 b	 t	 n.a.	 3.054020e-01
8	 2	 59	 flanked	 rf	 5	 0.216700	 2.000000	 flanked_rf_freq_5_amplitude_0.2167_rep_2_r_K_2.0.png	 K	 r	 r	 n.a.	 2.764610e-01
8	 2	 60	 flanked	 rf	 3	 0.320000	 2.000000	 flanked_rf_freq_3_amplitude_0.32_rep_2_l_H_2.0.png	 H	 l	 l	 n.a.	 4.176260e-01
8	 2	 61	 flanked	 rf	 4	 0.113300	 2.000000	 flanked_rf_freq_4_amplitude_0.1133_rep_9_r_H_2.0.png	 H	 r	 t	 n.a.	 3.160975e-01
8	 2	 62	 flanked	 rf	 3	 0.165000	 2.000000	 flanked_rf_freq_3_amplitude_0.165_rep_7_r_K_2.0.png	 K	 r	 b	 n.a.	 2.934553e-01
8	 2	 63	 flanked	 rf	 12	 0.216700	 2.000000	 flanked_rf_freq_12_amplitude_0.2167_rep_7_r_H_2.0.png	 H	 r	 r	 n.a.	 2.319141e-01
8	 2	 64	 flanked	 rf	 8	 0.268300	 2.000000	 flanked_rf_freq_8_amplitude_0.2683_rep_2_l_N_2.0.png	 N	 l	 l	 n.a.	 4.029140e-01
8	 2	 65	 flanked	 rf	 5	 0.216700	 2.000000	 flanked_rf_freq_5_amplitude_0.2167_rep_1_t_H_2.0.png	 H	 t	 t	 n.a.	 3.263607e-01
8	 2	 66	 flanked	 rf	 2	 0.061700	 2.000000	 flanked_rf_freq_2_amplitude_0.0617_rep_0_t_N_2.0.png	 N	 t	 t	 n.a.	 5.435923e-01
8	 2	 67	 flanked	 rf	 4	 0.268300	 2.000000	 flanked_rf_freq_4_amplitude_0.2683_rep_6_l_N_2.0.png	 N	 l	 t	 n.a.	 3.835294e-01
8	 2	 68	 flanked	 rf	 2	 0.320000	 2.000000	 flanked_rf_freq_2_amplitude_0.32_rep_6_t_D_2.0.png	 D	 t	 l	 n.a.	 3.620654e-01
8	 2	 69	 flanked	 rf	 2	 0.268300	 2.000000	 flanked_rf_freq_2_amplitude_0.2683_rep_4_r_N_2.0.png	 N	 r	 t	 n.a.	 6.235481e-01
8	 2	 70	 flanked	 rf	 3	 0.216700	 2.000000	 flanked_rf_freq_3_amplitude_0.2167_rep_2_r_D_2.0.png	 D	 r	 t	 n.a.	 3.458448e-01
8	 2	 71	 flanked	 rf	 12	 0.268300	 2.000000	 flanked_rf_freq_12_amplitude_0.2683_rep_3_l_K_2.0.png	 K	 l	 l	 n.a.	 3.919976e-01
8	 2	 72	 flanked	 rf	 8	 0.320000	 2.000000	 flanked_rf_freq_8_amplitude_0.32_rep_0_l_H_2.0.png	 H	 l	 l	 n.a.	 4.906136e-01
8	 2	 73	 flanked	 rf	 3	 0.113300	 2.000000	 flanked_rf_freq_3_amplitude_0.1133_rep_6_t_N_2.0.png	 N	 t	 b	 n.a.	 3.314274e-01
8	 2	 74	 flanked	 rf	 12	 0.061700	 2.000000	 flanked_rf_freq_12_amplitude_0.0617_rep_3_t_N_2.0.png	 N	 t	 t	 n.a.	 3.935870e-01
8	 2	 75	 flanked	 rf	 8	 0.061700	 2.000000	 flanked_rf_freq_8_amplitude_0.0617_rep_6_b_N_2.0.png	 N	 b	 b	 n.a.	 5.803137e-01
8	 2	 76	 flanked	 rf	 4	 0.113300	 2.000000	 flanked_rf_freq_4_amplitude_0.1133_rep_3_r_K_2.0.png	 K	 r	 r	 n.a.	 7.689805e-01
8	 2	 77	 flanked	 rf	 5	 0.320000	 2.000000	 flanked_rf_freq_5_amplitude_0.32_rep_6_r_N_2.0.png	 N	 r	 r	 n.a.	 2.773151e-01
8	 2	 78	 flanked	 rf	 3	 0.113300	 2.000000	 flanked_rf_freq_3_amplitude_0.1133_rep_8_r_N_2.0.png	 N	 r	 t	 n.a.	 3.134152e-01
8	 2	 79	 flanked	 rf	 3	 0.216700	 2.000000	 flanked_rf_freq_3_amplitude_0.2167_rep_4_l_D_2.0.png	 D	 l	 l	 n.a.	 2.831792e-01
8	 2	 80	 flanked	 rf	 2	 0.268300	 2.000000	 flanked_rf_freq_2_amplitude_0.2683_rep_1_r_H_2.0.png	 H	 r	 b	 n.a.	 4.883339e-01
8	 2	 81	 flanked	 rf	 5	 0.165000	 2.000000	 flanked_rf_freq_5_amplitude_0.165_rep_1_r_N_2.0.png	 N	 r	 t	 n.a.	 4.647194e-01
8	 2	 82	 flanked	 rf	 4	 0.113300	 2.000000	 flanked_rf_freq_4_amplitude_0.1133_rep_4_t_H_2.0.png	 H	 t	 r	 n.a.	 4.775794e-01
8	 2	 83	 flanked	 rf	 8	 0.010000	 2.000000	 flanked_rf_freq_8_amplitude_0.01_rep_9_b_K_2.0.png	 K	 b	 t	 n.a.	 5.854361e-01
8	 2	 84	 flanked	 rf	 8	 0.268300	 2.000000	 flanked_rf_freq_8_amplitude_0.2683_rep_5_b_D_2.0.png	 D	 b	 b	 n.a.	 2.512866e-01
8	 2	 85	 flanked	 rf	 5	 0.320000	 2.000000	 flanked_rf_freq_5_amplitude_0.32_rep_8_b_K_2.0.png	 K	 b	 b	 n.a.	 3.217192e-01
8	 2	 86	 flanked	 rf	 3	 0.320000	 2.000000	 flanked_rf_freq_3_amplitude_0.32_rep_3_r_N_2.0.png	 N	 r	 r	 n.a.	 2.372166e-01
8	 2	 87	 flanked	 rf	 8	 0.268300	 2.000000	 flanked_rf_freq_8_amplitude_0.2683_rep_4_b_H_2.0.png	 H	 b	 b	 n.a.	 3.101679e-01
8	 2	 88	 flanked	 rf	 5	 0.165000	 2.000000	 flanked_rf_freq_5_amplitude_0.165_rep_6_b_N_2.0.png	 N	 b	 l	 n.a.	 3.075922e-01
8	 2	 89	 flanked	 rf	 12	 0.320000	 2.000000	 flanked_rf_freq_12_amplitude_0.32_rep_9_t_D_2.0.png	 D	 t	 t	 n.a.	 3.852640e-01
8	 2	 90	 flanked	 rf	 12	 0.113300	 2.000000	 flanked_rf_freq_12_amplitude_0.1133_rep_1_b_N_2.0.png	 N	 b	 b	 n.a.	 2.818034e-01
8	 2	 91	 flanked	 rf	 3	 0.010000	 2.000000	 flanked_rf_freq_3_amplitude_0.01_rep_7_t_H_2.0.png	 H	 t	 t	 n.a.	 3.207355e-01
8	 2	 92	 flanked	 rf	 12	 0.165000	 2.000000	 flanked_rf_freq_12_amplitude_0.165_rep_9_b_H_2.0.png	 H	 b	 b	 n.a.	 3.011682e-01
8	 2	 93	 flanked	 rf	 2	 0.216700	 2.000000	 flanked_rf_freq_2_amplitude_0.2167_rep_9_t_N_2.0.png	 N	 t	 l	 n.a.	 4.903670e-01
8	 2	 94	 flanked	 rf	 2	 0.268300	 2.000000	 flanked_rf_freq_2_amplitude_0.2683_rep_9_b_H_2.0.png	 H	 b	 b	 n.a.	 2.504497e-01
8	 2	 95	 flanked	 rf	 4	 0.216700	 2.000000	 flanked_rf_freq_4_amplitude_0.2167_rep_5_t_D_2.0.png	 D	 t	 t	 n.a.	 4.063208e-01
8	 2	 96	 flanked	 rf	 12	 0.216700	 2.000000	 flanked_rf_freq_12_amplitude_0.2167_rep_0_t_K_2.0.png	 K	 t	 t	 n.a.	 3.590628e-01
8	 2	 97	 flanked	 rf	 3	 0.010000	 2.000000	 flanked_rf_freq_3_amplitude_0.01_rep_9_b_K_2.0.png	 K	 b	 b	 n.a.	 3.533564e-01
8	 2	 98	 flanked	 rf	 4	 0.320000	 2.000000	 flanked_rf_freq_4_amplitude_0.32_rep_3_t_H_2.0.png	 H	 t	 t	 n.a.	 2.258925e-01
8	 2	 99	 flanked	 rf	 8	 0.113300	 2.000000	 flanked_rf_freq_8_amplitude_0.1133_rep_6_t_H_2.0.png	 H	 t	 t	 n.a.	 2.738613e-01
8	 2	 100	 flanked	 rf	 12	 0.320000	 2.000000	 flanked_rf_freq_12_amplitude_0.32_rep_1_b_H_2.0.png	 H	 b	 b	 n.a.	 2.587909e-01
8	 2	 101	 flanked	 rf	 4	 0.165000	 2.000000	 flanked_rf_freq_4_amplitude_0.165_rep_9_b_D_2.0.png	 D	 b	 t	 n.a.	 2.221671e-01
8	 2	 102	 flanked	 rf	 4	 0.268300	 2.000000	 flanked_rf_freq_4_amplitude_0.2683_rep_2_r_D_2.0.png	 D	 r	 r	 n.a.	 3.614337e-01
8	 2	 103	 flanked	 rf	 2	 0.113300	 2.000000	 flanked_rf_freq_2_amplitude_0.1133_rep_2_l_K_2.0.png	 K	 l	 b	 n.a.	 6.798750e-01
8	 2	 104	 flanked	 rf	 12	 0.165000	 2.000000	 flanked_rf_freq_12_amplitude_0.165_rep_4_t_N_2.0.png	 N	 t	 t	 n.a.	 2.501529e-01
8	 2	 105	 flanked	 rf	 3	 0.165000	 2.000000	 flanked_rf_freq_3_amplitude_0.165_rep_5_r_H_2.0.png	 H	 r	 r	 n.a.	 4.093065e-01
8	 2	 106	 flanked	 rf	 3	 0.165000	 2.000000	 flanked_rf_freq_3_amplitude_0.165_rep_6_l_D_2.0.png	 D	 l	 t	 n.a.	 3.353408e-01
8	 2	 107	 flanked	 rf	 2	 0.216700	 2.000000	 flanked_rf_freq_2_amplitude_0.2167_rep_4_t_N_2.0.png	 N	 t	 b	 n.a.	 2.562716e-01
8	 2	 108	 flanked	 rf	 4	 0.268300	 2.000000	 flanked_rf_freq_4_amplitude_0.2683_rep_8_b_K_2.0.png	 K	 b	 b	 n.a.	 2.988318e-01
8	 2	 109	 flanked	 rf	 5	 0.113300	 2.000000	 flanked_rf_freq_5_amplitude_0.1133_rep_2_r_N_2.0.png	 N	 r	 t	 n.a.	 3.319469e-01
8	 2	 110	 flanked	 rf	 3	 0.320000	 2.000000	 flanked_rf_freq_3_amplitude_0.32_rep_7_r_D_2.0.png	 D	 r	 r	 n.a.	 3.946957e-01
8	 2	 111	 flanked	 rf	 8	 0.216700	 2.000000	 flanked_rf_freq_8_amplitude_0.2167_rep_9_r_D_2.0.png	 D	 r	 r	 n.a.	 5.236564e-01
8	 2	 112	 flanked	 rf	 2	 0.165000	 2.000000	 flanked_rf_freq_2_amplitude_0.165_rep_8_l_H_2.0.png	 H	 l	 b	 n.a.	 4.516846e-01
8	 2	 113	 flanked	 rf	 2	 0.165000	 2.000000	 flanked_rf_freq_2_amplitude_0.165_rep_5_b_H_2.0.png	 H	 b	 t	 n.a.	 3.926826e-01
8	 2	 114	 flanked	 rf	 5	 0.320000	 2.000000	 flanked_rf_freq_5_amplitude_0.32_rep_3_l_D_2.0.png	 D	 l	 l	 n.a.	 2.284527e-01
8	 2	 115	 flanked	 rf	 2	 0.320000	 2.000000	 flanked_rf_freq_2_amplitude_0.32_rep_3_r_D_2.0.png	 D	 r	 r	 n.a.	 4.297167e-01
8	 2	 116	 flanked	 rf	 2	 0.268300	 2.000000	 flanked_rf_freq_2_amplitude_0.2683_rep_3_r_N_2.0.png	 N	 r	 b	 n.a.	 3.386100e-01
8	 2	 117	 flanked	 rf	 5	 0.061700	 2.000000	 flanked_rf_freq_5_amplitude_0.0617_rep_3_b_N_2.0.png	 N	 b	 l	 n.a.	 3.927768e-01
8	 2	 118	 flanked	 rf	 2	 0.010000	 2.000000	 flanked_rf_freq_2_amplitude_0.01_rep_2_r_N_2.0.png	 N	 r	 b	 n.a.	 5.158496e-01
8	 2	 119	 flanked	 rf	 4	 0.113300	 2.000000	 flanked_rf_freq_4_amplitude_0.1133_rep_8_b_D_2.0.png	 D	 b	 t	 n.a.	 4.035923e-01
8	 2	 120	 flanked	 rf	 3	 0.165000	 2.000000	 flanked_rf_freq_3_amplitude_0.165_rep_4_r_K_2.0.png	 K	 r	 r	 n.a.	 3.425967e-01
8	 2	 121	 flanked	 rf	 8	 0.268300	 2.000000	 flanked_rf_freq_8_amplitude_0.2683_rep_3_b_K_2.0.png	 K	 b	 b	 n.a.	 3.063883e-01
8	 2	 122	 flanked	 rf	 4	 0.268300	 2.000000	 flanked_rf_freq_4_amplitude_0.2683_rep_0_t_K_2.0.png	 K	 t	 r	 n.a.	 6.017405e-01
8	 2	 123	 flanked	 rf	 4	 0.010000	 2.000000	 flanked_rf_freq_4_amplitude_0.01_rep_0_l_D_2.0.png	 D	 l	 t	 n.a.	 3.849064e-01
8	 2	 124	 flanked	 rf	 4	 0.113300	 2.000000	 flanked_rf_freq_4_amplitude_0.1133_rep_0_b_D_2.0.png	 D	 b	 l	 n.a.	 6.164567e-01
8	 2	 125	 flanked	 rf	 5	 0.113300	 2.000000	 flanked_rf_freq_5_amplitude_0.1133_rep_9_r_N_2.0.png	 N	 r	 t	 n.a.	 2.523680e-01
8	 2	 126	 flanked	 rf	 3	 0.268300	 2.000000	 flanked_rf_freq_3_amplitude_0.2683_rep_1_r_N_2.0.png	 N	 r	 r	 n.a.	 5.771911e-01
8	 2	 127	 flanked	 rf	 5	 0.061700	 2.000000	 flanked_rf_freq_5_amplitude_0.0617_rep_8_r_D_2.0.png	 D	 r	 t	 n.a.	 5.544155e-01
8	 2	 128	 flanked	 rf	 2	 0.165000	 2.000000	 flanked_rf_freq_2_amplitude_0.165_rep_9_l_N_2.0.png	 N	 l	 t	 n.a.	 5.393171e-01
8	 2	 129	 flanked	 rf	 2	 0.113300	 2.000000	 flanked_rf_freq_2_amplitude_0.1133_rep_8_r_N_2.0.png	 N	 r	 t	 n.a.	 5.883609e-01
8	 2	 130	 flanked	 rf	 8	 0.165000	 2.000000	 flanked_rf_freq_8_amplitude_0.165_rep_7_t_D_2.0.png	 D	 t	 t	 n.a.	 3.861619e-01
8	 2	 131	 flanked	 rf	 5	 0.320000	 2.000000	 flanked_rf_freq_5_amplitude_0.32_rep_2_t_D_2.0.png	 D	 t	 b	 n.a.	 5.045303e-01
8	 2	 132	 flanked	 rf	 12	 0.061700	 2.000000	 flanked_rf_freq_12_amplitude_0.0617_rep_1_r_K_2.0.png	 K	 r	 r	 n.a.	 2.427886e-01
8	 2	 133	 flanked	 rf	 5	 0.061700	 2.000000	 flanked_rf_freq_5_amplitude_0.0617_rep_7_t_D_2.0.png	 D	 t	 b	 n.a.	 5.769417e-01
8	 2	 134	 flanked	 rf	 3	 0.216700	 2.000000	 flanked_rf_freq_3_amplitude_0.2167_rep_6_b_D_2.0.png	 D	 b	 b	 n.a.	 4.078711e-01
8	 2	 135	 flanked	 rf	 5	 0.010000	 2.000000	 flanked_rf_freq_5_amplitude_0.01_rep_8_r_H_2.0.png	 H	 r	 t	 n.a.	 2.516027e-01
8	 2	 136	 flanked	 rf	 3	 0.061700	 2.000000	 flanked_rf_freq_3_amplitude_0.0617_rep_4_r_N_2.0.png	 N	 r	 t	 n.a.	 5.489910e-01
8	 2	 137	 flanked	 rf	 5	 0.165000	 2.000000	 flanked_rf_freq_5_amplitude_0.165_rep_7_b_N_2.0.png	 N	 b	 r	 n.a.	 3.984401e-01
8	 2	 138	 flanked	 rf	 4	 0.320000	 2.000000	 flanked_rf_freq_4_amplitude_0.32_rep_9_b_K_2.0.png	 K	 b	 b	 n.a.	 3.442546e-01
8	 2	 139	 flanked	 rf	 3	 0.113300	 2.000000	 flanked_rf_freq_3_amplitude_0.1133_rep_9_t_N_2.0.png	 N	 t	 l	 n.a.	 3.212084e-01
8	 2	 140	 flanked	 rf	 8	 0.268300	 2.000000	 flanked_rf_freq_8_amplitude_0.2683_rep_6_l_N_2.0.png	 N	 l	 l	 n.a.	 2.326376e-01
8	 2	 141	 flanked	 rf	 12	 0.268300	 2.000000	 flanked_rf_freq_12_amplitude_0.2683_rep_6_l_K_2.0.png	 K	 l	 l	 n.a.	 4.446875e-01
8	 2	 142	 flanked	 rf	 5	 0.268300	 2.000000	 flanked_rf_freq_5_amplitude_0.2683_rep_6_b_N_2.0.png	 N	 b	 b	 n.a.	 5.871873e-01
8	 2	 143	 flanked	 rf	 3	 0.061700	 2.000000	 flanked_rf_freq_3_amplitude_0.0617_rep_9_l_H_2.0.png	 H	 l	 t	 n.a.	 6.350524e-01
8	 2	 144	 flanked	 rf	 12	 0.010000	 2.000000	 flanked_rf_freq_12_amplitude_0.01_rep_2_t_K_2.0.png	 K	 t	 l	 n.a.	 2.780949e-01
8	 2	 145	 flanked	 rf	 3	 0.113300	 2.000000	 flanked_rf_freq_3_amplitude_0.1133_rep_7_r_D_2.0.png	 D	 r	 b	 n.a.	 5.793364e-01
8	 2	 146	 flanked	 rf	 4	 0.113300	 2.000000	 flanked_rf_freq_4_amplitude_0.1133_rep_5_l_K_2.0.png	 K	 l	 l	 n.a.	 4.299944e-01
8	 2	 147	 flanked	 rf	 3	 0.320000	 2.000000	 flanked_rf_freq_3_amplitude_0.32_rep_0_b_K_2.0.png	 K	 b	 b	 n.a.	 6.622448e-01
8	 2	 148	 flanked	 rf	 12	 0.216700	 2.000000	 flanked_rf_freq_12_amplitude_0.2167_rep_3_t_D_2.0.png	 D	 t	 t	 n.a.	 2.271147e-01
8	 2	 149	 flanked	 rf	 12	 0.113300	 2.000000	 flanked_rf_freq_12_amplitude_0.1133_rep_6_b_D_2.0.png	 D	 b	 b	 n.a.	 5.700321e-01
8	 2	 150	 flanked	 rf	 8	 0.010000	 2.000000	 flanked_rf_freq_8_amplitude_0.01_rep_5_b_N_2.0.png	 N	 b	 t	 n.a.	 6.090009e-01
8	 2	 151	 flanked	 rf	 3	 0.216700	 2.000000	 flanked_rf_freq_3_amplitude_0.2167_rep_3_t_N_2.0.png	 N	 t	 r	 n.a.	 4.552304e-01
8	 2	 152	 flanked	 rf	 2	 0.165000	 2.000000	 flanked_rf_freq_2_amplitude_0.165_rep_3_b_K_2.0.png	 K	 b	 l	 n.a.	 4.816087e-01
8	 2	 153	 flanked	 rf	 5	 0.268300	 2.000000	 flanked_rf_freq_5_amplitude_0.2683_rep_2_t_H_2.0.png	 H	 t	 t	 n.a.	 4.192548e-01
8	 2	 154	 flanked	 rf	 2	 0.113300	 2.000000	 flanked_rf_freq_2_amplitude_0.1133_rep_1_t_K_2.0.png	 K	 t	 t	 n.a.	 7.828341e-01
8	 2	 155	 flanked	 rf	 12	 0.320000	 2.000000	 flanked_rf_freq_12_amplitude_0.32_rep_8_b_N_2.0.png	 N	 b	 b	 n.a.	 2.601387e-01
8	 2	 156	 flanked	 rf	 8	 0.268300	 2.000000	 flanked_rf_freq_8_amplitude_0.2683_rep_0_b_D_2.0.png	 D	 b	 b	 n.a.	 2.531633e-01
8	 2	 157	 flanked	 rf	 3	 0.061700	 2.000000	 flanked_rf_freq_3_amplitude_0.0617_rep_0_b_D_2.0.png	 D	 b	 t	 n.a.	 2.849007e-01
8	 2	 158	 flanked	 rf	 4	 0.061700	 2.000000	 flanked_rf_freq_4_amplitude_0.0617_rep_5_l_H_2.0.png	 H	 l	 l	 n.a.	 2.949304e-01
8	 2	 159	 flanked	 rf	 4	 0.165000	 2.000000	 flanked_rf_freq_4_amplitude_0.165_rep_1_l_N_2.0.png	 N	 l	 t	 n.a.	 5.199057e-01
8	 2	 160	 flanked	 rf	 2	 0.320000	 2.000000	 flanked_rf_freq_2_amplitude_0.32_rep_1_r_H_2.0.png	 H	 r	 b	 n.a.	 3.965815e-01
8	 2	 161	 flanked	 rf	 8	 0.320000	 2.000000	 flanked_rf_freq_8_amplitude_0.32_rep_5_t_D_2.0.png	 D	 t	 t	 n.a.	 2.301905e-01
8	 2	 162	 flanked	 rf	 12	 0.010000	 2.000000	 flanked_rf_freq_12_amplitude_0.01_rep_6_b_N_2.0.png	 N	 b	 t	 n.a.	 5.008385e-01
8	 2	 163	 flanked	 rf	 5	 0.268300	 2.000000	 flanked_rf_freq_5_amplitude_0.2683_rep_0_b_N_2.0.png	 N	 b	 b	 n.a.	 5.821608e-01
8	 2	 164	 flanked	 rf	 2	 0.165000	 2.000000	 flanked_rf_freq_2_amplitude_0.165_rep_2_b_D_2.0.png	 D	 b	 t	 n.a.	 3.585823e-01
8	 2	 165	 flanked	 rf	 4	 0.113300	 2.000000	 flanked_rf_freq_4_amplitude_0.1133_rep_7_b_D_2.0.png	 D	 b	 l	 n.a.	 3.943657e-01
8	 2	 166	 flanked	 rf	 4	 0.010000	 2.000000	 flanked_rf_freq_4_amplitude_0.01_rep_3_t_K_2.0.png	 K	 t	 r	 n.a.	 4.051872e-01
8	 2	 167	 flanked	 rf	 12	 0.268300	 2.000000	 flanked_rf_freq_12_amplitude_0.2683_rep_2_b_K_2.0.png	 K	 b	 b	 n.a.	 2.388355e-01
8	 2	 168	 flanked	 rf	 5	 0.165000	 2.000000	 flanked_rf_freq_5_amplitude_0.165_rep_3_b_D_2.0.png	 D	 b	 t	 n.a.	 1.810728e-01
8	 2	 169	 flanked	 rf	 2	 0.216700	 2.000000	 flanked_rf_freq_2_amplitude_0.2167_rep_7_l_K_2.0.png	 K	 l	 t	 n.a.	 5.835752e-01
8	 2	 170	 flanked	 rf	 8	 0.113300	 2.000000	 flanked_rf_freq_8_amplitude_0.1133_rep_7_r_D_2.0.png	 D	 r	 r	 n.a.	 1.971753e-01
8	 2	 171	 flanked	 rf	 4	 0.165000	 2.000000	 flanked_rf_freq_4_amplitude_0.165_rep_0_t_N_2.0.png	 N	 t	 t	 n.a.	 3.088958e-01
8	 2	 172	 flanked	 rf	 2	 0.113300	 2.000000	 flanked_rf_freq_2_amplitude_0.1133_rep_9_l_H_2.0.png	 H	 l	 t	 n.a.	 4.279743e-01
8	 2	 173	 flanked	 rf	 3	 0.061700	 2.000000	 flanked_rf_freq_3_amplitude_0.0617_rep_3_b_H_2.0.png	 H	 b	 b	 n.a.	 3.417154e-01
8	 2	 174	 flanked	 rf	 8	 0.113300	 2.000000	 flanked_rf_freq_8_amplitude_0.1133_rep_3_l_H_2.0.png	 H	 l	 l	 n.a.	 3.048956e-01
8	 2	 175	 flanked	 rf	 2	 0.165000	 2.000000	 flanked_rf_freq_2_amplitude_0.165_rep_1_r_H_2.0.png	 H	 r	 r	 n.a.	 3.887957e-01
8	 2	 176	 flanked	 rf	 4	 0.320000	 2.000000	 flanked_rf_freq_4_amplitude_0.32_rep_6_r_N_2.0.png	 N	 r	 r	 n.a.	 2.330275e-01
8	 2	 177	 flanked	 rf	 3	 0.165000	 2.000000	 flanked_rf_freq_3_amplitude_0.165_rep_0_t_H_2.0.png	 H	 t	 l	 n.a.	 3.629219e-01
8	 2	 178	 flanked	 rf	 8	 0.268300	 2.000000	 flanked_rf_freq_8_amplitude_0.2683_rep_9_t_H_2.0.png	 H	 t	 t	 n.a.	 2.374467e-01
8	 2	 179	 flanked	 rf	 2	 0.113300	 2.000000	 flanked_rf_freq_2_amplitude_0.1133_rep_5_b_K_2.0.png	 K	 b	 b	 n.a.	 4.323150e-01
8	 2	 180	 flanked	 rf	 8	 0.320000	 2.000000	 flanked_rf_freq_8_amplitude_0.32_rep_2_r_H_2.0.png	 H	 r	 r	 n.a.	 2.476656e-01
8	 2	 181	 flanked	 rf	 12	 0.320000	 2.000000	 flanked_rf_freq_12_amplitude_0.32_rep_5_l_H_2.0.png	 H	 l	 l	 n.a.	 1.914584e-01
8	 2	 182	 flanked	 rf	 5	 0.320000	 2.000000	 flanked_rf_freq_5_amplitude_0.32_rep_1_l_H_2.0.png	 H	 l	 l	 n.a.	 4.268618e-01
8	 2	 183	 flanked	 rf	 8	 0.010000	 2.000000	 flanked_rf_freq_8_amplitude_0.01_rep_1_t_N_2.0.png	 N	 t	 r	 n.a.	 3.799685e-01
8	 2	 184	 flanked	 rf	 2	 0.216700	 2.000000	 flanked_rf_freq_2_amplitude_0.2167_rep_0_t_N_2.0.png	 N	 t	 t	 n.a.	 2.361427e-01
8	 2	 185	 flanked	 rf	 12	 0.010000	 2.000000	 flanked_rf_freq_12_amplitude_0.01_rep_1_l_D_2.0.png	 D	 l	 l	 n.a.	 6.126120e-01
8	 2	 186	 flanked	 rf	 2	 0.165000	 2.000000	 flanked_rf_freq_2_amplitude_0.165_rep_7_b_H_2.0.png	 H	 b	 b	 n.a.	 3.622449e-01
8	 2	 187	 flanked	 rf	 2	 0.320000	 2.000000	 flanked_rf_freq_2_amplitude_0.32_rep_9_t_K_2.0.png	 K	 t	 t	 n.a.	 2.513146e-01
8	 2	 188	 flanked	 rf	 3	 0.320000	 2.000000	 flanked_rf_freq_3_amplitude_0.32_rep_5_b_H_2.0.png	 H	 b	 b	 n.a.	 2.283569e-01
8	 2	 189	 flanked	 rf	 8	 0.216700	 2.000000	 flanked_rf_freq_8_amplitude_0.2167_rep_2_l_D_2.0.png	 D	 l	 l	 n.a.	 1.766073e-01
8	 2	 190	 flanked	 rf	 8	 0.061700	 2.000000	 flanked_rf_freq_8_amplitude_0.0617_rep_0_r_N_2.0.png	 N	 r	 r	 n.a.	 4.081183e-01
8	 2	 191	 flanked	 rf	 12	 0.268300	 2.000000	 flanked_rf_freq_12_amplitude_0.2683_rep_0_t_N_2.0.png	 N	 t	 t	 n.a.	 2.259938e-01
8	 2	 192	 flanked	 rf	 4	 0.165000	 2.000000	 flanked_rf_freq_4_amplitude_0.165_rep_3_r_H_2.0.png	 H	 r	 t	 n.a.	 3.041456e-01
8	 2	 193	 flanked	 rf	 2	 0.320000	 2.000000	 flanked_rf_freq_2_amplitude_0.32_rep_5_b_H_2.0.png	 H	 b	 b	 n.a.	 2.056253e-01
8	 2	 194	 flanked	 rf	 12	 0.113300	 2.000000	 flanked_rf_freq_12_amplitude_0.1133_rep_9_b_K_2.0.png	 K	 b	 b	 n.a.	 2.989493e-01
8	 2	 195	 flanked	 rf	 12	 0.113300	 2.000000	 flanked_rf_freq_12_amplitude_0.1133_rep_8_r_N_2.0.png	 N	 r	 r	 n.a.	 2.143237e-01
8	 2	 196	 flanked	 rf	 3	 0.268300	 2.000000	 flanked_rf_freq_3_amplitude_0.2683_rep_0_b_K_2.0.png	 K	 b	 t	 n.a.	 2.759484e-01
8	 2	 197	 flanked	 rf	 2	 0.061700	 2.000000	 flanked_rf_freq_2_amplitude_0.0617_rep_3_b_N_2.0.png	 N	 b	 t	 n.a.	 4.429811e-01
8	 2	 198	 flanked	 rf	 3	 0.113300	 2.000000	 flanked_rf_freq_3_amplitude_0.1133_rep_1_t_K_2.0.png	 K	 t	 t	 n.a.	 2.726715e-01
8	 2	 199	 flanked	 rf	 5	 0.165000	 2.000000	 flanked_rf_freq_5_amplitude_0.165_rep_2_t_D_2.0.png	 D	 t	 b	 n.a.	 3.267411e-01
8	 2	 200	 flanked	 rf	 2	 0.113300	 2.000000	 flanked_rf_freq_2_amplitude_0.1133_rep_7_r_N_2.0.png	 N	 r	 t	 n.a.	 2.284655e-01
8	 2	 201	 flanked	 rf	 4	 0.216700	 2.000000	 flanked_rf_freq_4_amplitude_0.2167_rep_0_r_K_2.0.png	 K	 r	 b	 n.a.	 3.757063e-01
8	 2	 202	 flanked	 rf	 4	 0.010000	 2.000000	 flanked_rf_freq_4_amplitude_0.01_rep_9_r_H_2.0.png	 H	 r	 r	 n.a.	 3.611561e-01
8	 2	 203	 flanked	 rf	 5	 0.216700	 2.000000	 flanked_rf_freq_5_amplitude_0.2167_rep_9_b_D_2.0.png	 D	 b	 b	 n.a.	 3.400322e-01
8	 2	 204	 flanked	 rf	 2	 0.061700	 2.000000	 flanked_rf_freq_2_amplitude_0.0617_rep_6_t_H_2.0.png	 H	 t	 t	 n.a.	 2.367716e-01
8	 2	 205	 flanked	 rf	 5	 0.010000	 2.000000	 flanked_rf_freq_5_amplitude_0.01_rep_9_r_D_2.0.png	 D	 r	 l	 n.a.	 5.926490e-01
8	 2	 206	 flanked	 rf	 12	 0.113300	 2.000000	 flanked_rf_freq_12_amplitude_0.1133_rep_2_l_H_2.0.png	 H	 l	 l	 n.a.	 2.342475e-01
8	 2	 207	 flanked	 rf	 12	 0.216700	 2.000000	 flanked_rf_freq_12_amplitude_0.2167_rep_4_l_N_2.0.png	 N	 l	 l	 n.a.	 2.277540e-01
8	 2	 208	 flanked	 rf	 12	 0.061700	 2.000000	 flanked_rf_freq_12_amplitude_0.0617_rep_5_t_K_2.0.png	 K	 t	 t	 n.a.	 2.523826e-01
8	 2	 209	 flanked	 rf	 8	 0.320000	 2.000000	 flanked_rf_freq_8_amplitude_0.32_rep_8_r_N_2.0.png	 N	 r	 r	 n.a.	 1.859194e-01
8	 2	 210	 flanked	 rf	 8	 0.268300	 2.000000	 flanked_rf_freq_8_amplitude_0.2683_rep_8_b_H_2.0.png	 H	 b	 b	 n.a.	 2.988600e-01
8	 2	 211	 flanked	 rf	 5	 0.216700	 2.000000	 flanked_rf_freq_5_amplitude_0.2167_rep_3_r_N_2.0.png	 N	 r	 r	 n.a.	 3.332711e-01
8	 2	 212	 flanked	 rf	 8	 0.216700	 2.000000	 flanked_rf_freq_8_amplitude_0.2167_rep_8_b_K_2.0.png	 K	 b	 b	 n.a.	 5.450792e-01
8	 2	 213	 flanked	 rf	 8	 0.113300	 2.000000	 flanked_rf_freq_8_amplitude_0.1133_rep_5_b_H_2.0.png	 H	 b	 b	 n.a.	 3.673174e-01
8	 2	 214	 flanked	 rf	 2	 0.320000	 2.000000	 flanked_rf_freq_2_amplitude_0.32_rep_0_t_H_2.0.png	 H	 t	 t	 n.a.	 3.200537e-01
8	 2	 215	 flanked	 rf	 12	 0.165000	 2.000000	 flanked_rf_freq_12_amplitude_0.165_rep_8_l_H_2.0.png	 H	 l	 l	 n.a.	 2.255520e-01
8	 2	 216	 flanked	 rf	 2	 0.216700	 2.000000	 flanked_rf_freq_2_amplitude_0.2167_rep_2_b_D_2.0.png	 D	 b	 b	 n.a.	 4.477403e-01
8	 2	 217	 flanked	 rf	 4	 0.216700	 2.000000	 flanked_rf_freq_4_amplitude_0.2167_rep_3_l_H_2.0.png	 H	 l	 l	 n.a.	 3.259968e-01
8	 2	 218	 flanked	 rf	 8	 0.061700	 2.000000	 flanked_rf_freq_8_amplitude_0.0617_rep_7_r_K_2.0.png	 K	 r	 r	 n.a.	 2.892569e-01
8	 2	 219	 flanked	 rf	 8	 0.010000	 2.000000	 flanked_rf_freq_8_amplitude_0.01_rep_3_t_K_2.0.png	 K	 t	 t	 n.a.	 2.881214e-01
8	 2	 220	 flanked	 rf	 3	 0.268300	 2.000000	 flanked_rf_freq_3_amplitude_0.2683_rep_2_l_K_2.0.png	 K	 l	 l	 n.a.	 2.839975e-01
8	 2	 221	 flanked	 rf	 3	 0.268300	 2.000000	 flanked_rf_freq_3_amplitude_0.2683_rep_9_r_K_2.0.png	 K	 r	 r	 n.a.	 2.717651e-01
8	 2	 222	 flanked	 rf	 2	 0.010000	 2.000000	 flanked_rf_freq_2_amplitude_0.01_rep_1_b_N_2.0.png	 N	 b	 b	 n.a.	 3.731259e-01
8	 2	 223	 flanked	 rf	 4	 0.216700	 2.000000	 flanked_rf_freq_4_amplitude_0.2167_rep_9_l_H_2.0.png	 H	 l	 l	 n.a.	 3.360364e-01
8	 2	 224	 flanked	 rf	 2	 0.010000	 2.000000	 flanked_rf_freq_2_amplitude_0.01_rep_4_b_K_2.0.png	 K	 b	 t	 n.a.	 4.764177e-01
8	 2	 225	 flanked	 rf	 5	 0.010000	 2.000000	 flanked_rf_freq_5_amplitude_0.01_rep_0_l_H_2.0.png	 H	 l	 b	 n.a.	 3.901701e-01
8	 2	 226	 flanked	 rf	 2	 0.010000	 2.000000	 flanked_rf_freq_2_amplitude_0.01_rep_9_b_K_2.0.png	 K	 b	 b	 n.a.	 4.638571e-01
8	 2	 227	 flanked	 rf	 8	 0.061700	 2.000000	 flanked_rf_freq_8_amplitude_0.0617_rep_8_l_H_2.0.png	 H	 l	 l	 n.a.	 6.897414e-01
8	 2	 228	 flanked	 rf	 2	 0.320000	 2.000000	 flanked_rf_freq_2_amplitude_0.32_rep_2_l_N_2.0.png	 N	 l	 l	 n.a.	 4.072839e-01
8	 2	 229	 flanked	 rf	 5	 0.061700	 2.000000	 flanked_rf_freq_5_amplitude_0.0617_rep_4_l_D_2.0.png	 D	 l	 b	 n.a.	 4.236214e-01
8	 2	 230	 flanked	 rf	 5	 0.010000	 2.000000	 flanked_rf_freq_5_amplitude_0.01_rep_4_b_N_2.0.png	 N	 b	 t	 n.a.	 3.776847e-01
8	 2	 231	 flanked	 rf	 8	 0.165000	 2.000000	 flanked_rf_freq_8_amplitude_0.165_rep_9_l_D_2.0.png	 D	 l	 l	 n.a.	 1.831206e-01
8	 2	 232	 flanked	 rf	 3	 0.320000	 2.000000	 flanked_rf_freq_3_amplitude_0.32_rep_9_t_N_2.0.png	 N	 t	 t	 n.a.	 4.083046e-01
8	 2	 233	 flanked	 rf	 5	 0.268300	 2.000000	 flanked_rf_freq_5_amplitude_0.2683_rep_3_l_K_2.0.png	 K	 l	 l	 n.a.	 2.615094e-01
8	 2	 234	 flanked	 rf	 3	 0.113300	 2.000000	 flanked_rf_freq_3_amplitude_0.1133_rep_4_t_H_2.0.png	 H	 t	 t	 n.a.	 5.246021e-01
8	 2	 235	 flanked	 rf	 2	 0.061700	 2.000000	 flanked_rf_freq_2_amplitude_0.0617_rep_8_b_K_2.0.png	 K	 b	 r	 n.a.	 6.816052e-01
8	 2	 236	 flanked	 rf	 8	 0.165000	 2.000000	 flanked_rf_freq_8_amplitude_0.165_rep_3_l_K_2.0.png	 K	 l	 l	 n.a.	 2.901084e-01
8	 2	 237	 flanked	 rf	 12	 0.216700	 2.000000	 flanked_rf_freq_12_amplitude_0.2167_rep_1_l_N_2.0.png	 N	 l	 l	 n.a.	 2.528350e-01
8	 2	 238	 flanked	 rf	 12	 0.061700	 2.000000	 flanked_rf_freq_12_amplitude_0.0617_rep_0_b_D_2.0.png	 D	 b	 b	 n.a.	 5.615637e-01
8	 2	 239	 flanked	 rf	 8	 0.216700	 2.000000	 flanked_rf_freq_8_amplitude_0.2167_rep_1_b_D_2.0.png	 D	 b	 b	 n.a.	 3.132120e-01
8	 2	 240	 flanked	 rf	 8	 0.216700	 2.000000	 flanked_rf_freq_8_amplitude_0.2167_rep_3_l_K_2.0.png	 K	 l	 l	 n.a.	 3.652665e-01
8	 2	 241	 flanked	 rf	 12	 0.010000	 2.000000	 flanked_rf_freq_12_amplitude_0.01_rep_9_l_K_2.0.png	 K	 l	 r	 n.a.	 4.088207e-01
8	 2	 242	 flanked	 rf	 3	 0.216700	 2.000000	 flanked_rf_freq_3_amplitude_0.2167_rep_9_b_D_2.0.png	 D	 b	 b	 n.a.	 2.890640e-01
8	 2	 243	 flanked	 rf	 12	 0.320000	 2.000000	 flanked_rf_freq_12_amplitude_0.32_rep_7_r_H_2.0.png	 H	 r	 r	 n.a.	 2.286123e-01
8	 2	 244	 flanked	 rf	 3	 0.165000	 2.000000	 flanked_rf_freq_3_amplitude_0.165_rep_1_l_N_2.0.png	 N	 l	 t	 n.a.	 5.113957e-01
8	 2	 245	 flanked	 rf	 5	 0.216700	 2.000000	 flanked_rf_freq_5_amplitude_0.2167_rep_5_r_H_2.0.png	 H	 r	 r	 n.a.	 2.493521e-01
8	 2	 246	 flanked	 rf	 3	 0.010000	 2.000000	 flanked_rf_freq_3_amplitude_0.01_rep_6_b_H_2.0.png	 H	 b	 t	 n.a.	 6.306232e-01
8	 2	 247	 flanked	 rf	 3	 0.165000	 2.000000	 flanked_rf_freq_3_amplitude_0.165_rep_3_l_N_2.0.png	 N	 l	 l	 n.a.	 2.465545e-01
8	 2	 248	 flanked	 rf	 2	 0.061700	 2.000000	 flanked_rf_freq_2_amplitude_0.0617_rep_9_r_K_2.0.png	 K	 r	 b	 n.a.	 2.694028e-01
8	 2	 249	 flanked	 rf	 5	 0.010000	 2.000000	 flanked_rf_freq_5_amplitude_0.01_rep_3_t_D_2.0.png	 D	 t	 r	 n.a.	 3.703709e-01
8	 2	 250	 flanked	 rf	 8	 0.113300	 2.000000	 flanked_rf_freq_8_amplitude_0.1133_rep_9_r_H_2.0.png	 H	 r	 r	 n.a.	 2.791765e-01
8	 2	 251	 flanked	 rf	 8	 0.061700	 2.000000	 flanked_rf_freq_8_amplitude_0.0617_rep_5_b_K_2.0.png	 K	 b	 b	 n.a.	 2.771530e-01
8	 2	 252	 flanked	 rf	 4	 0.216700	 2.000000	 flanked_rf_freq_4_amplitude_0.2167_rep_1_l_D_2.0.png	 D	 l	 r	 n.a.	 4.960746e-01
8	 2	 253	 flanked	 rf	 5	 0.216700	 2.000000	 flanked_rf_freq_5_amplitude_0.2167_rep_0_t_K_2.0.png	 K	 t	 t	 n.a.	 1.957002e-01
8	 2	 254	 flanked	 rf	 4	 0.165000	 2.000000	 flanked_rf_freq_4_amplitude_0.165_rep_7_r_D_2.0.png	 D	 r	 b	 n.a.	 6.166006e-01
8	 2	 255	 flanked	 rf	 4	 0.320000	 2.000000	 flanked_rf_freq_4_amplitude_0.32_rep_4_r_K_2.0.png	 K	 r	 r	 n.a.	 2.282829e-01
8	 2	 256	 flanked	 rf	 3	 0.268300	 2.000000	 flanked_rf_freq_3_amplitude_0.2683_rep_5_b_K_2.0.png	 K	 b	 t	 n.a.	 3.245264e-01
8	 2	 257	 flanked	 rf	 12	 0.216700	 2.000000	 flanked_rf_freq_12_amplitude_0.2167_rep_9_b_H_2.0.png	 H	 b	 b	 n.a.	 2.603493e-01
8	 2	 258	 flanked	 rf	 2	 0.113300	 2.000000	 flanked_rf_freq_2_amplitude_0.1133_rep_3_b_K_2.0.png	 K	 b	 t	 n.a.	 5.837552e-01
8	 2	 259	 flanked	 rf	 8	 0.165000	 2.000000	 flanked_rf_freq_8_amplitude_0.165_rep_8_b_H_2.0.png	 H	 b	 b	 n.a.	 3.793669e-01
8	 2	 260	 flanked	 rf	 4	 0.061700	 2.000000	 flanked_rf_freq_4_amplitude_0.0617_rep_6_b_N_2.0.png	 N	 b	 b	 n.a.	 7.335550e-01
8	 2	 261	 flanked	 rf	 4	 0.061700	 2.000000	 flanked_rf_freq_4_amplitude_0.0617_rep_0_r_H_2.0.png	 H	 r	 t	 n.a.	 4.460690e-01
8	 2	 262	 flanked	 rf	 5	 0.113300	 2.000000	 flanked_rf_freq_5_amplitude_0.1133_rep_8_l_D_2.0.png	 D	 l	 l	 n.a.	 5.916868e-01
8	 2	 263	 flanked	 rf	 5	 0.113300	 2.000000	 flanked_rf_freq_5_amplitude_0.1133_rep_5_b_D_2.0.png	 D	 b	 b	 n.a.	 5.010686e-01
8	 2	 264	 flanked	 rf	 2	 0.010000	 2.000000	 flanked_rf_freq_2_amplitude_0.01_rep_5_r_H_2.0.png	 H	 r	 t	 n.a.	 4.038128e-01
8	 2	 265	 flanked	 rf	 5	 0.320000	 2.000000	 flanked_rf_freq_5_amplitude_0.32_rep_0_l_K_2.0.png	 K	 l	 l	 n.a.	 2.598918e-01
8	 2	 266	 flanked	 rf	 2	 0.061700	 2.000000	 flanked_rf_freq_2_amplitude_0.0617_rep_2_t_K_2.0.png	 K	 t	 t	 n.a.	 3.488741e-01
8	 2	 267	 flanked	 rf	 8	 0.010000	 2.000000	 flanked_rf_freq_8_amplitude_0.01_rep_7_b_D_2.0.png	 D	 b	 b	 n.a.	 3.357359e-01
8	 2	 268	 flanked	 rf	 3	 0.061700	 2.000000	 flanked_rf_freq_3_amplitude_0.0617_rep_8_t_H_2.0.png	 H	 t	 l	 n.a.	 7.130971e-01
8	 2	 269	 flanked	 rf	 12	 0.165000	 2.000000	 flanked_rf_freq_12_amplitude_0.165_rep_3_l_N_2.0.png	 N	 l	 t	 n.a.	 3.506074e-01
8	 2	 270	 flanked	 rf	 4	 0.113300	 2.000000	 flanked_rf_freq_4_amplitude_0.1133_rep_1_r_H_2.0.png	 H	 r	 b	 n.a.	 3.882875e-01
8	 2	 271	 flanked	 rf	 12	 0.010000	 2.000000	 flanked_rf_freq_12_amplitude_0.01_rep_3_l_K_2.0.png	 K	 l	 r	 n.a.	 4.144993e-01
8	 2	 272	 flanked	 rf	 2	 0.268300	 2.000000	 flanked_rf_freq_2_amplitude_0.2683_rep_6_b_N_2.0.png	 N	 b	 b	 n.a.	 3.591132e-01
8	 2	 273	 flanked	 rf	 4	 0.268300	 2.000000	 flanked_rf_freq_4_amplitude_0.2683_rep_5_r_K_2.0.png	 K	 r	 t	 n.a.	 6.735171e-01
8	 2	 274	 flanked	 rf	 12	 0.320000	 2.000000	 flanked_rf_freq_12_amplitude_0.32_rep_3_b_H_2.0.png	 H	 b	 b	 n.a.	 2.636038e-01
8	 2	 275	 flanked	 rf	 3	 0.061700	 2.000000	 flanked_rf_freq_3_amplitude_0.0617_rep_5_b_N_2.0.png	 N	 b	 t	 n.a.	 6.096356e-01
8	 2	 276	 flanked	 rf	 4	 0.165000	 2.000000	 flanked_rf_freq_4_amplitude_0.165_rep_5_b_K_2.0.png	 K	 b	 b	 n.a.	 3.925649e-01
8	 2	 277	 flanked	 rf	 8	 0.320000	 2.000000	 flanked_rf_freq_8_amplitude_0.32_rep_4_b_D_2.0.png	 D	 b	 b	 n.a.	 2.967135e-01
8	 2	 278	 flanked	 rf	 4	 0.268300	 2.000000	 flanked_rf_freq_4_amplitude_0.2683_rep_4_b_H_2.0.png	 H	 b	 b	 n.a.	 5.551428e-01
8	 2	 279	 flanked	 rf	 12	 0.268300	 2.000000	 flanked_rf_freq_12_amplitude_0.2683_rep_5_b_K_2.0.png	 K	 b	 b	 n.a.	 2.467867e-01
8	 2	 280	 flanked	 rf	 3	 0.216700	 2.000000	 flanked_rf_freq_3_amplitude_0.2167_rep_8_t_K_2.0.png	 K	 t	 t	 n.a.	 4.183612e-01
8	 2	 281	 flanked	 rf	 12	 0.268300	 2.000000	 flanked_rf_freq_12_amplitude_0.2683_rep_4_b_D_2.0.png	 D	 b	 b	 n.a.	 2.298529e-01
8	 2	 282	 flanked	 rf	 5	 0.113300	 2.000000	 flanked_rf_freq_5_amplitude_0.1133_rep_1_b_N_2.0.png	 N	 b	 t	 n.a.	 4.168893e-01
8	 2	 283	 flanked	 rf	 12	 0.216700	 2.000000	 flanked_rf_freq_12_amplitude_0.2167_rep_5_t_D_2.0.png	 D	 t	 t	 n.a.	 2.445487e-01
8	 2	 284	 flanked	 rf	 4	 0.216700	 2.000000	 flanked_rf_freq_4_amplitude_0.2167_rep_4_r_D_2.0.png	 D	 r	 r	 n.a.	 3.754755e-01
8	 2	 285	 flanked	 rf	 12	 0.061700	 2.000000	 flanked_rf_freq_12_amplitude_0.0617_rep_8_t_H_2.0.png	 H	 t	 b	 n.a.	 4.287821e-01
8	 2	 286	 flanked	 rf	 3	 0.010000	 2.000000	 flanked_rf_freq_3_amplitude_0.01_rep_5_t_N_2.0.png	 N	 t	 b	 n.a.	 3.343759e-01
8	 2	 287	 flanked	 rf	 3	 0.268300	 2.000000	 flanked_rf_freq_3_amplitude_0.2683_rep_7_b_N_2.0.png	 N	 b	 t	 n.a.	 2.360306e-01
8	 2	 288	 flanked	 rf	 4	 0.061700	 2.000000	 flanked_rf_freq_4_amplitude_0.0617_rep_3_r_K_2.0.png	 K	 r	 l	 n.a.	 3.652935e-01
8	 2	 289	 flanked	 rf	 5	 0.268300	 2.000000	 flanked_rf_freq_5_amplitude_0.2683_rep_7_r_K_2.0.png	 K	 r	 r	 n.a.	 2.119380e-01
8	 2	 290	 flanked	 rf	 2	 0.061700	 2.000000	 flanked_rf_freq_2_amplitude_0.0617_rep_5_t_K_2.0.png	 K	 t	 t	 n.a.	 2.898981e-01
8	 2	 291	 flanked	 rf	 2	 0.010000	 2.000000	 flanked_rf_freq_2_amplitude_0.01_rep_8_t_H_2.0.png	 H	 t	 b	 n.a.	 4.367229e-01
8	 2	 292	 flanked	 rf	 8	 0.268300	 2.000000	 flanked_rf_freq_8_amplitude_0.2683_rep_1_r_H_2.0.png	 H	 r	 r	 n.a.	 1.619691e-01
8	 2	 293	 flanked	 rf	 4	 0.010000	 2.000000	 flanked_rf_freq_4_amplitude_0.01_rep_5_l_H_2.0.png	 H	 l	 t	 n.a.	 5.102073e-01
8	 2	 294	 flanked	 rf	 5	 0.165000	 2.000000	 flanked_rf_freq_5_amplitude_0.165_rep_9_b_H_2.0.png	 H	 b	 t	 n.a.	 2.552356e-01
8	 2	 295	 flanked	 rf	 3	 0.320000	 2.000000	 flanked_rf_freq_3_amplitude_0.32_rep_4_r_D_2.0.png	 D	 r	 b	 n.a.	 2.707716e-01
8	 2	 296	 flanked	 rf	 5	 0.165000	 2.000000	 flanked_rf_freq_5_amplitude_0.165_rep_5_t_D_2.0.png	 D	 t	 t	 n.a.	 3.606336e-01
8	 2	 297	 flanked	 rf	 8	 0.113300	 2.000000	 flanked_rf_freq_8_amplitude_0.1133_rep_2_r_N_2.0.png	 N	 r	 r	 n.a.	 2.848201e-01
8	 2	 298	 flanked	 rf	 3	 0.010000	 2.000000	 flanked_rf_freq_3_amplitude_0.01_rep_3_l_D_2.0.png	 D	 l	 t	 n.a.	 6.575863e-01
8	 2	 299	 flanked	 rf	 2	 0.113300	 2.000000	 flanked_rf_freq_2_amplitude_0.1133_rep_0_l_K_2.0.png	 K	 l	 l	 n.a.	 4.234552e-01
8	 2	 300	 flanked	 rf	 4	 0.061700	 2.000000	 flanked_rf_freq_4_amplitude_0.0617_rep_1_r_K_2.0.png	 K	 r	 b	 n.a.	 2.654539e-01
8	 2	 301	 flanked	 rf	 3	 0.320000	 2.000000	 flanked_rf_freq_3_amplitude_0.32_rep_6_l_H_2.0.png	 H	 l	 l	 n.a.	 3.616092e-01
8	 2	 302	 flanked	 rf	 3	 0.216700	 2.000000	 flanked_rf_freq_3_amplitude_0.2167_rep_7_l_H_2.0.png	 H	 l	 b	 n.a.	 4.710607e-01
8	 2	 303	 flanked	 rf	 4	 0.320000	 2.000000	 flanked_rf_freq_4_amplitude_0.32_rep_1_t_K_2.0.png	 K	 t	 t	 n.a.	 2.915108e-01
8	 2	 304	 flanked	 rf	 12	 0.010000	 2.000000	 flanked_rf_freq_12_amplitude_0.01_rep_5_t_H_2.0.png	 H	 t	 r	 n.a.	 5.786667e-01
8	 2	 305	 flanked	 rf	 8	 0.113300	 2.000000	 flanked_rf_freq_8_amplitude_0.1133_rep_8_r_K_2.0.png	 K	 r	 r	 n.a.	 2.605311e-01
8	 2	 306	 flanked	 rf	 3	 0.010000	 2.000000	 flanked_rf_freq_3_amplitude_0.01_rep_4_r_D_2.0.png	 D	 r	 t	 n.a.	 2.596798e-01
8	 2	 307	 flanked	 rf	 2	 0.216700	 2.000000	 flanked_rf_freq_2_amplitude_0.2167_rep_3_r_N_2.0.png	 N	 r	 r	 n.a.	 2.631980e-01
8	 2	 308	 flanked	 rf	 5	 0.061700	 2.000000	 flanked_rf_freq_5_amplitude_0.0617_rep_6_b_D_2.0.png	 D	 b	 l	 n.a.	 2.454106e-01
8	 2	 309	 flanked	 rf	 5	 0.268300	 2.000000	 flanked_rf_freq_5_amplitude_0.2683_rep_4_t_N_2.0.png	 N	 t	 t	 n.a.	 1.873388e-01
8	 2	 310	 flanked	 rf	 8	 0.216700	 2.000000	 flanked_rf_freq_8_amplitude_0.2167_rep_4_l_N_2.0.png	 N	 l	 l	 n.a.	 2.469824e-01
8	 2	 311	 flanked	 rf	 12	 0.216700	 2.000000	 flanked_rf_freq_12_amplitude_0.2167_rep_8_t_N_2.0.png	 N	 t	 t	 n.a.	 2.607163e-01
8	 2	 312	 flanked	 rf	 3	 0.113300	 2.000000	 flanked_rf_freq_3_amplitude_0.1133_rep_5_t_K_2.0.png	 K	 t	 b	 n.a.	 3.534905e-01
8	 2	 313	 flanked	 rf	 4	 0.061700	 2.000000	 flanked_rf_freq_4_amplitude_0.0617_rep_2_t_N_2.0.png	 N	 t	 r	 n.a.	 5.062971e-01
8	 2	 314	 flanked	 rf	 4	 0.320000	 2.000000	 flanked_rf_freq_4_amplitude_0.32_rep_2_r_H_2.0.png	 H	 r	 r	 n.a.	 2.224919e-01
8	 2	 315	 flanked	 rf	 5	 0.010000	 2.000000	 flanked_rf_freq_5_amplitude_0.01_rep_2_b_N_2.0.png	 N	 b	 t	 n.a.	 4.062711e-01
8	 2	 316	 flanked	 rf	 4	 0.061700	 2.000000	 flanked_rf_freq_4_amplitude_0.0617_rep_4_b_D_2.0.png	 D	 b	 t	 n.a.	 3.547931e-01
8	 2	 317	 flanked	 rf	 12	 0.113300	 2.000000	 flanked_rf_freq_12_amplitude_0.1133_rep_5_r_D_2.0.png	 D	 r	 r	 n.a.	 2.254025e-01
8	 2	 318	 flanked	 rf	 3	 0.216700	 2.000000	 flanked_rf_freq_3_amplitude_0.2167_rep_1_r_D_2.0.png	 D	 r	 r	 n.a.	 3.611701e-01
8	 2	 319	 flanked	 rf	 8	 0.010000	 2.000000	 flanked_rf_freq_8_amplitude_0.01_rep_2_b_D_2.0.png	 D	 b	 t	 n.a.	 4.543068e-01
8	 2	 320	 flanked	 rf	 12	 0.010000	 2.000000	 flanked_rf_freq_12_amplitude_0.01_rep_7_b_N_2.0.png	 N	 b	 t	 n.a.	 3.645320e-01
8	 2	 321	 flanked	 rf	 4	 0.268300	 2.000000	 flanked_rf_freq_4_amplitude_0.2683_rep_1_l_D_2.0.png	 D	 l	 l	 n.a.	 2.276847e-01
8	 2	 322	 flanked	 rf	 3	 0.268300	 2.000000	 flanked_rf_freq_3_amplitude_0.2683_rep_6_r_D_2.0.png	 D	 r	 r	 n.a.	 2.520934e-01
8	 2	 323	 flanked	 rf	 8	 0.061700	 2.000000	 flanked_rf_freq_8_amplitude_0.0617_rep_1_l_N_2.0.png	 N	 l	 t	 n.a.	 2.754370e-01
8	 2	 324	 flanked	 rf	 5	 0.061700	 2.000000	 flanked_rf_freq_5_amplitude_0.0617_rep_0_b_H_2.0.png	 H	 b	 b	 n.a.	 2.881318e-01
8	 2	 325	 flanked	 rf	 8	 0.165000	 2.000000	 flanked_rf_freq_8_amplitude_0.165_rep_0_b_H_2.0.png	 H	 b	 b	 n.a.	 2.800893e-01
8	 2	 326	 flanked	 rf	 5	 0.320000	 2.000000	 flanked_rf_freq_5_amplitude_0.32_rep_4_t_H_2.0.png	 H	 t	 t	 n.a.	 2.748422e-01
8	 2	 327	 flanked	 rf	 3	 0.268300	 2.000000	 flanked_rf_freq_3_amplitude_0.2683_rep_3_l_H_2.0.png	 H	 l	 l	 n.a.	 3.404973e-01
8	 2	 328	 flanked	 rf	 12	 0.216700	 2.000000	 flanked_rf_freq_12_amplitude_0.2167_rep_2_b_N_2.0.png	 N	 b	 b	 n.a.	 2.387540e-01
8	 2	 329	 flanked	 rf	 3	 0.268300	 2.000000	 flanked_rf_freq_3_amplitude_0.2683_rep_4_t_N_2.0.png	 N	 t	 t	 n.a.	 3.732938e-01
8	 2	 330	 flanked	 rf	 3	 0.010000	 2.000000	 flanked_rf_freq_3_amplitude_0.01_rep_1_r_K_2.0.png	 K	 r	 b	 n.a.	 3.137791e-01
8	 2	 331	 flanked	 rf	 2	 0.010000	 2.000000	 flanked_rf_freq_2_amplitude_0.01_rep_6_b_D_2.0.png	 D	 b	 t	 n.a.	 3.544665e-01
8	 2	 332	 flanked	 rf	 8	 0.061700	 2.000000	 flanked_rf_freq_8_amplitude_0.0617_rep_4_l_K_2.0.png	 K	 l	 l	 n.a.	 2.256952e-01
8	 2	 333	 flanked	 rf	 3	 0.010000	 2.000000	 flanked_rf_freq_3_amplitude_0.01_rep_8_b_H_2.0.png	 H	 b	 b	 n.a.	 3.727293e-01
8	 2	 334	 flanked	 rf	 12	 0.113300	 2.000000	 flanked_rf_freq_12_amplitude_0.1133_rep_7_t_D_2.0.png	 D	 t	 t	 n.a.	 2.373565e-01
8	 2	 335	 flanked	 rf	 5	 0.320000	 2.000000	 flanked_rf_freq_5_amplitude_0.32_rep_7_t_D_2.0.png	 D	 t	 t	 n.a.	 2.949398e-01
8	 2	 336	 flanked	 rf	 8	 0.320000	 2.000000	 flanked_rf_freq_8_amplitude_0.32_rep_7_b_H_2.0.png	 H	 b	 b	 n.a.	 2.503602e-01
8	 2	 337	 flanked	 rf	 2	 0.216700	 2.000000	 flanked_rf_freq_2_amplitude_0.2167_rep_5_l_H_2.0.png	 H	 l	 l	 n.a.	 3.415567e-01
8	 2	 338	 flanked	 rf	 5	 0.010000	 2.000000	 flanked_rf_freq_5_amplitude_0.01_rep_7_r_H_2.0.png	 H	 r	 b	 n.a.	 4.020024e-01
8	 2	 339	 flanked	 rf	 5	 0.268300	 2.000000	 flanked_rf_freq_5_amplitude_0.2683_rep_1_b_H_2.0.png	 H	 b	 b	 n.a.	 2.659554e-01
8	 2	 340	 flanked	 rf	 4	 0.165000	 2.000000	 flanked_rf_freq_4_amplitude_0.165_rep_8_r_H_2.0.png	 H	 r	 r	 n.a.	 3.202942e-01
8	 2	 341	 flanked	 rf	 8	 0.216700	 2.000000	 flanked_rf_freq_8_amplitude_0.2167_rep_6_r_K_2.0.png	 K	 r	 r	 n.a.	 2.739689e-01
8	 2	 342	 flanked	 rf	 8	 0.010000	 2.000000	 flanked_rf_freq_8_amplitude_0.01_rep_0_t_H_2.0.png	 H	 t	 l	 n.a.	 2.155087e-01
8	 2	 343	 flanked	 rf	 12	 0.268300	 2.000000	 flanked_rf_freq_12_amplitude_0.2683_rep_7_l_H_2.0.png	 H	 l	 l	 n.a.	 2.581967e-01
8	 2	 344	 flanked	 rf	 5	 0.216700	 2.000000	 flanked_rf_freq_5_amplitude_0.2167_rep_8_b_N_2.0.png	 N	 b	 b	 n.a.	 2.845222e-01
8	 2	 345	 flanked	 rf	 8	 0.010000	 2.000000	 flanked_rf_freq_8_amplitude_0.01_rep_4_r_H_2.0.png	 H	 r	 b	 n.a.	 5.869679e-01
8	 2	 346	 flanked	 rf	 4	 0.320000	 2.000000	 flanked_rf_freq_4_amplitude_0.32_rep_5_t_N_2.0.png	 N	 t	 t	 n.a.	 3.025812e-01
8	 2	 347	 flanked	 rf	 8	 0.320000	 2.000000	 flanked_rf_freq_8_amplitude_0.32_rep_9_l_H_2.0.png	 H	 l	 l	 n.a.	 2.352564e-01
8	 2	 348	 flanked	 rf	 3	 0.216700	 2.000000	 flanked_rf_freq_3_amplitude_0.2167_rep_0_l_D_2.0.png	 D	 l	 l	 n.a.	 2.766535e-01
8	 2	 349	 flanked	 rf	 5	 0.165000	 2.000000	 flanked_rf_freq_5_amplitude_0.165_rep_4_l_K_2.0.png	 K	 l	 t	 n.a.	 3.469642e-01
8	 2	 350	 flanked	 rf	 5	 0.165000	 2.000000	 flanked_rf_freq_5_amplitude_0.165_rep_0_r_D_2.0.png	 D	 r	 r	 n.a.	 2.733001e-01
8	 2	 351	 flanked	 rf	 5	 0.010000	 2.000000	 flanked_rf_freq_5_amplitude_0.01_rep_5_r_D_2.0.png	 D	 r	 t	 n.a.	 3.666102e-01
8	 2	 352	 flanked	 rf	 2	 0.165000	 2.000000	 flanked_rf_freq_2_amplitude_0.165_rep_0_t_N_2.0.png	 N	 t	 b	 n.a.	 3.040262e-01
8	 2	 353	 flanked	 rf	 4	 0.216700	 2.000000	 flanked_rf_freq_4_amplitude_0.2167_rep_6_b_N_2.0.png	 N	 b	 t	 n.a.	 4.719953e-01
8	 2	 354	 flanked	 rf	 4	 0.010000	 2.000000	 flanked_rf_freq_4_amplitude_0.01_rep_6_r_H_2.0.png	 H	 r	 b	 n.a.	 5.799088e-01
8	 2	 355	 flanked	 rf	 5	 0.113300	 2.000000	 flanked_rf_freq_5_amplitude_0.1133_rep_4_l_K_2.0.png	 K	 l	 r	 n.a.	 3.269323e-01
8	 2	 356	 flanked	 rf	 2	 0.061700	 2.000000	 flanked_rf_freq_2_amplitude_0.0617_rep_7_l_N_2.0.png	 N	 l	 t	 n.a.	 3.283022e-01
8	 2	 357	 flanked	 rf	 12	 0.165000	 2.000000	 flanked_rf_freq_12_amplitude_0.165_rep_5_l_K_2.0.png	 K	 l	 l	 n.a.	 2.177155e-01
8	 2	 358	 flanked	 rf	 8	 0.320000	 2.000000	 flanked_rf_freq_8_amplitude_0.32_rep_3_r_N_2.0.png	 N	 r	 r	 n.a.	 2.030480e-01
8	 2	 359	 flanked	 rf	 4	 0.216700	 2.000000	 flanked_rf_freq_4_amplitude_0.2167_rep_8_b_H_2.0.png	 H	 b	 b	 n.a.	 2.387216e-01
8	 2	 360	 flanked	 rf	 5	 0.061700	 2.000000	 flanked_rf_freq_5_amplitude_0.0617_rep_9_l_K_2.0.png	 K	 l	 r	 n.a.	 5.372814e-01
8	 2	 361	 flanked	 rf	 3	 0.113300	 2.000000	 flanked_rf_freq_3_amplitude_0.1133_rep_0_b_K_2.0.png	 K	 b	 b	 n.a.	 2.971074e-01
8	 2	 362	 flanked	 rf	 8	 0.113300	 2.000000	 flanked_rf_freq_8_amplitude_0.1133_rep_0_l_D_2.0.png	 D	 l	 l	 n.a.	 2.498008e-01
8	 2	 363	 flanked	 rf	 3	 0.061700	 2.000000	 flanked_rf_freq_3_amplitude_0.0617_rep_2_t_K_2.0.png	 K	 t	 b	 n.a.	 4.026244e-01
8	 2	 364	 flanked	 rf	 12	 0.165000	 2.000000	 flanked_rf_freq_12_amplitude_0.165_rep_6_l_H_2.0.png	 H	 l	 l	 n.a.	 2.391818e-01
8	 2	 365	 flanked	 rf	 4	 0.268300	 2.000000	 flanked_rf_freq_4_amplitude_0.2683_rep_9_b_D_2.0.png	 D	 b	 l	 n.a.	 1.964335e-01
8	 2	 366	 flanked	 rf	 5	 0.010000	 2.000000	 flanked_rf_freq_5_amplitude_0.01_rep_6_t_H_2.0.png	 H	 t	 t	 n.a.	 3.718067e-01
8	 2	 367	 flanked	 rf	 2	 0.113300	 2.000000	 flanked_rf_freq_2_amplitude_0.1133_rep_4_b_D_2.0.png	 D	 b	 b	 n.a.	 4.273341e-01
8	 2	 368	 flanked	 rf	 5	 0.268300	 2.000000	 flanked_rf_freq_5_amplitude_0.2683_rep_5_l_K_2.0.png	 K	 l	 l	 n.a.	 3.276507e-01
8	 2	 369	 flanked	 rf	 8	 0.320000	 2.000000	 flanked_rf_freq_8_amplitude_0.32_rep_6_b_N_2.0.png	 N	 b	 b	 n.a.	 2.521533e-01
8	 2	 370	 flanked	 rf	 8	 0.268300	 2.000000	 flanked_rf_freq_8_amplitude_0.2683_rep_7_l_N_2.0.png	 N	 l	 l	 n.a.	 1.763837e-01
8	 2	 371	 flanked	 rf	 12	 0.320000	 2.000000	 flanked_rf_freq_12_amplitude_0.32_rep_6_l_N_2.0.png	 N	 l	 l	 n.a.	 2.285009e-01
8	 2	 372	 flanked	 rf	 12	 0.268300	 2.000000	 flanked_rf_freq_12_amplitude_0.2683_rep_1_b_H_2.0.png	 H	 b	 b	 n.a.	 1.994989e-01
8	 2	 373	 flanked	 rf	 3	 0.061700	 2.000000	 flanked_rf_freq_3_amplitude_0.0617_rep_1_b_H_2.0.png	 H	 b	 l	 n.a.	 2.110298e-01
8	 2	 374	 flanked	 rf	 12	 0.010000	 2.000000	 flanked_rf_freq_12_amplitude_0.01_rep_0_t_D_2.0.png	 D	 t	 b	 n.a.	 4.136498e-01
8	 2	 375	 flanked	 rf	 2	 0.268300	 2.000000	 flanked_rf_freq_2_amplitude_0.2683_rep_7_r_N_2.0.png	 N	 r	 t	 n.a.	 3.869371e-01
8	 2	 376	 flanked	 rf	 8	 0.216700	 2.000000	 flanked_rf_freq_8_amplitude_0.2167_rep_0_b_N_2.0.png	 N	 b	 b	 n.a.	 2.272219e-01
8	 2	 377	 flanked	 rf	 12	 0.010000	 2.000000	 flanked_rf_freq_12_amplitude_0.01_rep_4_b_N_2.0.png	 N	 b	 r	 n.a.	 2.163760e-01
8	 2	 378	 flanked	 rf	 3	 0.113300	 2.000000	 flanked_rf_freq_3_amplitude_0.1133_rep_2_l_K_2.0.png	 K	 l	 t	 n.a.	 4.955234e-01
8	 2	 379	 flanked	 rf	 4	 0.010000	 2.000000	 flanked_rf_freq_4_amplitude_0.01_rep_2_b_H_2.0.png	 H	 b	 l	 n.a.	 5.192221e-01
8	 2	 380	 flanked	 rf	 5	 0.216700	 2.000000	 flanked_rf_freq_5_amplitude_0.2167_rep_4_t_K_2.0.png	 K	 t	 t	 n.a.	 6.709686e-01
8	 2	 381	 flanked	 rf	 3	 0.061700	 2.000000	 flanked_rf_freq_3_amplitude_0.0617_rep_7_l_K_2.0.png	 K	 l	 b	 n.a.	 4.665869e-01
8	 2	 382	 flanked	 rf	 8	 0.010000	 2.000000	 flanked_rf_freq_8_amplitude_0.01_rep_8_t_K_2.0.png	 K	 t	 r	 n.a.	 3.862670e-01
8	 2	 383	 flanked	 rf	 3	 0.061700	 2.000000	 flanked_rf_freq_3_amplitude_0.0617_rep_6_r_H_2.0.png	 H	 r	 b	 n.a.	 4.061243e-01
8	 2	 384	 flanked	 rf	 4	 0.320000	 2.000000	 flanked_rf_freq_4_amplitude_0.32_rep_0_b_N_2.0.png	 N	 b	 b	 n.a.	 3.874263e-01
8	 2	 385	 flanked	 rf	 5	 0.113300	 2.000000	 flanked_rf_freq_5_amplitude_0.1133_rep_0_t_K_2.0.png	 K	 t	 b	 n.a.	 3.490827e-01
8	 2	 386	 flanked	 rf	 12	 0.061700	 2.000000	 flanked_rf_freq_12_amplitude_0.0617_rep_7_b_N_2.0.png	 N	 b	 t	 n.a.	 2.691753e-01
8	 2	 387	 flanked	 rf	 12	 0.216700	 2.000000	 flanked_rf_freq_12_amplitude_0.2167_rep_6_t_K_2.0.png	 K	 t	 t	 n.a.	 2.950970e-01
8	 2	 388	 flanked	 rf	 4	 0.113300	 2.000000	 flanked_rf_freq_4_amplitude_0.1133_rep_6_l_D_2.0.png	 D	 l	 t	 n.a.	 6.916505e-01
8	 2	 389	 flanked	 rf	 8	 0.113300	 2.000000	 flanked_rf_freq_8_amplitude_0.1133_rep_4_r_H_2.0.png	 H	 r	 r	 n.a.	 6.182484e-01
8	 2	 390	 flanked	 rf	 3	 0.165000	 2.000000	 flanked_rf_freq_3_amplitude_0.165_rep_9_l_K_2.0.png	 K	 l	 b	 n.a.	 3.647702e-01
8	 2	 391	 flanked	 rf	 2	 0.061700	 2.000000	 flanked_rf_freq_2_amplitude_0.0617_rep_1_r_D_2.0.png	 D	 r	 l	 n.a.	 3.485982e-01
8	 2	 392	 flanked	 rf	 2	 0.268300	 2.000000	 flanked_rf_freq_2_amplitude_0.2683_rep_8_l_H_2.0.png	 H	 l	 t	 n.a.	 1.949497e-01
8	 2	 393	 flanked	 rf	 2	 0.061700	 2.000000	 flanked_rf_freq_2_amplitude_0.0617_rep_4_r_H_2.0.png	 H	 r	 b	 n.a.	 2.996998e-01
8	 2	 394	 flanked	 rf	 4	 0.010000	 2.000000	 flanked_rf_freq_4_amplitude_0.01_rep_1_r_H_2.0.png	 H	 r	 r	 n.a.	 2.761576e-01
8	 2	 395	 flanked	 rf	 8	 0.061700	 2.000000	 flanked_rf_freq_8_amplitude_0.0617_rep_3_b_H_2.0.png	 H	 b	 b	 n.a.	 3.280197e-01
8	 2	 396	 flanked	 rf	 5	 0.113300	 2.000000	 flanked_rf_freq_5_amplitude_0.1133_rep_6_l_D_2.0.png	 D	 l	 t	 n.a.	 2.832410e-01
8	 2	 397	 flanked	 rf	 12	 0.010000	 2.000000	 flanked_rf_freq_12_amplitude_0.01_rep_8_b_K_2.0.png	 K	 b	 t	 n.a.	 5.195767e-01
8	 2	 398	 flanked	 rf	 2	 0.320000	 2.000000	 flanked_rf_freq_2_amplitude_0.32_rep_8_r_H_2.0.png	 H	 r	 r	 n.a.	 5.759859e-01
8	 2	 399	 flanked	 rf	 3	 0.165000	 2.000000	 flanked_rf_freq_3_amplitude_0.165_rep_8_b_H_2.0.png	 H	 b	 t	 n.a.	 4.970700e-01
8	 2	 400	 flanked	 rf	 4	 0.268300	 2.000000	 flanked_rf_freq_4_amplitude_0.2683_rep_3_l_N_2.0.png	 N	 l	 l	 n.a.	 2.511823e-01
8	 2	 401	 flanked	 rf	 3	 0.010000	 2.000000	 flanked_rf_freq_3_amplitude_0.01_rep_0_t_N_2.0.png	 N	 t	 r	 n.a.	 2.679868e-01
8	 2	 402	 flanked	 rf	 4	 0.113300	 2.000000	 flanked_rf_freq_4_amplitude_0.1133_rep_2_t_D_2.0.png	 D	 t	 b	 n.a.	 2.442056e-01
8	 2	 403	 flanked	 rf	 8	 0.113300	 2.000000	 flanked_rf_freq_8_amplitude_0.1133_rep_1_t_N_2.0.png	 N	 t	 t	 n.a.	 1.365024e-01
8	 2	 404	 flanked	 rf	 8	 0.165000	 2.000000	 flanked_rf_freq_8_amplitude_0.165_rep_2_t_N_2.0.png	 N	 t	 t	 n.a.	 2.933476e-01
8	 2	 405	 flanked	 rf	 12	 0.165000	 2.000000	 flanked_rf_freq_12_amplitude_0.165_rep_7_l_H_2.0.png	 H	 l	 l	 n.a.	 2.420523e-01
8	 2	 406	 flanked	 rf	 8	 0.165000	 2.000000	 flanked_rf_freq_8_amplitude_0.165_rep_4_l_H_2.0.png	 H	 l	 t	 n.a.	 2.644292e-01
8	 2	 407	 flanked	 rf	 8	 0.320000	 2.000000	 flanked_rf_freq_8_amplitude_0.32_rep_1_t_N_2.0.png	 N	 t	 t	 n.a.	 2.548873e-01
8	 2	 408	 flanked	 rf	 4	 0.216700	 2.000000	 flanked_rf_freq_4_amplitude_0.2167_rep_7_b_K_2.0.png	 K	 b	 b	 n.a.	 4.114339e-01
8	 2	 409	 flanked	 rf	 4	 0.010000	 2.000000	 flanked_rf_freq_4_amplitude_0.01_rep_7_l_K_2.0.png	 K	 l	 t	 n.a.	 4.374144e-01
8	 2	 410	 flanked	 rf	 5	 0.061700	 2.000000	 flanked_rf_freq_5_amplitude_0.0617_rep_5_b_D_2.0.png	 D	 b	 l	 n.a.	 5.140803e-01
8	 2	 411	 flanked	 rf	 5	 0.268300	 2.000000	 flanked_rf_freq_5_amplitude_0.2683_rep_8_b_H_2.0.png	 H	 b	 b	 n.a.	 3.494833e-01
8	 2	 412	 flanked	 rf	 4	 0.061700	 2.000000	 flanked_rf_freq_4_amplitude_0.0617_rep_9_t_N_2.0.png	 N	 t	 t	 n.a.	 5.511267e-01
8	 2	 413	 flanked	 rf	 12	 0.268300	 2.000000	 flanked_rf_freq_12_amplitude_0.2683_rep_9_t_D_2.0.png	 D	 t	 t	 n.a.	 3.097647e-01
8	 2	 414	 flanked	 rf	 2	 0.010000	 2.000000	 flanked_rf_freq_2_amplitude_0.01_rep_0_t_D_2.0.png	 D	 t	 l	 n.a.	 6.610309e-01
8	 2	 415	 flanked	 rf	 4	 0.320000	 2.000000	 flanked_rf_freq_4_amplitude_0.32_rep_7_r_D_2.0.png	 D	 r	 r	 n.a.	 2.436091e-01
8	 2	 416	 flanked	 rf	 5	 0.320000	 2.000000	 flanked_rf_freq_5_amplitude_0.32_rep_9_r_N_2.0.png	 N	 r	 r	 n.a.	 4.773202e-01
8	 2	 417	 flanked	 rf	 8	 0.061700	 2.000000	 flanked_rf_freq_8_amplitude_0.0617_rep_9_b_K_2.0.png	 K	 b	 t	 n.a.	 4.801629e-01
8	 2	 418	 flanked	 rf	 5	 0.320000	 2.000000	 flanked_rf_freq_5_amplitude_0.32_rep_5_t_N_2.0.png	 N	 t	 t	 n.a.	 3.927079e-01
8	 2	 419	 flanked	 rf	 8	 0.165000	 2.000000	 flanked_rf_freq_8_amplitude_0.165_rep_1_b_K_2.0.png	 K	 b	 b	 n.a.	 3.035031e-01
8	 2	 420	 flanked	 rf	 12	 0.268300	 2.000000	 flanked_rf_freq_12_amplitude_0.2683_rep_8_l_D_2.0.png	 D	 l	 l	 n.a.	 1.976237e-01
