subject	 session	 trial	 flanked	 distortion	 freq	 amplitude	 spacing	 im_name	 targ_letter	 targ_pos	 response	 eyemovement	 RT
2	 4	 1	 unflanked	 bex	 6	 2.500000	 0.000000	 unflanked_bex_freq_6_amplitude_2.5_rep_1_b_H.png	 H	 b	 b	 n.a.	 3.761368e-01
2	 4	 2	 unflanked	 bex	 4	 2.500000	 0.000000	 unflanked_bex_freq_4_amplitude_2.5_rep_0_b_K.png	 K	 b	 b	 n.a.	 2.624898e-01
2	 4	 3	 unflanked	 bex	 2	 2.500000	 0.000000	 unflanked_bex_freq_2_amplitude_2.5_rep_7_t_K.png	 K	 t	 t	 n.a.	 2.866404e-01
2	 4	 4	 unflanked	 bex	 8	 3.000000	 0.000000	 unflanked_bex_freq_8_amplitude_3_rep_6_b_H.png	 H	 b	 b	 n.a.	 2.219258e-01
2	 4	 5	 unflanked	 bex	 8	 1.000000	 0.000000	 unflanked_bex_freq_8_amplitude_1_rep_0_b_N.png	 N	 b	 b	 n.a.	 5.020533e-01
2	 4	 6	 unflanked	 bex	 32	 2.000000	 0.000000	 unflanked_bex_freq_32_amplitude_2_rep_1_r_K.png	 K	 r	 r	 n.a.	 5.865500e-01
2	 4	 7	 unflanked	 bex	 8	 1.500000	 0.000000	 unflanked_bex_freq_8_amplitude_1.5_rep_1_b_K.png	 K	 b	 b	 n.a.	 2.852029e-01
2	 4	 8	 unflanked	 bex	 2	 3.000000	 0.000000	 unflanked_bex_freq_2_amplitude_3_rep_7_r_D.png	 D	 r	 r	 n.a.	 4.088711e-01
2	 4	 9	 unflanked	 bex	 6	 3.000000	 0.000000	 unflanked_bex_freq_6_amplitude_3_rep_3_t_D.png	 D	 t	 t	 n.a.	 3.137789e-01
2	 4	 10	 unflanked	 bex	 4	 1.500000	 0.000000	 unflanked_bex_freq_4_amplitude_1.5_rep_3_b_K.png	 K	 b	 b	 n.a.	 2.295220e-01
2	 4	 11	 unflanked	 bex	 2	 0.500000	 0.000000	 unflanked_bex_freq_2_amplitude_0.5_rep_8_t_D.png	 D	 t	 l	 n.a.	 7.655356e-01
2	 4	 12	 unflanked	 bex	 16	 0.500000	 0.000000	 unflanked_bex_freq_16_amplitude_0.5_rep_8_l_D.png	 D	 l	 t	 n.a.	 3.953151e-01
2	 4	 13	 unflanked	 bex	 2	 0.250000	 0.000000	 unflanked_bex_freq_2_amplitude_0.25_rep_1_l_N.png	 N	 l	 l	 n.a.	 5.099836e-01
2	 4	 14	 unflanked	 bex	 6	 3.000000	 0.000000	 unflanked_bex_freq_6_amplitude_3_rep_7_l_H.png	 H	 l	 l	 n.a.	 3.032838e-01
2	 4	 15	 unflanked	 bex	 6	 0.250000	 0.000000	 unflanked_bex_freq_6_amplitude_0.25_rep_2_r_D.png	 D	 r	 t	 n.a.	 3.772738e-01
2	 4	 16	 unflanked	 bex	 2	 1.000000	 0.000000	 unflanked_bex_freq_2_amplitude_1_rep_0_r_D.png	 D	 r	 t	 n.a.	 4.197448e-01
2	 4	 17	 unflanked	 bex	 4	 2.000000	 0.000000	 unflanked_bex_freq_4_amplitude_2_rep_1_r_D.png	 D	 r	 r	 n.a.	 2.923657e-01
2	 4	 18	 unflanked	 bex	 2	 2.000000	 0.000000	 unflanked_bex_freq_2_amplitude_2_rep_7_b_H.png	 H	 b	 b	 n.a.	 2.773529e-01
2	 4	 19	 unflanked	 bex	 16	 2.000000	 0.000000	 unflanked_bex_freq_16_amplitude_2_rep_4_b_D.png	 D	 b	 l	 n.a.	 4.957635e-01
2	 4	 20	 unflanked	 bex	 8	 2.000000	 0.000000	 unflanked_bex_freq_8_amplitude_2_rep_2_t_N.png	 N	 t	 b	 n.a.	 3.718463e-01
2	 4	 21	 unflanked	 bex	 32	 2.500000	 0.000000	 unflanked_bex_freq_32_amplitude_2.5_rep_0_t_K.png	 K	 t	 t	 n.a.	 3.674311e-01
2	 4	 22	 unflanked	 bex	 8	 0.500000	 0.000000	 unflanked_bex_freq_8_amplitude_0.5_rep_0_b_N.png	 N	 b	 r	 n.a.	 3.497463e-01
2	 4	 23	 unflanked	 bex	 8	 3.000000	 0.000000	 unflanked_bex_freq_8_amplitude_3_rep_2_l_D.png	 D	 l	 l	 n.a.	 2.822499e-01
2	 4	 24	 unflanked	 bex	 6	 3.000000	 0.000000	 unflanked_bex_freq_6_amplitude_3_rep_0_b_K.png	 K	 b	 b	 n.a.	 2.203798e-01
2	 4	 25	 unflanked	 bex	 32	 1.500000	 0.000000	 unflanked_bex_freq_32_amplitude_1.5_rep_0_l_D.png	 D	 l	 t	 n.a.	 6.122205e-01
2	 4	 26	 unflanked	 bex	 2	 2.000000	 0.000000	 unflanked_bex_freq_2_amplitude_2_rep_9_b_N.png	 N	 b	 b	 n.a.	 2.464865e-01
2	 4	 27	 unflanked	 bex	 6	 2.500000	 0.000000	 unflanked_bex_freq_6_amplitude_2.5_rep_9_r_H.png	 H	 r	 r	 n.a.	 2.595976e-01
2	 4	 28	 unflanked	 bex	 8	 0.500000	 0.000000	 unflanked_bex_freq_8_amplitude_0.5_rep_7_l_K.png	 K	 l	 l	 n.a.	 4.056359e-01
2	 4	 29	 unflanked	 bex	 6	 3.000000	 0.000000	 unflanked_bex_freq_6_amplitude_3_rep_1_t_H.png	 H	 t	 t	 n.a.	 2.665894e-01
2	 4	 30	 unflanked	 bex	 6	 1.000000	 0.000000	 unflanked_bex_freq_6_amplitude_1_rep_3_b_K.png	 K	 b	 t	 n.a.	 3.688462e-01
2	 4	 31	 unflanked	 bex	 16	 1.000000	 0.000000	 unflanked_bex_freq_16_amplitude_1_rep_8_t_H.png	 H	 t	 t	 n.a.	 4.722850e-01
2	 4	 32	 unflanked	 bex	 32	 2.500000	 0.000000	 unflanked_bex_freq_32_amplitude_2.5_rep_6_b_H.png	 H	 b	 t	 n.a.	 6.253799e-01
2	 4	 33	 unflanked	 bex	 32	 2.000000	 0.000000	 unflanked_bex_freq_32_amplitude_2_rep_5_b_K.png	 K	 b	 b	 n.a.	 3.220219e-01
2	 4	 34	 unflanked	 bex	 6	 1.500000	 0.000000	 unflanked_bex_freq_6_amplitude_1.5_rep_5_b_N.png	 N	 b	 l	 n.a.	 3.674582e-01
2	 4	 35	 unflanked	 bex	 6	 3.000000	 0.000000	 unflanked_bex_freq_6_amplitude_3_rep_2_l_H.png	 H	 l	 l	 n.a.	 2.644942e-01
2	 4	 36	 unflanked	 bex	 4	 2.500000	 0.000000	 unflanked_bex_freq_4_amplitude_2.5_rep_3_r_H.png	 H	 r	 r	 n.a.	 2.346488e-01
2	 4	 37	 unflanked	 bex	 8	 2.000000	 0.000000	 unflanked_bex_freq_8_amplitude_2_rep_4_b_H.png	 H	 b	 b	 n.a.	 3.696071e-01
2	 4	 38	 unflanked	 bex	 2	 1.000000	 0.000000	 unflanked_bex_freq_2_amplitude_1_rep_8_l_D.png	 D	 l	 t	 n.a.	 6.095054e-01
2	 4	 39	 unflanked	 bex	 2	 1.500000	 0.000000	 unflanked_bex_freq_2_amplitude_1.5_rep_4_r_H.png	 H	 r	 t	 n.a.	 7.380606e-01
2	 4	 40	 unflanked	 bex	 6	 2.000000	 0.000000	 unflanked_bex_freq_6_amplitude_2_rep_4_b_K.png	 K	 b	 b	 n.a.	 2.752040e-01
2	 4	 41	 unflanked	 bex	 8	 2.500000	 0.000000	 unflanked_bex_freq_8_amplitude_2.5_rep_2_b_D.png	 D	 b	 b	 n.a.	 2.288170e-01
2	 4	 42	 unflanked	 bex	 32	 0.250000	 0.000000	 unflanked_bex_freq_32_amplitude_0.25_rep_4_r_N.png	 N	 r	 t	 n.a.	 4.459507e-01
2	 4	 43	 unflanked	 bex	 16	 2.000000	 0.000000	 unflanked_bex_freq_16_amplitude_2_rep_1_b_K.png	 K	 b	 b	 n.a.	 2.255970e-01
2	 4	 44	 unflanked	 bex	 32	 3.000000	 0.000000	 unflanked_bex_freq_32_amplitude_3_rep_6_l_N.png	 N	 l	 l	 n.a.	 3.357187e-01
2	 4	 45	 unflanked	 bex	 32	 0.250000	 0.000000	 unflanked_bex_freq_32_amplitude_0.25_rep_9_t_K.png	 K	 t	 t	 n.a.	 3.554984e-01
2	 4	 46	 unflanked	 bex	 2	 1.500000	 0.000000	 unflanked_bex_freq_2_amplitude_1.5_rep_1_t_N.png	 N	 t	 t	 n.a.	 5.056244e-01
2	 4	 47	 unflanked	 bex	 32	 0.250000	 0.000000	 unflanked_bex_freq_32_amplitude_0.25_rep_6_t_D.png	 D	 t	 b	 n.a.	 2.853952e-01
2	 4	 48	 unflanked	 bex	 16	 3.000000	 0.000000	 unflanked_bex_freq_16_amplitude_3_rep_4_l_N.png	 N	 l	 l	 n.a.	 2.797663e-01
2	 4	 49	 unflanked	 bex	 4	 1.000000	 0.000000	 unflanked_bex_freq_4_amplitude_1_rep_7_l_K.png	 K	 l	 l	 n.a.	 3.955269e-01
2	 4	 50	 unflanked	 bex	 6	 1.000000	 0.000000	 unflanked_bex_freq_6_amplitude_1_rep_1_l_N.png	 N	 l	 t	 n.a.	 3.310073e-01
2	 4	 51	 unflanked	 bex	 2	 0.500000	 0.000000	 unflanked_bex_freq_2_amplitude_0.5_rep_2_t_D.png	 D	 t	 l	 n.a.	 3.656312e-01
2	 4	 52	 unflanked	 bex	 8	 0.500000	 0.000000	 unflanked_bex_freq_8_amplitude_0.5_rep_9_t_N.png	 N	 t	 t	 n.a.	 3.867891e-01
2	 4	 53	 unflanked	 bex	 16	 3.000000	 0.000000	 unflanked_bex_freq_16_amplitude_3_rep_5_r_H.png	 H	 r	 r	 n.a.	 3.339729e-01
2	 4	 54	 unflanked	 bex	 4	 1.500000	 0.000000	 unflanked_bex_freq_4_amplitude_1.5_rep_9_r_K.png	 K	 r	 r	 n.a.	 3.740313e-01
2	 4	 55	 unflanked	 bex	 6	 3.000000	 0.000000	 unflanked_bex_freq_6_amplitude_3_rep_8_l_N.png	 N	 l	 l	 n.a.	 2.447491e-01
2	 4	 56	 unflanked	 bex	 32	 2.000000	 0.000000	 unflanked_bex_freq_32_amplitude_2_rep_9_r_K.png	 K	 r	 r	 n.a.	 4.437494e-01
2	 4	 57	 unflanked	 bex	 4	 0.250000	 0.000000	 unflanked_bex_freq_4_amplitude_0.25_rep_6_t_N.png	 N	 t	 b	 n.a.	 3.539832e-01
2	 4	 58	 unflanked	 bex	 32	 1.000000	 0.000000	 unflanked_bex_freq_32_amplitude_1_rep_4_r_D.png	 D	 r	 t	 n.a.	 2.458038e-01
2	 4	 59	 unflanked	 bex	 6	 1.000000	 0.000000	 unflanked_bex_freq_6_amplitude_1_rep_4_l_K.png	 K	 l	 l	 n.a.	 2.558738e-01
2	 4	 60	 unflanked	 bex	 6	 0.500000	 0.000000	 unflanked_bex_freq_6_amplitude_0.5_rep_1_r_K.png	 K	 r	 r	 n.a.	 3.450137e-01
2	 4	 61	 unflanked	 bex	 2	 3.000000	 0.000000	 unflanked_bex_freq_2_amplitude_3_rep_8_t_K.png	 K	 t	 t	 n.a.	 3.271275e-01
2	 4	 62	 unflanked	 bex	 32	 2.500000	 0.000000	 unflanked_bex_freq_32_amplitude_2.5_rep_5_r_H.png	 H	 r	 l	 n.a.	 3.715729e-01
2	 4	 63	 unflanked	 bex	 8	 1.500000	 0.000000	 unflanked_bex_freq_8_amplitude_1.5_rep_8_l_D.png	 D	 l	 l	 n.a.	 2.753033e-01
2	 4	 64	 unflanked	 bex	 32	 1.500000	 0.000000	 unflanked_bex_freq_32_amplitude_1.5_rep_3_l_N.png	 N	 l	 r	 n.a.	 3.950873e-01
2	 4	 65	 unflanked	 bex	 8	 1.500000	 0.000000	 unflanked_bex_freq_8_amplitude_1.5_rep_2_l_H.png	 H	 l	 l	 n.a.	 3.078849e-01
2	 4	 66	 unflanked	 bex	 32	 2.000000	 0.000000	 unflanked_bex_freq_32_amplitude_2_rep_6_r_K.png	 K	 r	 b	 n.a.	 3.575183e-01
2	 4	 67	 unflanked	 bex	 4	 0.500000	 0.000000	 unflanked_bex_freq_4_amplitude_0.5_rep_2_r_D.png	 D	 r	 t	 n.a.	 2.867739e-01
2	 4	 68	 unflanked	 bex	 6	 2.500000	 0.000000	 unflanked_bex_freq_6_amplitude_2.5_rep_3_b_K.png	 K	 b	 b	 n.a.	 2.233388e-01
2	 4	 69	 unflanked	 bex	 16	 0.250000	 0.000000	 unflanked_bex_freq_16_amplitude_0.25_rep_6_l_N.png	 N	 l	 l	 n.a.	 4.004683e-01
2	 4	 70	 unflanked	 bex	 4	 3.000000	 0.000000	 unflanked_bex_freq_4_amplitude_3_rep_3_b_D.png	 D	 b	 b	 n.a.	 2.138368e-01
2	 4	 71	 unflanked	 bex	 32	 0.500000	 0.000000	 unflanked_bex_freq_32_amplitude_0.5_rep_9_t_N.png	 N	 t	 b	 n.a.	 3.512691e-01
2	 4	 72	 unflanked	 bex	 2	 2.500000	 0.000000	 unflanked_bex_freq_2_amplitude_2.5_rep_6_l_H.png	 H	 l	 l	 n.a.	 3.026205e-01
2	 4	 73	 unflanked	 bex	 16	 2.500000	 0.000000	 unflanked_bex_freq_16_amplitude_2.5_rep_4_r_H.png	 H	 r	 r	 n.a.	 2.665308e-01
2	 4	 74	 unflanked	 bex	 16	 2.500000	 0.000000	 unflanked_bex_freq_16_amplitude_2.5_rep_3_l_N.png	 N	 l	 l	 n.a.	 3.251867e-01
2	 4	 75	 unflanked	 bex	 32	 2.500000	 0.000000	 unflanked_bex_freq_32_amplitude_2.5_rep_1_l_H.png	 H	 l	 t	 n.a.	 4.027898e-01
2	 4	 76	 unflanked	 bex	 6	 1.500000	 0.000000	 unflanked_bex_freq_6_amplitude_1.5_rep_7_b_K.png	 K	 b	 b	 n.a.	 2.487797e-01
2	 4	 77	 unflanked	 bex	 6	 2.500000	 0.000000	 unflanked_bex_freq_6_amplitude_2.5_rep_5_t_K.png	 K	 t	 t	 n.a.	 3.200812e-01
2	 4	 78	 unflanked	 bex	 16	 0.500000	 0.000000	 unflanked_bex_freq_16_amplitude_0.5_rep_5_l_K.png	 K	 l	 l	 n.a.	 4.932266e-01
2	 4	 79	 unflanked	 bex	 2	 1.000000	 0.000000	 unflanked_bex_freq_2_amplitude_1_rep_9_t_N.png	 N	 t	 t	 n.a.	 4.224339e-01
2	 4	 80	 unflanked	 bex	 8	 2.000000	 0.000000	 unflanked_bex_freq_8_amplitude_2_rep_8_t_K.png	 K	 t	 b	 n.a.	 3.739558e-01
2	 4	 81	 unflanked	 bex	 8	 2.500000	 0.000000	 unflanked_bex_freq_8_amplitude_2.5_rep_4_l_K.png	 K	 l	 l	 n.a.	 3.300361e-01
2	 4	 82	 unflanked	 bex	 4	 3.000000	 0.000000	 unflanked_bex_freq_4_amplitude_3_rep_1_r_K.png	 K	 r	 r	 n.a.	 2.596278e-01
2	 4	 83	 unflanked	 bex	 4	 2.000000	 0.000000	 unflanked_bex_freq_4_amplitude_2_rep_6_l_D.png	 D	 l	 l	 n.a.	 3.006514e-01
2	 4	 84	 unflanked	 bex	 32	 3.000000	 0.000000	 unflanked_bex_freq_32_amplitude_3_rep_5_r_N.png	 N	 r	 l	 n.a.	 6.163897e-01
2	 4	 85	 unflanked	 bex	 16	 0.250000	 0.000000	 unflanked_bex_freq_16_amplitude_0.25_rep_5_b_D.png	 D	 b	 t	 n.a.	 3.251196e-01
2	 4	 86	 unflanked	 bex	 8	 0.250000	 0.000000	 unflanked_bex_freq_8_amplitude_0.25_rep_5_l_D.png	 D	 l	 t	 n.a.	 4.453130e-01
2	 4	 87	 unflanked	 bex	 6	 0.250000	 0.000000	 unflanked_bex_freq_6_amplitude_0.25_rep_3_t_D.png	 D	 t	 l	 n.a.	 3.738748e-01
2	 4	 88	 unflanked	 bex	 8	 0.250000	 0.000000	 unflanked_bex_freq_8_amplitude_0.25_rep_8_l_H.png	 H	 l	 b	 n.a.	 4.176693e-01
2	 4	 89	 unflanked	 bex	 2	 1.000000	 0.000000	 unflanked_bex_freq_2_amplitude_1_rep_2_r_K.png	 K	 r	 r	 n.a.	 2.929243e-01
2	 4	 90	 unflanked	 bex	 32	 0.500000	 0.000000	 unflanked_bex_freq_32_amplitude_0.5_rep_5_l_D.png	 D	 l	 b	 n.a.	 3.167601e-01
2	 4	 91	 unflanked	 bex	 6	 0.250000	 0.000000	 unflanked_bex_freq_6_amplitude_0.25_rep_1_t_N.png	 N	 t	 t	 n.a.	 4.322431e-01
2	 4	 92	 unflanked	 bex	 16	 1.500000	 0.000000	 unflanked_bex_freq_16_amplitude_1.5_rep_9_t_H.png	 H	 t	 r	 n.a.	 3.774602e-01
2	 4	 93	 unflanked	 bex	 6	 1.500000	 0.000000	 unflanked_bex_freq_6_amplitude_1.5_rep_9_r_K.png	 K	 r	 r	 n.a.	 3.873970e-01
2	 4	 94	 unflanked	 bex	 16	 1.000000	 0.000000	 unflanked_bex_freq_16_amplitude_1_rep_7_l_H.png	 H	 l	 r	 n.a.	 4.771933e-01
2	 4	 95	 unflanked	 bex	 32	 3.000000	 0.000000	 unflanked_bex_freq_32_amplitude_3_rep_7_b_N.png	 N	 b	 b	 n.a.	 3.310703e-01
2	 4	 96	 unflanked	 bex	 8	 2.500000	 0.000000	 unflanked_bex_freq_8_amplitude_2.5_rep_7_t_K.png	 K	 t	 t	 n.a.	 5.983085e-01
2	 4	 97	 unflanked	 bex	 4	 0.250000	 0.000000	 unflanked_bex_freq_4_amplitude_0.25_rep_1_b_K.png	 K	 b	 b	 n.a.	 3.696704e-01
2	 4	 98	 unflanked	 bex	 4	 2.000000	 0.000000	 unflanked_bex_freq_4_amplitude_2_rep_0_r_K.png	 K	 r	 r	 n.a.	 3.083070e-01
2	 4	 99	 unflanked	 bex	 8	 2.500000	 0.000000	 unflanked_bex_freq_8_amplitude_2.5_rep_8_r_K.png	 K	 r	 r	 n.a.	 2.659070e-01
2	 4	 100	 unflanked	 bex	 32	 2.000000	 0.000000	 unflanked_bex_freq_32_amplitude_2_rep_8_b_H.png	 H	 b	 r	 n.a.	 3.163974e-01
2	 4	 101	 unflanked	 bex	 2	 2.000000	 0.000000	 unflanked_bex_freq_2_amplitude_2_rep_5_r_K.png	 K	 r	 r	 n.a.	 2.954300e-01
2	 4	 102	 unflanked	 bex	 4	 0.500000	 0.000000	 unflanked_bex_freq_4_amplitude_0.5_rep_1_t_N.png	 N	 t	 r	 n.a.	 2.462870e-01
2	 4	 103	 unflanked	 bex	 2	 3.000000	 0.000000	 unflanked_bex_freq_2_amplitude_3_rep_2_r_K.png	 K	 r	 r	 n.a.	 2.705337e-01
2	 4	 104	 unflanked	 bex	 4	 0.500000	 0.000000	 unflanked_bex_freq_4_amplitude_0.5_rep_9_r_K.png	 K	 r	 r	 n.a.	 2.915729e-01
2	 4	 105	 unflanked	 bex	 8	 2.500000	 0.000000	 unflanked_bex_freq_8_amplitude_2.5_rep_6_l_K.png	 K	 l	 l	 n.a.	 3.577238e-01
2	 4	 106	 unflanked	 bex	 8	 3.000000	 0.000000	 unflanked_bex_freq_8_amplitude_3_rep_3_l_H.png	 H	 l	 l	 n.a.	 3.143955e-01
2	 4	 107	 unflanked	 bex	 2	 3.000000	 0.000000	 unflanked_bex_freq_2_amplitude_3_rep_0_t_H.png	 H	 t	 t	 n.a.	 3.333502e-01
2	 4	 108	 unflanked	 bex	 16	 0.250000	 0.000000	 unflanked_bex_freq_16_amplitude_0.25_rep_1_l_K.png	 K	 l	 r	 n.a.	 6.008658e-01
2	 4	 109	 unflanked	 bex	 2	 0.500000	 0.000000	 unflanked_bex_freq_2_amplitude_0.5_rep_3_r_H.png	 H	 r	 b	 n.a.	 3.451018e-01
2	 4	 110	 unflanked	 bex	 16	 0.500000	 0.000000	 unflanked_bex_freq_16_amplitude_0.5_rep_6_r_H.png	 H	 r	 b	 n.a.	 5.471729e-01
2	 4	 111	 unflanked	 bex	 4	 1.000000	 0.000000	 unflanked_bex_freq_4_amplitude_1_rep_8_t_H.png	 H	 t	 l	 n.a.	 5.944829e-01
2	 4	 112	 unflanked	 bex	 32	 1.500000	 0.000000	 unflanked_bex_freq_32_amplitude_1.5_rep_5_t_H.png	 H	 t	 b	 n.a.	 2.954068e-01
2	 4	 113	 unflanked	 bex	 2	 2.500000	 0.000000	 unflanked_bex_freq_2_amplitude_2.5_rep_8_b_N.png	 N	 b	 b	 n.a.	 3.000838e-01
2	 4	 114	 unflanked	 bex	 32	 1.000000	 0.000000	 unflanked_bex_freq_32_amplitude_1_rep_5_l_D.png	 D	 l	 t	 n.a.	 3.584130e-01
2	 4	 115	 unflanked	 bex	 6	 0.250000	 0.000000	 unflanked_bex_freq_6_amplitude_0.25_rep_9_t_H.png	 H	 t	 l	 n.a.	 5.413142e-01
2	 4	 116	 unflanked	 bex	 2	 3.000000	 0.000000	 unflanked_bex_freq_2_amplitude_3_rep_4_r_H.png	 H	 r	 r	 n.a.	 2.937282e-01
2	 4	 117	 unflanked	 bex	 6	 3.000000	 0.000000	 unflanked_bex_freq_6_amplitude_3_rep_9_l_K.png	 K	 l	 l	 n.a.	 2.808291e-01
2	 4	 118	 unflanked	 bex	 2	 1.000000	 0.000000	 unflanked_bex_freq_2_amplitude_1_rep_1_l_D.png	 D	 l	 b	 n.a.	 3.439488e-01
2	 4	 119	 unflanked	 bex	 6	 1.500000	 0.000000	 unflanked_bex_freq_6_amplitude_1.5_rep_6_t_K.png	 K	 t	 t	 n.a.	 4.277929e-01
2	 4	 120	 unflanked	 bex	 16	 2.500000	 0.000000	 unflanked_bex_freq_16_amplitude_2.5_rep_1_t_N.png	 N	 t	 l	 n.a.	 6.423513e-01
2	 4	 121	 unflanked	 bex	 16	 2.500000	 0.000000	 unflanked_bex_freq_16_amplitude_2.5_rep_5_l_N.png	 N	 l	 l	 n.a.	 3.448226e-01
2	 4	 122	 unflanked	 bex	 16	 0.500000	 0.000000	 unflanked_bex_freq_16_amplitude_0.5_rep_9_b_K.png	 K	 b	 r	 n.a.	 2.841233e-01
2	 4	 123	 unflanked	 bex	 4	 1.000000	 0.000000	 unflanked_bex_freq_4_amplitude_1_rep_4_b_N.png	 N	 b	 r	 n.a.	 6.347849e-01
2	 4	 124	 unflanked	 bex	 8	 1.000000	 0.000000	 unflanked_bex_freq_8_amplitude_1_rep_1_l_H.png	 H	 l	 r	 n.a.	 4.808628e-01
2	 4	 125	 unflanked	 bex	 6	 0.500000	 0.000000	 unflanked_bex_freq_6_amplitude_0.5_rep_0_t_N.png	 N	 t	 l	 n.a.	 4.630316e-01
2	 4	 126	 unflanked	 bex	 16	 3.000000	 0.000000	 unflanked_bex_freq_16_amplitude_3_rep_2_t_D.png	 D	 t	 b	 n.a.	 3.256838e-01
2	 4	 127	 unflanked	 bex	 4	 2.000000	 0.000000	 unflanked_bex_freq_4_amplitude_2_rep_4_l_K.png	 K	 l	 l	 n.a.	 3.220982e-01
2	 4	 128	 unflanked	 bex	 2	 1.000000	 0.000000	 unflanked_bex_freq_2_amplitude_1_rep_7_t_K.png	 K	 t	 t	 n.a.	 3.576882e-01
2	 4	 129	 unflanked	 bex	 8	 0.250000	 0.000000	 unflanked_bex_freq_8_amplitude_0.25_rep_4_b_H.png	 H	 b	 b	 n.a.	 4.421503e-01
2	 4	 130	 unflanked	 bex	 6	 1.500000	 0.000000	 unflanked_bex_freq_6_amplitude_1.5_rep_2_b_D.png	 D	 b	 b	 n.a.	 3.680075e-01
2	 4	 131	 unflanked	 bex	 8	 1.500000	 0.000000	 unflanked_bex_freq_8_amplitude_1.5_rep_5_t_K.png	 K	 t	 t	 n.a.	 4.284327e-01
2	 4	 132	 unflanked	 bex	 8	 2.500000	 0.000000	 unflanked_bex_freq_8_amplitude_2.5_rep_0_t_N.png	 N	 t	 t	 n.a.	 2.880816e-01
2	 4	 133	 unflanked	 bex	 16	 1.500000	 0.000000	 unflanked_bex_freq_16_amplitude_1.5_rep_1_b_H.png	 H	 b	 b	 n.a.	 3.612613e-01
2	 4	 134	 unflanked	 bex	 16	 3.000000	 0.000000	 unflanked_bex_freq_16_amplitude_3_rep_9_r_K.png	 K	 r	 r	 n.a.	 2.607577e-01
2	 4	 135	 unflanked	 bex	 32	 0.500000	 0.000000	 unflanked_bex_freq_32_amplitude_0.5_rep_3_t_N.png	 N	 t	 b	 n.a.	 3.497382e-01
2	 4	 136	 unflanked	 bex	 6	 0.500000	 0.000000	 unflanked_bex_freq_6_amplitude_0.5_rep_4_t_K.png	 K	 t	 r	 n.a.	 4.090560e-01
2	 4	 137	 unflanked	 bex	 16	 0.250000	 0.000000	 unflanked_bex_freq_16_amplitude_0.25_rep_0_l_H.png	 H	 l	 b	 n.a.	 6.783956e-01
2	 4	 138	 unflanked	 bex	 6	 1.000000	 0.000000	 unflanked_bex_freq_6_amplitude_1_rep_9_r_N.png	 N	 r	 r	 n.a.	 4.308330e-01
2	 4	 139	 unflanked	 bex	 2	 0.250000	 0.000000	 unflanked_bex_freq_2_amplitude_0.25_rep_9_t_D.png	 D	 t	 r	 n.a.	 3.898397e-01
2	 4	 140	 unflanked	 bex	 16	 1.000000	 0.000000	 unflanked_bex_freq_16_amplitude_1_rep_1_l_K.png	 K	 l	 t	 n.a.	 4.627926e-01
2	 4	 141	 unflanked	 bex	 32	 3.000000	 0.000000	 unflanked_bex_freq_32_amplitude_3_rep_0_t_N.png	 N	 t	 b	 n.a.	 6.396928e-01
2	 4	 142	 unflanked	 bex	 8	 2.000000	 0.000000	 unflanked_bex_freq_8_amplitude_2_rep_5_b_N.png	 N	 b	 b	 n.a.	 3.450711e-01
2	 4	 143	 unflanked	 bex	 4	 2.500000	 0.000000	 unflanked_bex_freq_4_amplitude_2.5_rep_5_b_N.png	 N	 b	 b	 n.a.	 2.385339e-01
2	 4	 144	 unflanked	 bex	 2	 1.000000	 0.000000	 unflanked_bex_freq_2_amplitude_1_rep_6_t_N.png	 N	 t	 b	 n.a.	 4.964429e-01
2	 4	 145	 unflanked	 bex	 6	 2.500000	 0.000000	 unflanked_bex_freq_6_amplitude_2.5_rep_4_t_K.png	 K	 t	 t	 n.a.	 3.014917e-01
2	 4	 146	 unflanked	 bex	 16	 1.500000	 0.000000	 unflanked_bex_freq_16_amplitude_1.5_rep_3_t_D.png	 D	 t	 l	 n.a.	 4.248938e-01
2	 4	 147	 unflanked	 bex	 6	 1.000000	 0.000000	 unflanked_bex_freq_6_amplitude_1_rep_7_t_H.png	 H	 t	 b	 n.a.	 5.817520e-01
2	 4	 148	 unflanked	 bex	 4	 1.000000	 0.000000	 unflanked_bex_freq_4_amplitude_1_rep_1_r_H.png	 H	 r	 r	 n.a.	 4.571343e-01
2	 4	 149	 unflanked	 bex	 32	 1.000000	 0.000000	 unflanked_bex_freq_32_amplitude_1_rep_2_t_N.png	 N	 t	 b	 n.a.	 8.248189e-01
2	 4	 150	 unflanked	 bex	 32	 3.000000	 0.000000	 unflanked_bex_freq_32_amplitude_3_rep_1_l_K.png	 K	 l	 l	 n.a.	 3.502043e-01
2	 4	 151	 unflanked	 bex	 2	 0.500000	 0.000000	 unflanked_bex_freq_2_amplitude_0.5_rep_7_r_K.png	 K	 r	 b	 n.a.	 4.412761e-01
2	 4	 152	 unflanked	 bex	 4	 2.000000	 0.000000	 unflanked_bex_freq_4_amplitude_2_rep_3_r_H.png	 H	 r	 r	 n.a.	 2.882242e-01
2	 4	 153	 unflanked	 bex	 2	 0.250000	 0.000000	 unflanked_bex_freq_2_amplitude_0.25_rep_8_l_N.png	 N	 l	 t	 n.a.	 3.789662e-01
2	 4	 154	 unflanked	 bex	 16	 2.000000	 0.000000	 unflanked_bex_freq_16_amplitude_2_rep_5_l_D.png	 D	 l	 l	 n.a.	 3.066159e-01
2	 4	 155	 unflanked	 bex	 6	 2.000000	 0.000000	 unflanked_bex_freq_6_amplitude_2_rep_9_l_K.png	 K	 l	 l	 n.a.	 3.469608e-01
2	 4	 156	 unflanked	 bex	 2	 0.250000	 0.000000	 unflanked_bex_freq_2_amplitude_0.25_rep_6_l_H.png	 H	 l	 r	 n.a.	 4.005569e-01
2	 4	 157	 unflanked	 bex	 2	 2.500000	 0.000000	 unflanked_bex_freq_2_amplitude_2.5_rep_2_b_D.png	 D	 b	 b	 n.a.	 2.850895e-01
2	 4	 158	 unflanked	 bex	 2	 3.000000	 0.000000	 unflanked_bex_freq_2_amplitude_3_rep_5_r_K.png	 K	 r	 r	 n.a.	 3.284221e-01
2	 4	 159	 unflanked	 bex	 2	 2.500000	 0.000000	 unflanked_bex_freq_2_amplitude_2.5_rep_9_r_N.png	 N	 r	 r	 n.a.	 3.209607e-01
2	 4	 160	 unflanked	 bex	 8	 0.250000	 0.000000	 unflanked_bex_freq_8_amplitude_0.25_rep_3_l_H.png	 H	 l	 t	 n.a.	 6.727129e-01
2	 4	 161	 unflanked	 bex	 2	 1.500000	 0.000000	 unflanked_bex_freq_2_amplitude_1.5_rep_7_b_N.png	 N	 b	 b	 n.a.	 3.387822e-01
2	 4	 162	 unflanked	 bex	 8	 0.500000	 0.000000	 unflanked_bex_freq_8_amplitude_0.5_rep_6_l_D.png	 D	 l	 b	 n.a.	 4.297689e-01
2	 4	 163	 unflanked	 bex	 6	 2.500000	 0.000000	 unflanked_bex_freq_6_amplitude_2.5_rep_8_r_N.png	 N	 r	 r	 n.a.	 2.960781e-01
2	 4	 164	 unflanked	 bex	 16	 3.000000	 0.000000	 unflanked_bex_freq_16_amplitude_3_rep_7_l_H.png	 H	 l	 l	 n.a.	 4.207422e-01
2	 4	 165	 unflanked	 bex	 8	 2.000000	 0.000000	 unflanked_bex_freq_8_amplitude_2_rep_0_r_N.png	 N	 r	 r	 n.a.	 2.539390e-01
2	 4	 166	 unflanked	 bex	 32	 0.250000	 0.000000	 unflanked_bex_freq_32_amplitude_0.25_rep_1_r_K.png	 K	 r	 l	 n.a.	 4.522358e-01
2	 4	 167	 unflanked	 bex	 6	 0.250000	 0.000000	 unflanked_bex_freq_6_amplitude_0.25_rep_6_r_K.png	 K	 r	 r	 n.a.	 5.191332e-01
2	 4	 168	 unflanked	 bex	 16	 1.500000	 0.000000	 unflanked_bex_freq_16_amplitude_1.5_rep_5_t_H.png	 H	 t	 l	 n.a.	 4.871711e-01
2	 4	 169	 unflanked	 bex	 6	 1.000000	 0.000000	 unflanked_bex_freq_6_amplitude_1_rep_6_r_N.png	 N	 r	 r	 n.a.	 5.874099e-01
2	 4	 170	 unflanked	 bex	 4	 0.250000	 0.000000	 unflanked_bex_freq_4_amplitude_0.25_rep_4_l_N.png	 N	 l	 b	 n.a.	 4.870764e-01
2	 4	 171	 unflanked	 bex	 2	 2.000000	 0.000000	 unflanked_bex_freq_2_amplitude_2_rep_1_t_N.png	 N	 t	 t	 n.a.	 4.171580e-01
2	 4	 172	 unflanked	 bex	 8	 3.000000	 0.000000	 unflanked_bex_freq_8_amplitude_3_rep_0_b_D.png	 D	 b	 b	 n.a.	 2.371072e-01
2	 4	 173	 unflanked	 bex	 8	 1.000000	 0.000000	 unflanked_bex_freq_8_amplitude_1_rep_4_b_H.png	 H	 b	 b	 n.a.	 3.817614e-01
2	 4	 174	 unflanked	 bex	 2	 3.000000	 0.000000	 unflanked_bex_freq_2_amplitude_3_rep_9_l_H.png	 H	 l	 l	 n.a.	 6.291047e-01
2	 4	 175	 unflanked	 bex	 16	 0.250000	 0.000000	 unflanked_bex_freq_16_amplitude_0.25_rep_9_t_H.png	 H	 t	 b	 n.a.	 4.934580e-01
2	 4	 176	 unflanked	 bex	 2	 2.000000	 0.000000	 unflanked_bex_freq_2_amplitude_2_rep_2_r_D.png	 D	 r	 r	 n.a.	 4.208328e-01
2	 4	 177	 unflanked	 bex	 32	 1.500000	 0.000000	 unflanked_bex_freq_32_amplitude_1.5_rep_9_b_H.png	 H	 b	 b	 n.a.	 5.287539e-01
2	 4	 178	 unflanked	 bex	 16	 1.000000	 0.000000	 unflanked_bex_freq_16_amplitude_1_rep_5_r_D.png	 D	 r	 b	 n.a.	 2.614592e-01
2	 4	 179	 unflanked	 bex	 8	 1.500000	 0.000000	 unflanked_bex_freq_8_amplitude_1.5_rep_7_r_K.png	 K	 r	 r	 n.a.	 5.124121e-01
2	 4	 180	 unflanked	 bex	 32	 2.000000	 0.000000	 unflanked_bex_freq_32_amplitude_2_rep_2_t_H.png	 H	 t	 l	 n.a.	 4.747559e-01
2	 4	 181	 unflanked	 bex	 32	 1.500000	 0.000000	 unflanked_bex_freq_32_amplitude_1.5_rep_1_l_K.png	 K	 l	 l	 n.a.	 5.095755e-01
2	 4	 182	 unflanked	 bex	 32	 1.000000	 0.000000	 unflanked_bex_freq_32_amplitude_1_rep_0_t_D.png	 D	 t	 r	 n.a.	 4.090738e-01
2	 4	 183	 unflanked	 bex	 2	 2.000000	 0.000000	 unflanked_bex_freq_2_amplitude_2_rep_4_l_N.png	 N	 l	 t	 n.a.	 5.061297e-01
2	 4	 184	 unflanked	 bex	 8	 2.000000	 0.000000	 unflanked_bex_freq_8_amplitude_2_rep_3_t_H.png	 H	 t	 t	 n.a.	 5.523799e-01
2	 4	 185	 unflanked	 bex	 2	 2.000000	 0.000000	 unflanked_bex_freq_2_amplitude_2_rep_3_l_D.png	 D	 l	 l	 n.a.	 4.944149e-01
2	 4	 186	 unflanked	 bex	 16	 2.500000	 0.000000	 unflanked_bex_freq_16_amplitude_2.5_rep_0_t_H.png	 H	 t	 b	 n.a.	 4.248280e-01
2	 4	 187	 unflanked	 bex	 2	 1.500000	 0.000000	 unflanked_bex_freq_2_amplitude_1.5_rep_3_b_H.png	 H	 b	 t	 n.a.	 9.881839e-01
2	 4	 188	 unflanked	 bex	 8	 0.500000	 0.000000	 unflanked_bex_freq_8_amplitude_0.5_rep_5_b_N.png	 N	 b	 t	 n.a.	 5.648746e-01
2	 4	 189	 unflanked	 bex	 2	 0.500000	 0.000000	 unflanked_bex_freq_2_amplitude_0.5_rep_1_r_H.png	 H	 r	 b	 n.a.	 3.036546e-01
2	 4	 190	 unflanked	 bex	 8	 0.250000	 0.000000	 unflanked_bex_freq_8_amplitude_0.25_rep_9_t_D.png	 D	 t	 l	 n.a.	 3.321658e-01
2	 4	 191	 unflanked	 bex	 16	 0.500000	 0.000000	 unflanked_bex_freq_16_amplitude_0.5_rep_7_t_D.png	 D	 t	 r	 n.a.	 3.871950e-01
2	 4	 192	 unflanked	 bex	 6	 0.500000	 0.000000	 unflanked_bex_freq_6_amplitude_0.5_rep_6_t_N.png	 N	 t	 l	 n.a.	 5.829515e-01
2	 4	 193	 unflanked	 bex	 16	 0.250000	 0.000000	 unflanked_bex_freq_16_amplitude_0.25_rep_3_r_N.png	 N	 r	 b	 n.a.	 3.821125e-01
2	 4	 194	 unflanked	 bex	 8	 1.500000	 0.000000	 unflanked_bex_freq_8_amplitude_1.5_rep_6_r_D.png	 D	 r	 r	 n.a.	 2.884458e-01
2	 4	 195	 unflanked	 bex	 8	 1.000000	 0.000000	 unflanked_bex_freq_8_amplitude_1_rep_8_b_D.png	 D	 b	 b	 n.a.	 4.237204e-01
2	 4	 196	 unflanked	 bex	 4	 2.000000	 0.000000	 unflanked_bex_freq_4_amplitude_2_rep_2_b_N.png	 N	 b	 b	 n.a.	 3.329662e-01
2	 4	 197	 unflanked	 bex	 4	 3.000000	 0.000000	 unflanked_bex_freq_4_amplitude_3_rep_4_b_H.png	 H	 b	 b	 n.a.	 2.957746e-01
2	 4	 198	 unflanked	 bex	 2	 3.000000	 0.000000	 unflanked_bex_freq_2_amplitude_3_rep_3_r_N.png	 N	 r	 r	 n.a.	 2.912750e-01
2	 4	 199	 unflanked	 bex	 2	 1.000000	 0.000000	 unflanked_bex_freq_2_amplitude_1_rep_3_l_K.png	 K	 l	 l	 n.a.	 4.150010e-01
2	 4	 200	 unflanked	 bex	 16	 3.000000	 0.000000	 unflanked_bex_freq_16_amplitude_3_rep_1_r_K.png	 K	 r	 r	 n.a.	 3.028082e-01
2	 4	 201	 unflanked	 bex	 32	 3.000000	 0.000000	 unflanked_bex_freq_32_amplitude_3_rep_3_r_H.png	 H	 r	 r	 n.a.	 5.126512e-01
2	 4	 202	 unflanked	 bex	 32	 1.500000	 0.000000	 unflanked_bex_freq_32_amplitude_1.5_rep_8_l_H.png	 H	 l	 l	 n.a.	 3.866178e-01
2	 4	 203	 unflanked	 bex	 32	 0.500000	 0.000000	 unflanked_bex_freq_32_amplitude_0.5_rep_8_l_D.png	 D	 l	 b	 n.a.	 2.934352e-01
2	 4	 204	 unflanked	 bex	 8	 3.000000	 0.000000	 unflanked_bex_freq_8_amplitude_3_rep_5_b_N.png	 N	 b	 b	 n.a.	 1.887225e-01
2	 4	 205	 unflanked	 bex	 4	 2.500000	 0.000000	 unflanked_bex_freq_4_amplitude_2.5_rep_7_t_K.png	 K	 t	 t	 n.a.	 3.047054e-01
2	 4	 206	 unflanked	 bex	 4	 3.000000	 0.000000	 unflanked_bex_freq_4_amplitude_3_rep_6_b_N.png	 N	 b	 b	 n.a.	 4.504258e-01
2	 4	 207	 unflanked	 bex	 6	 1.500000	 0.000000	 unflanked_bex_freq_6_amplitude_1.5_rep_1_b_N.png	 N	 b	 b	 n.a.	 4.287908e-01
2	 4	 208	 unflanked	 bex	 8	 3.000000	 0.000000	 unflanked_bex_freq_8_amplitude_3_rep_7_t_D.png	 D	 t	 t	 n.a.	 3.483931e-01
2	 4	 209	 unflanked	 bex	 32	 0.250000	 0.000000	 unflanked_bex_freq_32_amplitude_0.25_rep_5_t_K.png	 K	 t	 t	 n.a.	 4.687863e-01
2	 4	 210	 unflanked	 bex	 2	 0.250000	 0.000000	 unflanked_bex_freq_2_amplitude_0.25_rep_3_l_H.png	 H	 l	 t	 n.a.	 5.843168e-01
2	 4	 211	 unflanked	 bex	 4	 0.500000	 0.000000	 unflanked_bex_freq_4_amplitude_0.5_rep_6_b_H.png	 H	 b	 l	 n.a.	 4.645414e-01
2	 4	 212	 unflanked	 bex	 16	 2.500000	 0.000000	 unflanked_bex_freq_16_amplitude_2.5_rep_2_r_N.png	 N	 r	 r	 n.a.	 2.490487e-01
2	 4	 213	 unflanked	 bex	 4	 2.500000	 0.000000	 unflanked_bex_freq_4_amplitude_2.5_rep_9_l_H.png	 H	 l	 l	 n.a.	 2.692372e-01
2	 4	 214	 unflanked	 bex	 4	 1.500000	 0.000000	 unflanked_bex_freq_4_amplitude_1.5_rep_0_l_H.png	 H	 l	 l	 n.a.	 3.116180e-01
2	 4	 215	 unflanked	 bex	 32	 2.500000	 0.000000	 unflanked_bex_freq_32_amplitude_2.5_rep_8_b_N.png	 N	 b	 t	 n.a.	 3.715784e-01
2	 4	 216	 unflanked	 bex	 8	 1.500000	 0.000000	 unflanked_bex_freq_8_amplitude_1.5_rep_3_l_N.png	 N	 l	 l	 n.a.	 2.663113e-01
2	 4	 217	 unflanked	 bex	 6	 2.500000	 0.000000	 unflanked_bex_freq_6_amplitude_2.5_rep_2_b_K.png	 K	 b	 b	 n.a.	 3.143006e-01
2	 4	 218	 unflanked	 bex	 32	 2.000000	 0.000000	 unflanked_bex_freq_32_amplitude_2_rep_3_l_N.png	 N	 l	 b	 n.a.	 3.354255e-01
2	 4	 219	 unflanked	 bex	 4	 0.500000	 0.000000	 unflanked_bex_freq_4_amplitude_0.5_rep_0_r_D.png	 D	 r	 b	 n.a.	 4.191338e-01
2	 4	 220	 unflanked	 bex	 6	 2.000000	 0.000000	 unflanked_bex_freq_6_amplitude_2_rep_0_r_H.png	 H	 r	 r	 n.a.	 2.356781e-01
2	 4	 221	 unflanked	 bex	 32	 2.500000	 0.000000	 unflanked_bex_freq_32_amplitude_2.5_rep_9_l_K.png	 K	 l	 r	 n.a.	 3.016857e-01
2	 4	 222	 unflanked	 bex	 4	 2.000000	 0.000000	 unflanked_bex_freq_4_amplitude_2_rep_5_t_H.png	 H	 t	 r	 n.a.	 3.980408e-01
2	 4	 223	 unflanked	 bex	 2	 2.000000	 0.000000	 unflanked_bex_freq_2_amplitude_2_rep_6_b_N.png	 N	 b	 r	 n.a.	 5.604375e-01
2	 4	 224	 unflanked	 bex	 16	 2.000000	 0.000000	 unflanked_bex_freq_16_amplitude_2_rep_8_b_D.png	 D	 b	 b	 n.a.	 4.142422e-01
2	 4	 225	 unflanked	 bex	 16	 0.250000	 0.000000	 unflanked_bex_freq_16_amplitude_0.25_rep_4_l_K.png	 K	 l	 t	 n.a.	 5.980456e-01
2	 4	 226	 unflanked	 bex	 32	 2.500000	 0.000000	 unflanked_bex_freq_32_amplitude_2.5_rep_2_t_N.png	 N	 t	 b	 n.a.	 4.717912e-01
2	 4	 227	 unflanked	 bex	 2	 0.250000	 0.000000	 unflanked_bex_freq_2_amplitude_0.25_rep_4_r_N.png	 N	 r	 l	 n.a.	 3.367576e-01
2	 4	 228	 unflanked	 bex	 32	 0.500000	 0.000000	 unflanked_bex_freq_32_amplitude_0.5_rep_0_b_H.png	 H	 b	 r	 n.a.	 2.268752e-01
2	 4	 229	 unflanked	 bex	 6	 0.500000	 0.000000	 unflanked_bex_freq_6_amplitude_0.5_rep_2_t_K.png	 K	 t	 l	 n.a.	 3.326943e-01
2	 4	 230	 unflanked	 bex	 8	 2.000000	 0.000000	 unflanked_bex_freq_8_amplitude_2_rep_9_r_N.png	 N	 r	 r	 n.a.	 3.139246e-01
2	 4	 231	 unflanked	 bex	 4	 3.000000	 0.000000	 unflanked_bex_freq_4_amplitude_3_rep_5_r_K.png	 K	 r	 r	 n.a.	 2.231551e-01
2	 4	 232	 unflanked	 bex	 16	 2.000000	 0.000000	 unflanked_bex_freq_16_amplitude_2_rep_2_t_H.png	 H	 t	 t	 n.a.	 3.202055e-01
2	 4	 233	 unflanked	 bex	 6	 0.500000	 0.000000	 unflanked_bex_freq_6_amplitude_0.5_rep_7_l_D.png	 D	 l	 t	 n.a.	 5.194852e-01
2	 4	 234	 unflanked	 bex	 4	 3.000000	 0.000000	 unflanked_bex_freq_4_amplitude_3_rep_0_r_H.png	 H	 r	 r	 n.a.	 2.377684e-01
2	 4	 235	 unflanked	 bex	 32	 0.500000	 0.000000	 unflanked_bex_freq_32_amplitude_0.5_rep_1_b_K.png	 K	 b	 b	 n.a.	 3.440050e-01
2	 4	 236	 unflanked	 bex	 32	 3.000000	 0.000000	 unflanked_bex_freq_32_amplitude_3_rep_8_t_K.png	 K	 t	 t	 n.a.	 5.911136e-01
2	 4	 237	 unflanked	 bex	 6	 1.500000	 0.000000	 unflanked_bex_freq_6_amplitude_1.5_rep_8_l_H.png	 H	 l	 l	 n.a.	 4.913095e-01
2	 4	 238	 unflanked	 bex	 2	 2.000000	 0.000000	 unflanked_bex_freq_2_amplitude_2_rep_8_t_D.png	 D	 t	 t	 n.a.	 3.563279e-01
2	 4	 239	 unflanked	 bex	 2	 0.500000	 0.000000	 unflanked_bex_freq_2_amplitude_0.5_rep_9_t_H.png	 H	 t	 r	 n.a.	 3.852261e-01
2	 4	 240	 unflanked	 bex	 6	 1.500000	 0.000000	 unflanked_bex_freq_6_amplitude_1.5_rep_4_b_N.png	 N	 b	 t	 n.a.	 3.727898e-01
2	 4	 241	 unflanked	 bex	 16	 1.500000	 0.000000	 unflanked_bex_freq_16_amplitude_1.5_rep_2_b_K.png	 K	 b	 b	 n.a.	 3.877692e-01
2	 4	 242	 unflanked	 bex	 16	 1.000000	 0.000000	 unflanked_bex_freq_16_amplitude_1_rep_2_l_K.png	 K	 l	 l	 n.a.	 4.448544e-01
2	 4	 243	 unflanked	 bex	 2	 1.500000	 0.000000	 unflanked_bex_freq_2_amplitude_1.5_rep_5_l_H.png	 H	 l	 l	 n.a.	 4.834891e-01
2	 4	 244	 unflanked	 bex	 16	 3.000000	 0.000000	 unflanked_bex_freq_16_amplitude_3_rep_0_b_K.png	 K	 b	 b	 n.a.	 3.050433e-01
2	 4	 245	 unflanked	 bex	 6	 0.250000	 0.000000	 unflanked_bex_freq_6_amplitude_0.25_rep_4_b_N.png	 N	 b	 t	 n.a.	 3.710642e-01
2	 4	 246	 unflanked	 bex	 4	 0.250000	 0.000000	 unflanked_bex_freq_4_amplitude_0.25_rep_8_r_N.png	 N	 r	 t	 n.a.	 4.760506e-01
2	 4	 247	 unflanked	 bex	 4	 1.500000	 0.000000	 unflanked_bex_freq_4_amplitude_1.5_rep_7_b_N.png	 N	 b	 l	 n.a.	 2.921775e-01
2	 4	 248	 unflanked	 bex	 8	 1.500000	 0.000000	 unflanked_bex_freq_8_amplitude_1.5_rep_4_r_N.png	 N	 r	 r	 n.a.	 4.216632e-01
2	 4	 249	 unflanked	 bex	 16	 3.000000	 0.000000	 unflanked_bex_freq_16_amplitude_3_rep_8_b_N.png	 N	 b	 r	 n.a.	 6.113143e-01
2	 4	 250	 unflanked	 bex	 4	 2.500000	 0.000000	 unflanked_bex_freq_4_amplitude_2.5_rep_8_b_K.png	 K	 b	 b	 n.a.	 2.794473e-01
2	 4	 251	 unflanked	 bex	 4	 3.000000	 0.000000	 unflanked_bex_freq_4_amplitude_3_rep_2_t_D.png	 D	 t	 t	 n.a.	 2.798595e-01
2	 4	 252	 unflanked	 bex	 2	 2.000000	 0.000000	 unflanked_bex_freq_2_amplitude_2_rep_0_r_N.png	 N	 r	 t	 n.a.	 3.621581e-01
2	 4	 253	 unflanked	 bex	 4	 2.000000	 0.000000	 unflanked_bex_freq_4_amplitude_2_rep_9_l_K.png	 K	 l	 l	 n.a.	 3.187862e-01
2	 4	 254	 unflanked	 bex	 4	 0.500000	 0.000000	 unflanked_bex_freq_4_amplitude_0.5_rep_8_r_H.png	 H	 r	 t	 n.a.	 5.061444e-01
2	 4	 255	 unflanked	 bex	 6	 2.500000	 0.000000	 unflanked_bex_freq_6_amplitude_2.5_rep_6_b_D.png	 D	 b	 b	 n.a.	 2.633322e-01
2	 4	 256	 unflanked	 bex	 32	 1.000000	 0.000000	 unflanked_bex_freq_32_amplitude_1_rep_1_l_K.png	 K	 l	 t	 n.a.	 6.131507e-01
2	 4	 257	 unflanked	 bex	 16	 2.000000	 0.000000	 unflanked_bex_freq_16_amplitude_2_rep_0_l_K.png	 K	 l	 l	 n.a.	 3.126143e-01
2	 4	 258	 unflanked	 bex	 32	 0.500000	 0.000000	 unflanked_bex_freq_32_amplitude_0.5_rep_4_b_H.png	 H	 b	 r	 n.a.	 4.658236e-01
2	 4	 259	 unflanked	 bex	 6	 2.000000	 0.000000	 unflanked_bex_freq_6_amplitude_2_rep_7_t_N.png	 N	 t	 t	 n.a.	 3.228080e-01
2	 4	 260	 unflanked	 bex	 6	 1.500000	 0.000000	 unflanked_bex_freq_6_amplitude_1.5_rep_0_t_D.png	 D	 t	 t	 n.a.	 2.908766e-01
2	 4	 261	 unflanked	 bex	 8	 1.000000	 0.000000	 unflanked_bex_freq_8_amplitude_1_rep_7_r_H.png	 H	 r	 r	 n.a.	 6.964873e-01
2	 4	 262	 unflanked	 bex	 16	 2.500000	 0.000000	 unflanked_bex_freq_16_amplitude_2.5_rep_7_b_K.png	 K	 b	 b	 n.a.	 3.452515e-01
2	 4	 263	 unflanked	 bex	 16	 1.000000	 0.000000	 unflanked_bex_freq_16_amplitude_1_rep_3_r_K.png	 K	 r	 r	 n.a.	 3.564574e-01
2	 4	 264	 unflanked	 bex	 32	 2.000000	 0.000000	 unflanked_bex_freq_32_amplitude_2_rep_4_t_H.png	 H	 t	 t	 n.a.	 4.513889e-01
2	 4	 265	 unflanked	 bex	 4	 0.250000	 0.000000	 unflanked_bex_freq_4_amplitude_0.25_rep_9_l_H.png	 H	 l	 r	 n.a.	 3.373118e-01
2	 4	 266	 unflanked	 bex	 16	 1.000000	 0.000000	 unflanked_bex_freq_16_amplitude_1_rep_9_t_H.png	 H	 t	 t	 n.a.	 7.326183e-01
2	 4	 267	 unflanked	 bex	 2	 0.250000	 0.000000	 unflanked_bex_freq_2_amplitude_0.25_rep_7_r_H.png	 H	 r	 t	 n.a.	 4.981656e-01
2	 4	 268	 unflanked	 bex	 4	 1.500000	 0.000000	 unflanked_bex_freq_4_amplitude_1.5_rep_8_t_K.png	 K	 t	 t	 n.a.	 3.814433e-01
2	 4	 269	 unflanked	 bex	 2	 1.000000	 0.000000	 unflanked_bex_freq_2_amplitude_1_rep_5_l_D.png	 D	 l	 b	 n.a.	 3.333694e-01
2	 4	 270	 unflanked	 bex	 6	 0.250000	 0.000000	 unflanked_bex_freq_6_amplitude_0.25_rep_5_l_D.png	 D	 l	 l	 n.a.	 3.224074e-01
2	 4	 271	 unflanked	 bex	 6	 1.000000	 0.000000	 unflanked_bex_freq_6_amplitude_1_rep_5_b_N.png	 N	 b	 b	 n.a.	 3.781828e-01
2	 4	 272	 unflanked	 bex	 32	 1.500000	 0.000000	 unflanked_bex_freq_32_amplitude_1.5_rep_4_t_D.png	 D	 t	 l	 n.a.	 3.779893e-01
2	 4	 273	 unflanked	 bex	 2	 0.250000	 0.000000	 unflanked_bex_freq_2_amplitude_0.25_rep_0_l_K.png	 K	 l	 t	 n.a.	 3.056832e-01
2	 4	 274	 unflanked	 bex	 16	 1.500000	 0.000000	 unflanked_bex_freq_16_amplitude_1.5_rep_7_r_K.png	 K	 r	 r	 n.a.	 3.501189e-01
2	 4	 275	 unflanked	 bex	 4	 0.500000	 0.000000	 unflanked_bex_freq_4_amplitude_0.5_rep_3_b_H.png	 H	 b	 b	 n.a.	 3.517635e-01
2	 4	 276	 unflanked	 bex	 8	 3.000000	 0.000000	 unflanked_bex_freq_8_amplitude_3_rep_1_r_K.png	 K	 r	 r	 n.a.	 2.495364e-01
2	 4	 277	 unflanked	 bex	 6	 0.250000	 0.000000	 unflanked_bex_freq_6_amplitude_0.25_rep_7_r_H.png	 H	 r	 t	 n.a.	 3.470527e-01
2	 4	 278	 unflanked	 bex	 2	 0.500000	 0.000000	 unflanked_bex_freq_2_amplitude_0.5_rep_0_l_N.png	 N	 l	 b	 n.a.	 2.499309e-01
2	 4	 279	 unflanked	 bex	 32	 2.000000	 0.000000	 unflanked_bex_freq_32_amplitude_2_rep_7_b_H.png	 H	 b	 r	 n.a.	 3.925256e-01
2	 4	 280	 unflanked	 bex	 32	 1.000000	 0.000000	 unflanked_bex_freq_32_amplitude_1_rep_7_l_K.png	 K	 l	 l	 n.a.	 5.336710e-01
2	 4	 281	 unflanked	 bex	 8	 0.500000	 0.000000	 unflanked_bex_freq_8_amplitude_0.5_rep_1_r_D.png	 D	 r	 l	 n.a.	 3.590229e-01
2	 4	 282	 unflanked	 bex	 32	 0.500000	 0.000000	 unflanked_bex_freq_32_amplitude_0.5_rep_6_t_N.png	 N	 t	 b	 n.a.	 5.046250e-01
2	 4	 283	 unflanked	 bex	 6	 2.500000	 0.000000	 unflanked_bex_freq_6_amplitude_2.5_rep_7_r_N.png	 N	 r	 r	 n.a.	 1.989476e-01
2	 4	 284	 unflanked	 bex	 2	 0.500000	 0.000000	 unflanked_bex_freq_2_amplitude_0.5_rep_6_l_H.png	 H	 l	 t	 n.a.	 7.317455e-01
2	 4	 285	 unflanked	 bex	 32	 3.000000	 0.000000	 unflanked_bex_freq_32_amplitude_3_rep_9_r_H.png	 H	 r	 r	 n.a.	 2.874396e-01
2	 4	 286	 unflanked	 bex	 4	 0.500000	 0.000000	 unflanked_bex_freq_4_amplitude_0.5_rep_5_r_K.png	 K	 r	 r	 n.a.	 4.039301e-01
2	 4	 287	 unflanked	 bex	 32	 2.500000	 0.000000	 unflanked_bex_freq_32_amplitude_2.5_rep_7_l_H.png	 H	 l	 l	 n.a.	 3.114887e-01
2	 4	 288	 unflanked	 bex	 8	 1.000000	 0.000000	 unflanked_bex_freq_8_amplitude_1_rep_3_r_N.png	 N	 r	 r	 n.a.	 3.373175e-01
2	 4	 289	 unflanked	 bex	 8	 1.000000	 0.000000	 unflanked_bex_freq_8_amplitude_1_rep_6_r_H.png	 H	 r	 r	 n.a.	 3.468778e-01
2	 4	 290	 unflanked	 bex	 4	 2.500000	 0.000000	 unflanked_bex_freq_4_amplitude_2.5_rep_2_t_N.png	 N	 t	 t	 n.a.	 3.382696e-01
2	 4	 291	 unflanked	 bex	 16	 0.500000	 0.000000	 unflanked_bex_freq_16_amplitude_0.5_rep_4_l_K.png	 K	 l	 l	 n.a.	 3.570022e-01
2	 4	 292	 unflanked	 bex	 4	 1.000000	 0.000000	 unflanked_bex_freq_4_amplitude_1_rep_0_b_H.png	 H	 b	 b	 n.a.	 3.441488e-01
2	 4	 293	 unflanked	 bex	 32	 0.500000	 0.000000	 unflanked_bex_freq_32_amplitude_0.5_rep_2_r_D.png	 D	 r	 b	 n.a.	 4.529885e-01
2	 4	 294	 unflanked	 bex	 4	 1.500000	 0.000000	 unflanked_bex_freq_4_amplitude_1.5_rep_5_r_K.png	 K	 r	 r	 n.a.	 3.128715e-01
2	 4	 295	 unflanked	 bex	 16	 1.500000	 0.000000	 unflanked_bex_freq_16_amplitude_1.5_rep_0_b_H.png	 H	 b	 l	 n.a.	 3.137122e-01
2	 4	 296	 unflanked	 bex	 6	 0.500000	 0.000000	 unflanked_bex_freq_6_amplitude_0.5_rep_9_t_H.png	 H	 t	 b	 n.a.	 7.228992e-01
2	 4	 297	 unflanked	 bex	 16	 1.000000	 0.000000	 unflanked_bex_freq_16_amplitude_1_rep_6_t_D.png	 D	 t	 b	 n.a.	 4.329703e-01
2	 4	 298	 unflanked	 bex	 4	 1.000000	 0.000000	 unflanked_bex_freq_4_amplitude_1_rep_6_l_N.png	 N	 l	 l	 n.a.	 3.748995e-01
2	 4	 299	 unflanked	 bex	 32	 0.500000	 0.000000	 unflanked_bex_freq_32_amplitude_0.5_rep_7_l_N.png	 N	 l	 t	 n.a.	 4.622991e-01
2	 4	 300	 unflanked	 bex	 16	 1.500000	 0.000000	 unflanked_bex_freq_16_amplitude_1.5_rep_6_t_N.png	 N	 t	 t	 n.a.	 4.212532e-01
2	 4	 301	 unflanked	 bex	 2	 0.500000	 0.000000	 unflanked_bex_freq_2_amplitude_0.5_rep_5_t_N.png	 N	 t	 l	 n.a.	 3.426820e-01
2	 4	 302	 unflanked	 bex	 2	 1.500000	 0.000000	 unflanked_bex_freq_2_amplitude_1.5_rep_9_t_H.png	 H	 t	 t	 n.a.	 5.553388e-01
2	 4	 303	 unflanked	 bex	 16	 2.000000	 0.000000	 unflanked_bex_freq_16_amplitude_2_rep_6_l_N.png	 N	 l	 l	 n.a.	 6.837457e-01
2	 4	 304	 unflanked	 bex	 32	 0.250000	 0.000000	 unflanked_bex_freq_32_amplitude_0.25_rep_0_t_N.png	 N	 t	 r	 n.a.	 4.811867e-01
2	 4	 305	 unflanked	 bex	 8	 0.250000	 0.000000	 unflanked_bex_freq_8_amplitude_0.25_rep_7_r_N.png	 N	 r	 r	 n.a.	 4.807150e-01
2	 4	 306	 unflanked	 bex	 32	 0.250000	 0.000000	 unflanked_bex_freq_32_amplitude_0.25_rep_2_l_D.png	 D	 l	 b	 n.a.	 4.618477e-01
2	 4	 307	 unflanked	 bex	 8	 2.500000	 0.000000	 unflanked_bex_freq_8_amplitude_2.5_rep_5_b_D.png	 D	 b	 b	 n.a.	 3.021792e-01
2	 4	 308	 unflanked	 bex	 2	 1.500000	 0.000000	 unflanked_bex_freq_2_amplitude_1.5_rep_0_b_K.png	 K	 b	 b	 n.a.	 3.053969e-01
2	 4	 309	 unflanked	 bex	 32	 0.250000	 0.000000	 unflanked_bex_freq_32_amplitude_0.25_rep_7_l_H.png	 H	 l	 t	 n.a.	 5.606744e-01
2	 4	 310	 unflanked	 bex	 32	 1.500000	 0.000000	 unflanked_bex_freq_32_amplitude_1.5_rep_2_l_D.png	 D	 l	 b	 n.a.	 3.249881e-01
2	 4	 311	 unflanked	 bex	 6	 2.000000	 0.000000	 unflanked_bex_freq_6_amplitude_2_rep_1_b_D.png	 D	 b	 l	 n.a.	 5.464386e-01
2	 4	 312	 unflanked	 bex	 6	 3.000000	 0.000000	 unflanked_bex_freq_6_amplitude_3_rep_5_b_K.png	 K	 b	 b	 n.a.	 2.752535e-01
2	 4	 313	 unflanked	 bex	 16	 3.000000	 0.000000	 unflanked_bex_freq_16_amplitude_3_rep_6_l_K.png	 K	 l	 l	 n.a.	 3.521603e-01
2	 4	 314	 unflanked	 bex	 8	 0.250000	 0.000000	 unflanked_bex_freq_8_amplitude_0.25_rep_6_t_K.png	 K	 t	 r	 n.a.	 4.763728e-01
2	 4	 315	 unflanked	 bex	 6	 0.250000	 0.000000	 unflanked_bex_freq_6_amplitude_0.25_rep_0_l_D.png	 D	 l	 b	 n.a.	 4.708040e-01
2	 4	 316	 unflanked	 bex	 32	 3.000000	 0.000000	 unflanked_bex_freq_32_amplitude_3_rep_4_t_D.png	 D	 t	 b	 n.a.	 4.366509e-01
2	 4	 317	 unflanked	 bex	 4	 1.000000	 0.000000	 unflanked_bex_freq_4_amplitude_1_rep_2_r_H.png	 H	 r	 t	 n.a.	 5.698652e-01
2	 4	 318	 unflanked	 bex	 6	 3.000000	 0.000000	 unflanked_bex_freq_6_amplitude_3_rep_6_l_K.png	 K	 l	 l	 n.a.	 3.130592e-01
2	 4	 319	 unflanked	 bex	 16	 3.000000	 0.000000	 unflanked_bex_freq_16_amplitude_3_rep_3_b_N.png	 N	 b	 b	 n.a.	 2.985208e-01
2	 4	 320	 unflanked	 bex	 32	 1.000000	 0.000000	 unflanked_bex_freq_32_amplitude_1_rep_8_l_H.png	 H	 l	 b	 n.a.	 7.514575e-01
2	 4	 321	 unflanked	 bex	 2	 3.000000	 0.000000	 unflanked_bex_freq_2_amplitude_3_rep_1_l_K.png	 K	 l	 l	 n.a.	 2.954349e-01
2	 4	 322	 unflanked	 bex	 16	 2.500000	 0.000000	 unflanked_bex_freq_16_amplitude_2.5_rep_6_r_K.png	 K	 r	 r	 n.a.	 3.006942e-01
2	 4	 323	 unflanked	 bex	 4	 0.250000	 0.000000	 unflanked_bex_freq_4_amplitude_0.25_rep_7_b_N.png	 N	 b	 l	 n.a.	 5.247206e-01
2	 4	 324	 unflanked	 bex	 6	 2.000000	 0.000000	 unflanked_bex_freq_6_amplitude_2_rep_3_t_K.png	 K	 t	 t	 n.a.	 3.227565e-01
2	 4	 325	 unflanked	 bex	 32	 2.500000	 0.000000	 unflanked_bex_freq_32_amplitude_2.5_rep_4_r_N.png	 N	 r	 b	 n.a.	 2.607139e-01
2	 4	 326	 unflanked	 bex	 2	 0.250000	 0.000000	 unflanked_bex_freq_2_amplitude_0.25_rep_5_l_K.png	 K	 l	 l	 n.a.	 9.405102e-01
2	 4	 327	 unflanked	 bex	 2	 1.000000	 0.000000	 unflanked_bex_freq_2_amplitude_1_rep_4_b_D.png	 D	 b	 b	 n.a.	 5.571095e-01
2	 4	 328	 unflanked	 bex	 4	 1.500000	 0.000000	 unflanked_bex_freq_4_amplitude_1.5_rep_4_l_H.png	 H	 l	 l	 n.a.	 4.243607e-01
2	 4	 329	 unflanked	 bex	 16	 2.500000	 0.000000	 unflanked_bex_freq_16_amplitude_2.5_rep_9_l_D.png	 D	 l	 l	 n.a.	 4.854789e-01
2	 4	 330	 unflanked	 bex	 4	 1.500000	 0.000000	 unflanked_bex_freq_4_amplitude_1.5_rep_2_t_H.png	 H	 t	 b	 n.a.	 5.942156e-01
2	 4	 331	 unflanked	 bex	 2	 1.500000	 0.000000	 unflanked_bex_freq_2_amplitude_1.5_rep_8_l_K.png	 K	 l	 l	 n.a.	 5.836130e-01
2	 4	 332	 unflanked	 bex	 8	 0.500000	 0.000000	 unflanked_bex_freq_8_amplitude_0.5_rep_2_b_K.png	 K	 b	 b	 n.a.	 3.839171e-01
2	 4	 333	 unflanked	 bex	 8	 0.500000	 0.000000	 unflanked_bex_freq_8_amplitude_0.5_rep_4_r_D.png	 D	 r	 r	 n.a.	 6.685404e-01
2	 4	 334	 unflanked	 bex	 8	 2.500000	 0.000000	 unflanked_bex_freq_8_amplitude_2.5_rep_3_t_H.png	 H	 t	 t	 n.a.	 3.279406e-01
2	 4	 335	 unflanked	 bex	 6	 0.500000	 0.000000	 unflanked_bex_freq_6_amplitude_0.5_rep_5_t_N.png	 N	 t	 b	 n.a.	 2.860390e-01
2	 4	 336	 unflanked	 bex	 6	 1.000000	 0.000000	 unflanked_bex_freq_6_amplitude_1_rep_8_r_K.png	 K	 r	 l	 n.a.	 3.476689e-01
2	 4	 337	 unflanked	 bex	 4	 0.500000	 0.000000	 unflanked_bex_freq_4_amplitude_0.5_rep_4_l_K.png	 K	 l	 t	 n.a.	 4.196857e-01
2	 4	 338	 unflanked	 bex	 4	 2.500000	 0.000000	 unflanked_bex_freq_4_amplitude_2.5_rep_6_l_K.png	 K	 l	 l	 n.a.	 3.081990e-01
2	 4	 339	 unflanked	 bex	 16	 1.500000	 0.000000	 unflanked_bex_freq_16_amplitude_1.5_rep_4_l_D.png	 D	 l	 l	 n.a.	 5.573964e-01
2	 4	 340	 unflanked	 bex	 32	 1.000000	 0.000000	 unflanked_bex_freq_32_amplitude_1_rep_9_r_K.png	 K	 r	 b	 n.a.	 4.122749e-01
2	 4	 341	 unflanked	 bex	 8	 0.500000	 0.000000	 unflanked_bex_freq_8_amplitude_0.5_rep_8_r_K.png	 K	 r	 r	 n.a.	 7.267474e-01
2	 4	 342	 unflanked	 bex	 6	 0.500000	 0.000000	 unflanked_bex_freq_6_amplitude_0.5_rep_3_b_D.png	 D	 b	 t	 n.a.	 7.910584e-01
2	 4	 343	 unflanked	 bex	 8	 1.500000	 0.000000	 unflanked_bex_freq_8_amplitude_1.5_rep_0_r_K.png	 K	 r	 r	 n.a.	 3.969268e-01
2	 4	 344	 unflanked	 bex	 8	 3.000000	 0.000000	 unflanked_bex_freq_8_amplitude_3_rep_8_l_H.png	 H	 l	 l	 n.a.	 2.754209e-01
2	 4	 345	 unflanked	 bex	 16	 0.500000	 0.000000	 unflanked_bex_freq_16_amplitude_0.5_rep_0_r_N.png	 N	 r	 r	 n.a.	 8.451607e-01
2	 4	 346	 unflanked	 bex	 32	 1.000000	 0.000000	 unflanked_bex_freq_32_amplitude_1_rep_3_l_H.png	 H	 l	 b	 n.a.	 5.578014e-01
2	 4	 347	 unflanked	 bex	 16	 0.250000	 0.000000	 unflanked_bex_freq_16_amplitude_0.25_rep_2_l_K.png	 K	 l	 l	 n.a.	 3.463278e-01
2	 4	 348	 unflanked	 bex	 2	 1.500000	 0.000000	 unflanked_bex_freq_2_amplitude_1.5_rep_6_t_H.png	 H	 t	 t	 n.a.	 4.567463e-01
2	 4	 349	 unflanked	 bex	 6	 1.500000	 0.000000	 unflanked_bex_freq_6_amplitude_1.5_rep_3_t_N.png	 N	 t	 l	 n.a.	 4.566660e-01
2	 4	 350	 unflanked	 bex	 4	 3.000000	 0.000000	 unflanked_bex_freq_4_amplitude_3_rep_7_t_D.png	 D	 t	 t	 n.a.	 3.643472e-01
2	 4	 351	 unflanked	 bex	 32	 1.500000	 0.000000	 unflanked_bex_freq_32_amplitude_1.5_rep_7_t_H.png	 H	 t	 l	 n.a.	 3.116437e-01
2	 4	 352	 unflanked	 bex	 8	 2.000000	 0.000000	 unflanked_bex_freq_8_amplitude_2_rep_1_l_D.png	 D	 l	 l	 n.a.	 2.653206e-01
2	 4	 353	 unflanked	 bex	 32	 1.500000	 0.000000	 unflanked_bex_freq_32_amplitude_1.5_rep_6_l_D.png	 D	 l	 l	 n.a.	 3.670541e-01
2	 4	 354	 unflanked	 bex	 4	 0.250000	 0.000000	 unflanked_bex_freq_4_amplitude_0.25_rep_0_b_N.png	 N	 b	 l	 n.a.	 4.785261e-01
2	 4	 355	 unflanked	 bex	 16	 0.500000	 0.000000	 unflanked_bex_freq_16_amplitude_0.5_rep_3_r_K.png	 K	 r	 r	 n.a.	 5.765233e-01
2	 4	 356	 unflanked	 bex	 16	 2.000000	 0.000000	 unflanked_bex_freq_16_amplitude_2_rep_3_l_K.png	 K	 l	 l	 n.a.	 2.672572e-01
2	 4	 357	 unflanked	 bex	 8	 2.000000	 0.000000	 unflanked_bex_freq_8_amplitude_2_rep_7_r_N.png	 N	 r	 r	 n.a.	 2.716215e-01
2	 4	 358	 unflanked	 bex	 8	 1.000000	 0.000000	 unflanked_bex_freq_8_amplitude_1_rep_5_b_K.png	 K	 b	 b	 n.a.	 3.391496e-01
2	 4	 359	 unflanked	 bex	 2	 2.500000	 0.000000	 unflanked_bex_freq_2_amplitude_2.5_rep_1_b_K.png	 K	 b	 b	 n.a.	 2.621902e-01
2	 4	 360	 unflanked	 bex	 16	 2.000000	 0.000000	 unflanked_bex_freq_16_amplitude_2_rep_7_t_K.png	 K	 t	 r	 n.a.	 4.197853e-01
2	 4	 361	 unflanked	 bex	 8	 0.500000	 0.000000	 unflanked_bex_freq_8_amplitude_0.5_rep_3_t_N.png	 N	 t	 r	 n.a.	 7.868372e-01
2	 4	 362	 unflanked	 bex	 32	 2.500000	 0.000000	 unflanked_bex_freq_32_amplitude_2.5_rep_3_b_N.png	 N	 b	 b	 n.a.	 5.827458e-01
2	 4	 363	 unflanked	 bex	 4	 1.500000	 0.000000	 unflanked_bex_freq_4_amplitude_1.5_rep_6_t_N.png	 N	 t	 b	 n.a.	 5.519641e-01
2	 4	 364	 unflanked	 bex	 8	 3.000000	 0.000000	 unflanked_bex_freq_8_amplitude_3_rep_9_b_N.png	 N	 b	 b	 n.a.	 2.998538e-01
2	 4	 365	 unflanked	 bex	 2	 2.500000	 0.000000	 unflanked_bex_freq_2_amplitude_2.5_rep_0_r_H.png	 H	 r	 r	 n.a.	 3.235285e-01
2	 4	 366	 unflanked	 bex	 8	 3.000000	 0.000000	 unflanked_bex_freq_8_amplitude_3_rep_4_b_N.png	 N	 b	 b	 n.a.	 2.710214e-01
2	 4	 367	 unflanked	 bex	 4	 1.500000	 0.000000	 unflanked_bex_freq_4_amplitude_1.5_rep_1_b_D.png	 D	 b	 b	 n.a.	 2.861076e-01
2	 4	 368	 unflanked	 bex	 6	 0.250000	 0.000000	 unflanked_bex_freq_6_amplitude_0.25_rep_8_l_H.png	 H	 l	 b	 n.a.	 6.478558e-01
2	 4	 369	 unflanked	 bex	 8	 0.250000	 0.000000	 unflanked_bex_freq_8_amplitude_0.25_rep_0_t_D.png	 D	 t	 r	 n.a.	 4.372412e-01
2	 4	 370	 unflanked	 bex	 16	 0.500000	 0.000000	 unflanked_bex_freq_16_amplitude_0.5_rep_2_r_N.png	 N	 r	 t	 n.a.	 4.166971e-01
2	 4	 371	 unflanked	 bex	 6	 1.000000	 0.000000	 unflanked_bex_freq_6_amplitude_1_rep_2_b_D.png	 D	 b	 b	 n.a.	 4.879545e-01
2	 4	 372	 unflanked	 bex	 6	 2.500000	 0.000000	 unflanked_bex_freq_6_amplitude_2.5_rep_0_t_K.png	 K	 t	 t	 n.a.	 4.460997e-01
2	 4	 373	 unflanked	 bex	 16	 1.000000	 0.000000	 unflanked_bex_freq_16_amplitude_1_rep_4_t_K.png	 K	 t	 r	 n.a.	 4.870745e-01
2	 4	 374	 unflanked	 bex	 8	 2.500000	 0.000000	 unflanked_bex_freq_8_amplitude_2.5_rep_1_t_H.png	 H	 t	 t	 n.a.	 6.063113e-01
2	 4	 375	 unflanked	 bex	 2	 3.000000	 0.000000	 unflanked_bex_freq_2_amplitude_3_rep_6_b_D.png	 D	 b	 l	 n.a.	 3.950605e-01
2	 4	 376	 unflanked	 bex	 4	 2.500000	 0.000000	 unflanked_bex_freq_4_amplitude_2.5_rep_1_r_H.png	 H	 r	 r	 n.a.	 2.814641e-01
2	 4	 377	 unflanked	 bex	 16	 0.250000	 0.000000	 unflanked_bex_freq_16_amplitude_0.25_rep_7_l_D.png	 D	 l	 b	 n.a.	 4.471899e-01
2	 4	 378	 unflanked	 bex	 32	 3.000000	 0.000000	 unflanked_bex_freq_32_amplitude_3_rep_2_l_N.png	 N	 l	 l	 n.a.	 3.259660e-01
2	 4	 379	 unflanked	 bex	 32	 0.250000	 0.000000	 unflanked_bex_freq_32_amplitude_0.25_rep_8_b_K.png	 K	 b	 r	 n.a.	 6.352089e-01
2	 4	 380	 unflanked	 bex	 2	 1.500000	 0.000000	 unflanked_bex_freq_2_amplitude_1.5_rep_2_r_K.png	 K	 r	 r	 n.a.	 3.922218e-01
2	 4	 381	 unflanked	 bex	 2	 0.250000	 0.000000	 unflanked_bex_freq_2_amplitude_0.25_rep_2_b_D.png	 D	 b	 b	 n.a.	 8.727203e-01
2	 4	 382	 unflanked	 bex	 4	 1.000000	 0.000000	 unflanked_bex_freq_4_amplitude_1_rep_5_l_D.png	 D	 l	 l	 n.a.	 5.763019e-01
2	 4	 383	 unflanked	 bex	 4	 2.000000	 0.000000	 unflanked_bex_freq_4_amplitude_2_rep_7_l_N.png	 N	 l	 r	 n.a.	 9.235739e-01
2	 4	 384	 unflanked	 bex	 4	 1.000000	 0.000000	 unflanked_bex_freq_4_amplitude_1_rep_9_t_K.png	 K	 t	 l	 n.a.	 7.086156e-01
2	 4	 385	 unflanked	 bex	 4	 0.250000	 0.000000	 unflanked_bex_freq_4_amplitude_0.25_rep_2_r_N.png	 N	 r	 b	 n.a.	 3.064980e-01
2	 4	 386	 unflanked	 bex	 32	 1.000000	 0.000000	 unflanked_bex_freq_32_amplitude_1_rep_6_b_K.png	 K	 b	 r	 n.a.	 4.020347e-01
2	 4	 387	 unflanked	 bex	 6	 2.000000	 0.000000	 unflanked_bex_freq_6_amplitude_2_rep_5_l_N.png	 N	 l	 l	 n.a.	 3.439380e-01
2	 4	 388	 unflanked	 bex	 4	 2.000000	 0.000000	 unflanked_bex_freq_4_amplitude_2_rep_8_b_K.png	 K	 b	 b	 n.a.	 3.015910e-01
2	 4	 389	 unflanked	 bex	 8	 1.000000	 0.000000	 unflanked_bex_freq_8_amplitude_1_rep_2_l_K.png	 K	 l	 l	 n.a.	 5.573622e-01
2	 4	 390	 unflanked	 bex	 4	 0.500000	 0.000000	 unflanked_bex_freq_4_amplitude_0.5_rep_7_r_D.png	 D	 r	 r	 n.a.	 3.145579e-01
2	 4	 391	 unflanked	 bex	 8	 2.000000	 0.000000	 unflanked_bex_freq_8_amplitude_2_rep_6_r_K.png	 K	 r	 r	 n.a.	 2.504614e-01
2	 4	 392	 unflanked	 bex	 8	 1.500000	 0.000000	 unflanked_bex_freq_8_amplitude_1.5_rep_9_t_H.png	 H	 t	 b	 n.a.	 3.679234e-01
2	 4	 393	 unflanked	 bex	 16	 0.500000	 0.000000	 unflanked_bex_freq_16_amplitude_0.5_rep_1_r_H.png	 H	 r	 l	 n.a.	 5.918858e-01
2	 4	 394	 unflanked	 bex	 2	 2.500000	 0.000000	 unflanked_bex_freq_2_amplitude_2.5_rep_4_l_D.png	 D	 l	 l	 n.a.	 3.794671e-01
2	 4	 395	 unflanked	 bex	 6	 2.000000	 0.000000	 unflanked_bex_freq_6_amplitude_2_rep_2_l_K.png	 K	 l	 l	 n.a.	 3.862805e-01
2	 4	 396	 unflanked	 bex	 6	 2.000000	 0.000000	 unflanked_bex_freq_6_amplitude_2_rep_8_b_N.png	 N	 b	 r	 n.a.	 4.254460e-01
2	 4	 397	 unflanked	 bex	 8	 1.000000	 0.000000	 unflanked_bex_freq_8_amplitude_1_rep_9_b_K.png	 K	 b	 b	 n.a.	 5.831707e-01
2	 4	 398	 unflanked	 bex	 32	 2.000000	 0.000000	 unflanked_bex_freq_32_amplitude_2_rep_0_r_N.png	 N	 r	 r	 n.a.	 3.879532e-01
2	 4	 399	 unflanked	 bex	 16	 1.500000	 0.000000	 unflanked_bex_freq_16_amplitude_1.5_rep_8_r_D.png	 D	 r	 r	 n.a.	 3.198051e-01
2	 4	 400	 unflanked	 bex	 16	 2.500000	 0.000000	 unflanked_bex_freq_16_amplitude_2.5_rep_8_t_K.png	 K	 t	 l	 n.a.	 6.847051e-01
2	 4	 401	 unflanked	 bex	 4	 0.250000	 0.000000	 unflanked_bex_freq_4_amplitude_0.25_rep_3_l_D.png	 D	 l	 b	 n.a.	 2.658952e-01
2	 4	 402	 unflanked	 bex	 6	 1.000000	 0.000000	 unflanked_bex_freq_6_amplitude_1_rep_0_r_H.png	 H	 r	 l	 n.a.	 5.934485e-01
2	 4	 403	 unflanked	 bex	 2	 0.500000	 0.000000	 unflanked_bex_freq_2_amplitude_0.5_rep_4_r_K.png	 K	 r	 t	 n.a.	 5.387514e-01
2	 4	 404	 unflanked	 bex	 8	 0.250000	 0.000000	 unflanked_bex_freq_8_amplitude_0.25_rep_1_l_D.png	 D	 l	 b	 n.a.	 5.076789e-01
2	 4	 405	 unflanked	 bex	 4	 3.000000	 0.000000	 unflanked_bex_freq_4_amplitude_3_rep_9_t_H.png	 H	 t	 t	 n.a.	 3.593344e-01
2	 4	 406	 unflanked	 bex	 6	 3.000000	 0.000000	 unflanked_bex_freq_6_amplitude_3_rep_4_l_N.png	 N	 l	 l	 n.a.	 3.404801e-01
2	 4	 407	 unflanked	 bex	 2	 2.500000	 0.000000	 unflanked_bex_freq_2_amplitude_2.5_rep_3_b_K.png	 K	 b	 b	 n.a.	 3.120710e-01
2	 4	 408	 unflanked	 bex	 6	 2.000000	 0.000000	 unflanked_bex_freq_6_amplitude_2_rep_6_l_N.png	 N	 l	 l	 n.a.	 4.161269e-01
2	 4	 409	 unflanked	 bex	 8	 2.500000	 0.000000	 unflanked_bex_freq_8_amplitude_2.5_rep_9_b_N.png	 N	 b	 b	 n.a.	 3.504602e-01
2	 4	 410	 unflanked	 bex	 16	 1.000000	 0.000000	 unflanked_bex_freq_16_amplitude_1_rep_0_r_N.png	 N	 r	 r	 n.a.	 4.756173e-01
2	 4	 411	 unflanked	 bex	 4	 0.250000	 0.000000	 unflanked_bex_freq_4_amplitude_0.25_rep_5_t_D.png	 D	 t	 r	 n.a.	 4.444003e-01
2	 4	 412	 unflanked	 bex	 6	 0.500000	 0.000000	 unflanked_bex_freq_6_amplitude_0.5_rep_8_r_K.png	 K	 r	 r	 n.a.	 6.732136e-01
2	 4	 413	 unflanked	 bex	 2	 2.500000	 0.000000	 unflanked_bex_freq_2_amplitude_2.5_rep_5_b_K.png	 K	 b	 b	 n.a.	 2.957176e-01
2	 4	 414	 unflanked	 bex	 16	 0.250000	 0.000000	 unflanked_bex_freq_16_amplitude_0.25_rep_8_t_N.png	 N	 t	 r	 n.a.	 4.870568e-01
2	 4	 415	 unflanked	 bex	 8	 0.250000	 0.000000	 unflanked_bex_freq_8_amplitude_0.25_rep_2_t_D.png	 D	 t	 l	 n.a.	 5.236149e-01
2	 4	 416	 unflanked	 bex	 16	 2.000000	 0.000000	 unflanked_bex_freq_16_amplitude_2_rep_9_r_H.png	 H	 r	 r	 n.a.	 3.201224e-01
2	 4	 417	 unflanked	 bex	 32	 0.250000	 0.000000	 unflanked_bex_freq_32_amplitude_0.25_rep_3_r_H.png	 H	 r	 b	 n.a.	 7.669204e-01
2	 4	 418	 unflanked	 bex	 4	 3.000000	 0.000000	 unflanked_bex_freq_4_amplitude_3_rep_8_l_N.png	 N	 l	 l	 n.a.	 2.777522e-01
2	 4	 419	 unflanked	 bex	 4	 2.500000	 0.000000	 unflanked_bex_freq_4_amplitude_2.5_rep_4_b_D.png	 D	 b	 b	 n.a.	 2.834103e-01
2	 4	 420	 unflanked	 bex	 4	 1.000000	 0.000000	 unflanked_bex_freq_4_amplitude_1_rep_3_l_K.png	 K	 l	 l	 n.a.	 3.691027e-01
