subject	 session	 trial	 flanked	 distortion	 freq	 amplitude	 spacing	 im_name	 targ_letter	 targ_pos	 response	 eyemovement	 RT
9	 1	 1	 flanked	 rf	 3	 0.268300	 2.000000	 flanked_rf_freq_3_amplitude_0.2683_rep_3_l_H_2.0.png	 H	 l	 r	 n.a.	 6.319795e-01
9	 1	 2	 flanked	 rf	 2	 0.268300	 2.000000	 flanked_rf_freq_2_amplitude_0.2683_rep_8_l_H_2.0.png	 H	 l	 t	 n.a.	 5.577797e-01
9	 1	 3	 flanked	 rf	 12	 0.113300	 2.000000	 flanked_rf_freq_12_amplitude_0.1133_rep_7_t_D_2.0.png	 D	 t	 t	 n.a.	 5.053654e-01
9	 1	 4	 flanked	 rf	 2	 0.268300	 2.000000	 flanked_rf_freq_2_amplitude_0.2683_rep_6_b_N_2.0.png	 N	 b	 t	 n.a.	 8.283470e-01
9	 1	 5	 flanked	 rf	 2	 0.010000	 2.000000	 flanked_rf_freq_2_amplitude_0.01_rep_4_b_K_2.0.png	 K	 b	 t	 n.a.	 4.875961e-01
9	 1	 6	 flanked	 rf	 3	 0.061700	 2.000000	 flanked_rf_freq_3_amplitude_0.0617_rep_0_b_D_2.0.png	 D	 b	 l	 n.a.	 6.286218e-01
9	 1	 7	 flanked	 rf	 12	 0.165000	 2.000000	 flanked_rf_freq_12_amplitude_0.165_rep_2_b_N_2.0.png	 N	 b	 b	 n.a.	 1.427918e+00
9	 1	 8	 flanked	 rf	 12	 0.113300	 2.000000	 flanked_rf_freq_12_amplitude_0.1133_rep_4_t_N_2.0.png	 N	 t	 t	 n.a.	 1.262810e+00
9	 1	 9	 flanked	 rf	 4	 0.010000	 2.000000	 flanked_rf_freq_4_amplitude_0.01_rep_6_r_H_2.0.png	 H	 r	 t	 n.a.	 1.040465e+00
9	 1	 10	 flanked	 rf	 4	 0.216700	 2.000000	 flanked_rf_freq_4_amplitude_0.2167_rep_4_r_D_2.0.png	 D	 r	 l	 n.a.	 7.908107e-01
9	 1	 11	 flanked	 rf	 8	 0.268300	 2.000000	 flanked_rf_freq_8_amplitude_0.2683_rep_3_b_K_2.0.png	 K	 b	 b	 n.a.	 6.098645e-01
9	 1	 12	 flanked	 rf	 4	 0.061700	 2.000000	 flanked_rf_freq_4_amplitude_0.0617_rep_2_t_N_2.0.png	 N	 t	 b	 n.a.	 6.684823e-01
9	 1	 13	 flanked	 rf	 3	 0.010000	 2.000000	 flanked_rf_freq_3_amplitude_0.01_rep_5_t_N_2.0.png	 N	 t	 b	 n.a.	 8.836391e-01
9	 1	 14	 flanked	 rf	 12	 0.113300	 2.000000	 flanked_rf_freq_12_amplitude_0.1133_rep_8_r_N_2.0.png	 N	 r	 r	 n.a.	 5.392836e-01
9	 1	 15	 flanked	 rf	 5	 0.268300	 2.000000	 flanked_rf_freq_5_amplitude_0.2683_rep_4_t_N_2.0.png	 N	 t	 t	 n.a.	 6.381490e-01
9	 1	 16	 flanked	 rf	 3	 0.165000	 2.000000	 flanked_rf_freq_3_amplitude_0.165_rep_1_l_N_2.0.png	 N	 l	 b	 n.a.	 8.118594e-01
9	 1	 17	 flanked	 rf	 8	 0.113300	 2.000000	 flanked_rf_freq_8_amplitude_0.1133_rep_0_l_D_2.0.png	 D	 l	 l	 n.a.	 3.493932e-01
9	 1	 18	 flanked	 rf	 3	 0.216700	 2.000000	 flanked_rf_freq_3_amplitude_0.2167_rep_0_l_D_2.0.png	 D	 l	 l	 n.a.	 4.832111e-01
9	 1	 19	 flanked	 rf	 12	 0.165000	 2.000000	 flanked_rf_freq_12_amplitude_0.165_rep_8_l_H_2.0.png	 H	 l	 l	 n.a.	 2.984859e-01
9	 1	 20	 flanked	 rf	 12	 0.165000	 2.000000	 flanked_rf_freq_12_amplitude_0.165_rep_9_b_H_2.0.png	 H	 b	 b	 n.a.	 3.764452e-01
9	 1	 21	 flanked	 rf	 8	 0.216700	 2.000000	 flanked_rf_freq_8_amplitude_0.2167_rep_4_l_N_2.0.png	 N	 l	 l	 n.a.	 3.566078e-01
9	 1	 22	 flanked	 rf	 5	 0.268300	 2.000000	 flanked_rf_freq_5_amplitude_0.2683_rep_5_l_K_2.0.png	 K	 l	 l	 n.a.	 3.263346e-01
9	 1	 23	 flanked	 rf	 4	 0.061700	 2.000000	 flanked_rf_freq_4_amplitude_0.0617_rep_6_b_N_2.0.png	 N	 b	 b	 n.a.	 6.500586e-01
9	 1	 24	 flanked	 rf	 4	 0.113300	 2.000000	 flanked_rf_freq_4_amplitude_0.1133_rep_6_l_D_2.0.png	 D	 l	 b	 n.a.	 1.295058e+00
9	 1	 25	 flanked	 rf	 5	 0.010000	 2.000000	 flanked_rf_freq_5_amplitude_0.01_rep_9_r_D_2.0.png	 D	 r	 l	 n.a.	 7.475067e-01
9	 1	 26	 flanked	 rf	 5	 0.165000	 2.000000	 flanked_rf_freq_5_amplitude_0.165_rep_5_t_D_2.0.png	 D	 t	 b	 n.a.	 7.540736e-01
9	 1	 27	 flanked	 rf	 4	 0.268300	 2.000000	 flanked_rf_freq_4_amplitude_0.2683_rep_0_t_K_2.0.png	 K	 t	 t	 n.a.	 5.437823e-01
9	 1	 28	 flanked	 rf	 3	 0.010000	 2.000000	 flanked_rf_freq_3_amplitude_0.01_rep_2_t_D_2.0.png	 D	 t	 b	 n.a.	 4.312996e-01
9	 1	 29	 flanked	 rf	 12	 0.113300	 2.000000	 flanked_rf_freq_12_amplitude_0.1133_rep_0_b_N_2.0.png	 N	 b	 t	 n.a.	 6.382842e-01
9	 1	 30	 flanked	 rf	 8	 0.061700	 2.000000	 flanked_rf_freq_8_amplitude_0.0617_rep_4_l_K_2.0.png	 K	 l	 b	 n.a.	 5.274011e-01
9	 1	 31	 flanked	 rf	 2	 0.268300	 2.000000	 flanked_rf_freq_2_amplitude_0.2683_rep_4_r_N_2.0.png	 N	 r	 b	 n.a.	 6.374591e-01
9	 1	 32	 flanked	 rf	 5	 0.320000	 2.000000	 flanked_rf_freq_5_amplitude_0.32_rep_7_t_D_2.0.png	 D	 t	 t	 n.a.	 4.186547e-01
9	 1	 33	 flanked	 rf	 2	 0.061700	 2.000000	 flanked_rf_freq_2_amplitude_0.0617_rep_5_t_K_2.0.png	 K	 t	 t	 n.a.	 4.525613e-01
9	 1	 34	 flanked	 rf	 2	 0.216700	 2.000000	 flanked_rf_freq_2_amplitude_0.2167_rep_4_t_N_2.0.png	 N	 t	 t	 n.a.	 4.880061e-01
9	 1	 35	 flanked	 rf	 5	 0.165000	 2.000000	 flanked_rf_freq_5_amplitude_0.165_rep_1_r_N_2.0.png	 N	 r	 t	 n.a.	 9.544740e-01
9	 1	 36	 flanked	 rf	 5	 0.010000	 2.000000	 flanked_rf_freq_5_amplitude_0.01_rep_6_t_H_2.0.png	 H	 t	 t	 n.a.	 7.982131e-01
9	 1	 37	 flanked	 rf	 4	 0.320000	 2.000000	 flanked_rf_freq_4_amplitude_0.32_rep_5_t_N_2.0.png	 N	 t	 t	 n.a.	 5.158370e-01
9	 1	 38	 flanked	 rf	 12	 0.216700	 2.000000	 flanked_rf_freq_12_amplitude_0.2167_rep_0_t_K_2.0.png	 K	 t	 t	 n.a.	 4.429462e-01
9	 1	 39	 flanked	 rf	 4	 0.216700	 2.000000	 flanked_rf_freq_4_amplitude_0.2167_rep_2_t_N_2.0.png	 N	 t	 r	 n.a.	 1.239396e+00
9	 1	 40	 flanked	 rf	 3	 0.320000	 2.000000	 flanked_rf_freq_3_amplitude_0.32_rep_9_t_N_2.0.png	 N	 t	 t	 n.a.	 2.970731e-01
9	 1	 41	 flanked	 rf	 12	 0.113300	 2.000000	 flanked_rf_freq_12_amplitude_0.1133_rep_2_l_H_2.0.png	 H	 l	 l	 n.a.	 3.900071e-01
9	 1	 42	 flanked	 rf	 2	 0.061700	 2.000000	 flanked_rf_freq_2_amplitude_0.0617_rep_1_r_D_2.0.png	 D	 r	 l	 n.a.	 1.347104e+00
9	 1	 43	 flanked	 rf	 2	 0.010000	 2.000000	 flanked_rf_freq_2_amplitude_0.01_rep_0_t_D_2.0.png	 D	 t	 t	 n.a.	 7.950895e-01
9	 1	 44	 flanked	 rf	 5	 0.113300	 2.000000	 flanked_rf_freq_5_amplitude_0.1133_rep_0_t_K_2.0.png	 K	 t	 t	 n.a.	 5.680217e-01
9	 1	 45	 flanked	 rf	 5	 0.061700	 2.000000	 flanked_rf_freq_5_amplitude_0.0617_rep_9_l_K_2.0.png	 K	 l	 l	 n.a.	 7.771298e-01
9	 1	 46	 flanked	 rf	 2	 0.165000	 2.000000	 flanked_rf_freq_2_amplitude_0.165_rep_4_r_N_2.0.png	 N	 r	 l	 n.a.	 5.359707e-01
9	 1	 47	 flanked	 rf	 8	 0.216700	 2.000000	 flanked_rf_freq_8_amplitude_0.2167_rep_3_l_K_2.0.png	 K	 l	 l	 n.a.	 3.888756e-01
9	 1	 48	 flanked	 rf	 4	 0.113300	 2.000000	 flanked_rf_freq_4_amplitude_0.1133_rep_5_l_K_2.0.png	 K	 l	 l	 n.a.	 3.880733e-01
9	 1	 49	 flanked	 rf	 2	 0.216700	 2.000000	 flanked_rf_freq_2_amplitude_0.2167_rep_9_t_N_2.0.png	 N	 t	 l	 n.a.	 4.175608e-01
9	 1	 50	 flanked	 rf	 3	 0.320000	 2.000000	 flanked_rf_freq_3_amplitude_0.32_rep_6_l_H_2.0.png	 H	 l	 l	 n.a.	 3.803566e-01
9	 1	 51	 flanked	 rf	 12	 0.320000	 2.000000	 flanked_rf_freq_12_amplitude_0.32_rep_8_b_N_2.0.png	 N	 b	 b	 n.a.	 2.947307e-01
9	 1	 52	 flanked	 rf	 12	 0.165000	 2.000000	 flanked_rf_freq_12_amplitude_0.165_rep_1_r_H_2.0.png	 H	 r	 r	 n.a.	 3.440614e-01
9	 1	 53	 flanked	 rf	 4	 0.216700	 2.000000	 flanked_rf_freq_4_amplitude_0.2167_rep_0_r_K_2.0.png	 K	 r	 b	 n.a.	 4.275651e-01
9	 1	 54	 flanked	 rf	 5	 0.216700	 2.000000	 flanked_rf_freq_5_amplitude_0.2167_rep_6_t_K_2.0.png	 K	 t	 b	 n.a.	 3.647318e-01
9	 1	 55	 flanked	 rf	 2	 0.320000	 2.000000	 flanked_rf_freq_2_amplitude_0.32_rep_3_r_D_2.0.png	 D	 r	 b	 n.a.	 1.134790e+00
9	 1	 56	 flanked	 rf	 2	 0.216700	 2.000000	 flanked_rf_freq_2_amplitude_0.2167_rep_2_b_D_2.0.png	 D	 b	 b	 n.a.	 3.591942e-01
9	 1	 57	 flanked	 rf	 2	 0.320000	 2.000000	 flanked_rf_freq_2_amplitude_0.32_rep_0_t_H_2.0.png	 H	 t	 b	 n.a.	 3.660161e-01
9	 1	 58	 flanked	 rf	 8	 0.268300	 2.000000	 flanked_rf_freq_8_amplitude_0.2683_rep_5_b_D_2.0.png	 D	 b	 b	 n.a.	 2.453000e-01
9	 1	 59	 flanked	 rf	 2	 0.010000	 2.000000	 flanked_rf_freq_2_amplitude_0.01_rep_2_r_N_2.0.png	 N	 r	 b	 n.a.	 5.496855e-01
9	 1	 60	 flanked	 rf	 5	 0.268300	 2.000000	 flanked_rf_freq_5_amplitude_0.2683_rep_0_b_N_2.0.png	 N	 b	 b	 n.a.	 3.760222e-01
9	 1	 61	 flanked	 rf	 4	 0.010000	 2.000000	 flanked_rf_freq_4_amplitude_0.01_rep_0_l_D_2.0.png	 D	 l	 b	 n.a.	 5.212029e-01
9	 1	 62	 flanked	 rf	 4	 0.165000	 2.000000	 flanked_rf_freq_4_amplitude_0.165_rep_7_r_D_2.0.png	 D	 r	 b	 n.a.	 8.926774e-01
9	 1	 63	 flanked	 rf	 3	 0.216700	 2.000000	 flanked_rf_freq_3_amplitude_0.2167_rep_5_b_N_2.0.png	 N	 b	 r	 n.a.	 1.163022e+00
9	 1	 64	 flanked	 rf	 12	 0.268300	 2.000000	 flanked_rf_freq_12_amplitude_0.2683_rep_5_b_K_2.0.png	 K	 b	 b	 n.a.	 2.816743e-01
9	 1	 65	 flanked	 rf	 8	 0.320000	 2.000000	 flanked_rf_freq_8_amplitude_0.32_rep_0_l_H_2.0.png	 H	 l	 l	 n.a.	 3.597031e-01
9	 1	 66	 flanked	 rf	 5	 0.216700	 2.000000	 flanked_rf_freq_5_amplitude_0.2167_rep_9_b_D_2.0.png	 D	 b	 b	 n.a.	 3.345764e-01
9	 1	 67	 flanked	 rf	 2	 0.061700	 2.000000	 flanked_rf_freq_2_amplitude_0.0617_rep_8_b_K_2.0.png	 K	 b	 b	 n.a.	 3.630740e-01
9	 1	 68	 flanked	 rf	 4	 0.320000	 2.000000	 flanked_rf_freq_4_amplitude_0.32_rep_4_r_K_2.0.png	 K	 r	 r	 n.a.	 2.980320e-01
9	 1	 69	 flanked	 rf	 3	 0.010000	 2.000000	 flanked_rf_freq_3_amplitude_0.01_rep_4_r_D_2.0.png	 D	 r	 t	 n.a.	 3.107394e-01
9	 1	 70	 flanked	 rf	 2	 0.320000	 2.000000	 flanked_rf_freq_2_amplitude_0.32_rep_2_l_N_2.0.png	 N	 l	 l	 n.a.	 4.568580e-01
9	 1	 71	 flanked	 rf	 3	 0.268300	 2.000000	 flanked_rf_freq_3_amplitude_0.2683_rep_0_b_K_2.0.png	 K	 b	 b	 n.a.	 5.039892e-01
9	 1	 72	 flanked	 rf	 12	 0.320000	 2.000000	 flanked_rf_freq_12_amplitude_0.32_rep_1_b_H_2.0.png	 H	 b	 b	 n.a.	 2.340698e-01
9	 1	 73	 flanked	 rf	 8	 0.320000	 2.000000	 flanked_rf_freq_8_amplitude_0.32_rep_8_r_N_2.0.png	 N	 r	 r	 n.a.	 2.572466e-01
9	 1	 74	 flanked	 rf	 3	 0.165000	 2.000000	 flanked_rf_freq_3_amplitude_0.165_rep_4_r_K_2.0.png	 K	 r	 r	 n.a.	 3.852551e-01
9	 1	 75	 flanked	 rf	 12	 0.113300	 2.000000	 flanked_rf_freq_12_amplitude_0.1133_rep_1_b_N_2.0.png	 N	 b	 b	 n.a.	 3.120287e-01
9	 1	 76	 flanked	 rf	 8	 0.113300	 2.000000	 flanked_rf_freq_8_amplitude_0.1133_rep_4_r_H_2.0.png	 H	 r	 b	 n.a.	 6.197924e-01
9	 1	 77	 flanked	 rf	 4	 0.165000	 2.000000	 flanked_rf_freq_4_amplitude_0.165_rep_1_l_N_2.0.png	 N	 l	 l	 n.a.	 5.139647e-01
9	 1	 78	 flanked	 rf	 8	 0.010000	 2.000000	 flanked_rf_freq_8_amplitude_0.01_rep_4_r_H_2.0.png	 H	 r	 b	 n.a.	 3.408542e-01
9	 1	 79	 flanked	 rf	 3	 0.165000	 2.000000	 flanked_rf_freq_3_amplitude_0.165_rep_6_l_D_2.0.png	 D	 l	 t	 n.a.	 7.085641e-01
9	 1	 80	 flanked	 rf	 3	 0.268300	 2.000000	 flanked_rf_freq_3_amplitude_0.2683_rep_2_l_K_2.0.png	 K	 l	 l	 n.a.	 5.234098e-01
9	 1	 81	 flanked	 rf	 2	 0.268300	 2.000000	 flanked_rf_freq_2_amplitude_0.2683_rep_9_b_H_2.0.png	 H	 b	 b	 n.a.	 1.069278e+00
9	 1	 82	 flanked	 rf	 5	 0.165000	 2.000000	 flanked_rf_freq_5_amplitude_0.165_rep_9_b_H_2.0.png	 H	 b	 b	 n.a.	 1.120878e+00
9	 1	 83	 flanked	 rf	 4	 0.165000	 2.000000	 flanked_rf_freq_4_amplitude_0.165_rep_2_t_N_2.0.png	 N	 t	 t	 n.a.	 5.090314e-01
9	 1	 84	 flanked	 rf	 8	 0.061700	 2.000000	 flanked_rf_freq_8_amplitude_0.0617_rep_7_r_K_2.0.png	 K	 r	 r	 n.a.	 2.782146e-01
9	 1	 85	 flanked	 rf	 8	 0.320000	 2.000000	 flanked_rf_freq_8_amplitude_0.32_rep_3_r_N_2.0.png	 N	 r	 r	 n.a.	 2.892286e-01
9	 1	 86	 flanked	 rf	 8	 0.010000	 2.000000	 flanked_rf_freq_8_amplitude_0.01_rep_6_l_N_2.0.png	 N	 l	 t	 n.a.	 6.825270e-01
9	 1	 87	 flanked	 rf	 4	 0.010000	 2.000000	 flanked_rf_freq_4_amplitude_0.01_rep_1_r_H_2.0.png	 H	 r	 t	 n.a.	 3.859242e-01
9	 1	 88	 flanked	 rf	 8	 0.320000	 2.000000	 flanked_rf_freq_8_amplitude_0.32_rep_2_r_H_2.0.png	 H	 r	 r	 n.a.	 2.259495e-01
9	 1	 89	 flanked	 rf	 5	 0.216700	 2.000000	 flanked_rf_freq_5_amplitude_0.2167_rep_4_t_K_2.0.png	 K	 t	 b	 n.a.	 2.699618e-02
9	 1	 90	 flanked	 rf	 12	 0.113300	 2.000000	 flanked_rf_freq_12_amplitude_0.1133_rep_9_b_K_2.0.png	 K	 b	 b	 n.a.	 3.776211e-01
9	 1	 91	 flanked	 rf	 3	 0.061700	 2.000000	 flanked_rf_freq_3_amplitude_0.0617_rep_5_b_N_2.0.png	 N	 b	 t	 n.a.	 4.266887e-01
9	 1	 92	 flanked	 rf	 12	 0.216700	 2.000000	 flanked_rf_freq_12_amplitude_0.2167_rep_7_r_H_2.0.png	 H	 r	 r	 n.a.	 2.036946e-01
9	 1	 93	 flanked	 rf	 2	 0.268300	 2.000000	 flanked_rf_freq_2_amplitude_0.2683_rep_7_r_N_2.0.png	 N	 r	 b	 n.a.	 5.576874e-01
9	 1	 94	 flanked	 rf	 2	 0.320000	 2.000000	 flanked_rf_freq_2_amplitude_0.32_rep_7_l_D_2.0.png	 D	 l	 l	 n.a.	 3.123453e-01
9	 1	 95	 flanked	 rf	 4	 0.268300	 2.000000	 flanked_rf_freq_4_amplitude_0.2683_rep_3_l_N_2.0.png	 N	 l	 l	 n.a.	 2.729973e-01
9	 1	 96	 flanked	 rf	 12	 0.216700	 2.000000	 flanked_rf_freq_12_amplitude_0.2167_rep_8_t_N_2.0.png	 N	 t	 r	 n.a.	 6.466903e-01
9	 1	 97	 flanked	 rf	 3	 0.061700	 2.000000	 flanked_rf_freq_3_amplitude_0.0617_rep_7_l_K_2.0.png	 K	 l	 t	 n.a.	 5.401630e-01
9	 1	 98	 flanked	 rf	 5	 0.010000	 2.000000	 flanked_rf_freq_5_amplitude_0.01_rep_1_r_K_2.0.png	 K	 r	 r	 n.a.	 5.205084e-01
9	 1	 99	 flanked	 rf	 8	 0.165000	 2.000000	 flanked_rf_freq_8_amplitude_0.165_rep_4_l_H_2.0.png	 H	 l	 b	 n.a.	 4.773703e-01
9	 1	 100	 flanked	 rf	 12	 0.320000	 2.000000	 flanked_rf_freq_12_amplitude_0.32_rep_9_t_D_2.0.png	 D	 t	 t	 n.a.	 2.973346e-01
9	 1	 101	 flanked	 rf	 4	 0.216700	 2.000000	 flanked_rf_freq_4_amplitude_0.2167_rep_7_b_K_2.0.png	 K	 b	 b	 n.a.	 5.195644e-01
9	 1	 102	 flanked	 rf	 4	 0.320000	 2.000000	 flanked_rf_freq_4_amplitude_0.32_rep_0_b_N_2.0.png	 N	 b	 b	 n.a.	 5.596934e-01
9	 1	 103	 flanked	 rf	 2	 0.165000	 2.000000	 flanked_rf_freq_2_amplitude_0.165_rep_0_t_N_2.0.png	 N	 t	 t	 n.a.	 4.088829e-01
9	 1	 104	 flanked	 rf	 12	 0.216700	 2.000000	 flanked_rf_freq_12_amplitude_0.2167_rep_2_b_N_2.0.png	 N	 b	 b	 n.a.	 2.588742e-01
9	 1	 105	 flanked	 rf	 3	 0.216700	 2.000000	 flanked_rf_freq_3_amplitude_0.2167_rep_3_t_N_2.0.png	 N	 t	 b	 n.a.	 3.658174e-01
9	 1	 106	 flanked	 rf	 3	 0.216700	 2.000000	 flanked_rf_freq_3_amplitude_0.2167_rep_4_l_D_2.0.png	 D	 l	 l	 n.a.	 3.642506e-01
9	 1	 107	 flanked	 rf	 2	 0.268300	 2.000000	 flanked_rf_freq_2_amplitude_0.2683_rep_2_b_N_2.0.png	 N	 b	 b	 n.a.	 5.007851e-01
9	 1	 108	 flanked	 rf	 4	 0.320000	 2.000000	 flanked_rf_freq_4_amplitude_0.32_rep_6_r_N_2.0.png	 N	 r	 r	 n.a.	 2.980439e-01
9	 1	 109	 flanked	 rf	 5	 0.165000	 2.000000	 flanked_rf_freq_5_amplitude_0.165_rep_0_r_D_2.0.png	 D	 r	 r	 n.a.	 2.713157e-01
9	 1	 110	 flanked	 rf	 4	 0.010000	 2.000000	 flanked_rf_freq_4_amplitude_0.01_rep_5_l_H_2.0.png	 H	 l	 t	 n.a.	 3.240645e-01
9	 1	 111	 flanked	 rf	 8	 0.268300	 2.000000	 flanked_rf_freq_8_amplitude_0.2683_rep_7_l_N_2.0.png	 N	 l	 l	 n.a.	 2.989858e-01
9	 1	 112	 flanked	 rf	 2	 0.216700	 2.000000	 flanked_rf_freq_2_amplitude_0.2167_rep_6_l_K_2.0.png	 K	 l	 t	 n.a.	 7.982080e-01
9	 1	 113	 flanked	 rf	 2	 0.216700	 2.000000	 flanked_rf_freq_2_amplitude_0.2167_rep_3_r_N_2.0.png	 N	 r	 r	 n.a.	 3.777780e-01
9	 1	 114	 flanked	 rf	 8	 0.010000	 2.000000	 flanked_rf_freq_8_amplitude_0.01_rep_1_t_N_2.0.png	 N	 t	 b	 n.a.	 6.730357e-01
9	 1	 115	 flanked	 rf	 3	 0.010000	 2.000000	 flanked_rf_freq_3_amplitude_0.01_rep_1_r_K_2.0.png	 K	 r	 b	 n.a.	 4.321656e-01
9	 1	 116	 flanked	 rf	 2	 0.320000	 2.000000	 flanked_rf_freq_2_amplitude_0.32_rep_1_r_H_2.0.png	 H	 r	 r	 n.a.	 3.469203e-01
9	 1	 117	 flanked	 rf	 5	 0.113300	 2.000000	 flanked_rf_freq_5_amplitude_0.1133_rep_1_b_N_2.0.png	 N	 b	 t	 n.a.	 3.412988e-01
9	 1	 118	 flanked	 rf	 2	 0.061700	 2.000000	 flanked_rf_freq_2_amplitude_0.0617_rep_0_t_N_2.0.png	 N	 t	 l	 n.a.	 3.420675e-01
9	 1	 119	 flanked	 rf	 4	 0.165000	 2.000000	 flanked_rf_freq_4_amplitude_0.165_rep_6_r_K_2.0.png	 K	 r	 r	 n.a.	 4.958456e-01
9	 1	 120	 flanked	 rf	 3	 0.216700	 2.000000	 flanked_rf_freq_3_amplitude_0.2167_rep_2_r_D_2.0.png	 D	 r	 r	 n.a.	 4.600638e-01
9	 1	 121	 flanked	 rf	 8	 0.320000	 2.000000	 flanked_rf_freq_8_amplitude_0.32_rep_1_t_N_2.0.png	 N	 t	 t	 n.a.	 3.338294e-01
9	 1	 122	 flanked	 rf	 4	 0.268300	 2.000000	 flanked_rf_freq_4_amplitude_0.2683_rep_8_b_K_2.0.png	 K	 b	 b	 n.a.	 3.950318e-01
9	 1	 123	 flanked	 rf	 4	 0.010000	 2.000000	 flanked_rf_freq_4_amplitude_0.01_rep_8_b_H_2.0.png	 H	 b	 t	 n.a.	 3.182996e-01
9	 1	 124	 flanked	 rf	 4	 0.113300	 2.000000	 flanked_rf_freq_4_amplitude_0.1133_rep_8_b_D_2.0.png	 D	 b	 t	 n.a.	 7.281900e-01
9	 1	 125	 flanked	 rf	 5	 0.165000	 2.000000	 flanked_rf_freq_5_amplitude_0.165_rep_7_b_N_2.0.png	 N	 b	 l	 n.a.	 6.736944e-01
9	 1	 126	 flanked	 rf	 3	 0.268300	 2.000000	 flanked_rf_freq_3_amplitude_0.2683_rep_9_r_K_2.0.png	 K	 r	 r	 n.a.	 2.638037e-01
9	 1	 127	 flanked	 rf	 5	 0.113300	 2.000000	 flanked_rf_freq_5_amplitude_0.1133_rep_6_l_D_2.0.png	 D	 l	 t	 n.a.	 4.241429e-01
9	 1	 128	 flanked	 rf	 2	 0.216700	 2.000000	 flanked_rf_freq_2_amplitude_0.2167_rep_7_l_K_2.0.png	 K	 l	 t	 n.a.	 3.714965e-01
9	 1	 129	 flanked	 rf	 2	 0.165000	 2.000000	 flanked_rf_freq_2_amplitude_0.165_rep_6_l_H_2.0.png	 H	 l	 t	 n.a.	 5.142982e-01
9	 1	 130	 flanked	 rf	 8	 0.216700	 2.000000	 flanked_rf_freq_8_amplitude_0.2167_rep_5_l_H_2.0.png	 H	 l	 l	 n.a.	 3.591775e-01
9	 1	 131	 flanked	 rf	 8	 0.010000	 2.000000	 flanked_rf_freq_8_amplitude_0.01_rep_0_t_H_2.0.png	 H	 t	 b	 n.a.	 7.089789e-01
9	 1	 132	 flanked	 rf	 12	 0.061700	 2.000000	 flanked_rf_freq_12_amplitude_0.0617_rep_9_l_H_2.0.png	 H	 l	 l	 n.a.	 2.664762e-01
9	 1	 133	 flanked	 rf	 5	 0.113300	 2.000000	 flanked_rf_freq_5_amplitude_0.1133_rep_5_b_D_2.0.png	 D	 b	 t	 n.a.	 1.282092e+00
9	 1	 134	 flanked	 rf	 3	 0.268300	 2.000000	 flanked_rf_freq_3_amplitude_0.2683_rep_4_t_N_2.0.png	 N	 t	 b	 n.a.	 5.671744e-01
9	 1	 135	 flanked	 rf	 5	 0.061700	 2.000000	 flanked_rf_freq_5_amplitude_0.0617_rep_6_b_D_2.0.png	 D	 b	 t	 n.a.	 5.459012e-01
9	 1	 136	 flanked	 rf	 3	 0.113300	 2.000000	 flanked_rf_freq_3_amplitude_0.1133_rep_2_l_K_2.0.png	 K	 l	 l	 n.a.	 4.452480e-01
9	 1	 137	 flanked	 rf	 5	 0.216700	 2.000000	 flanked_rf_freq_5_amplitude_0.2167_rep_5_r_H_2.0.png	 H	 r	 r	 n.a.	 3.542400e-01
9	 1	 138	 flanked	 rf	 5	 0.010000	 2.000000	 flanked_rf_freq_5_amplitude_0.01_rep_7_r_H_2.0.png	 H	 r	 b	 n.a.	 5.402890e-01
9	 1	 139	 flanked	 rf	 3	 0.165000	 2.000000	 flanked_rf_freq_3_amplitude_0.165_rep_7_r_K_2.0.png	 K	 r	 t	 n.a.	 6.907072e-01
9	 1	 140	 flanked	 rf	 8	 0.320000	 2.000000	 flanked_rf_freq_8_amplitude_0.32_rep_4_b_D_2.0.png	 D	 b	 b	 n.a.	 3.034146e-01
9	 1	 141	 flanked	 rf	 12	 0.320000	 2.000000	 flanked_rf_freq_12_amplitude_0.32_rep_4_r_D_2.0.png	 D	 r	 r	 n.a.	 2.983644e-01
9	 1	 142	 flanked	 rf	 5	 0.320000	 2.000000	 flanked_rf_freq_5_amplitude_0.32_rep_4_t_H_2.0.png	 H	 t	 t	 n.a.	 2.651379e-01
9	 1	 143	 flanked	 rf	 3	 0.113300	 2.000000	 flanked_rf_freq_3_amplitude_0.1133_rep_7_r_D_2.0.png	 D	 r	 t	 n.a.	 5.135899e-01
9	 1	 144	 flanked	 rf	 12	 0.061700	 2.000000	 flanked_rf_freq_12_amplitude_0.0617_rep_0_b_D_2.0.png	 D	 b	 t	 n.a.	 3.174943e-01
9	 1	 145	 flanked	 rf	 3	 0.165000	 2.000000	 flanked_rf_freq_3_amplitude_0.165_rep_5_r_H_2.0.png	 H	 r	 t	 n.a.	 5.161751e-01
9	 1	 146	 flanked	 rf	 4	 0.165000	 2.000000	 flanked_rf_freq_4_amplitude_0.165_rep_3_r_H_2.0.png	 H	 r	 t	 n.a.	 1.040348e+00
9	 1	 147	 flanked	 rf	 3	 0.320000	 2.000000	 flanked_rf_freq_3_amplitude_0.32_rep_8_t_H_2.0.png	 H	 t	 b	 n.a.	 4.872460e-01
9	 1	 148	 flanked	 rf	 12	 0.268300	 2.000000	 flanked_rf_freq_12_amplitude_0.2683_rep_1_b_H_2.0.png	 H	 b	 b	 n.a.	 2.957220e-01
9	 1	 149	 flanked	 rf	 12	 0.165000	 2.000000	 flanked_rf_freq_12_amplitude_0.165_rep_4_t_N_2.0.png	 N	 t	 b	 n.a.	 4.986856e-01
9	 1	 150	 flanked	 rf	 8	 0.061700	 2.000000	 flanked_rf_freq_8_amplitude_0.0617_rep_3_b_H_2.0.png	 H	 b	 b	 n.a.	 4.952166e-01
9	 1	 151	 flanked	 rf	 3	 0.268300	 2.000000	 flanked_rf_freq_3_amplitude_0.2683_rep_1_r_N_2.0.png	 N	 r	 l	 n.a.	 7.115884e-01
9	 1	 152	 flanked	 rf	 2	 0.216700	 2.000000	 flanked_rf_freq_2_amplitude_0.2167_rep_1_r_K_2.0.png	 K	 r	 t	 n.a.	 6.169928e-01
9	 1	 153	 flanked	 rf	 5	 0.320000	 2.000000	 flanked_rf_freq_5_amplitude_0.32_rep_0_l_K_2.0.png	 K	 l	 l	 n.a.	 3.549575e-01
9	 1	 154	 flanked	 rf	 2	 0.113300	 2.000000	 flanked_rf_freq_2_amplitude_0.1133_rep_9_l_H_2.0.png	 H	 l	 l	 n.a.	 8.849114e-01
9	 1	 155	 flanked	 rf	 8	 0.268300	 2.000000	 flanked_rf_freq_8_amplitude_0.2683_rep_8_b_H_2.0.png	 H	 b	 b	 n.a.	 2.992732e-01
9	 1	 156	 flanked	 rf	 3	 0.061700	 2.000000	 flanked_rf_freq_3_amplitude_0.0617_rep_8_t_H_2.0.png	 H	 t	 l	 n.a.	 6.049807e-01
9	 1	 157	 flanked	 rf	 4	 0.113300	 2.000000	 flanked_rf_freq_4_amplitude_0.1133_rep_3_r_K_2.0.png	 K	 r	 r	 n.a.	 9.153415e-01
9	 1	 158	 flanked	 rf	 4	 0.165000	 2.000000	 flanked_rf_freq_4_amplitude_0.165_rep_9_b_D_2.0.png	 D	 b	 b	 n.a.	 4.100856e-01
9	 1	 159	 flanked	 rf	 2	 0.320000	 2.000000	 flanked_rf_freq_2_amplitude_0.32_rep_9_t_K_2.0.png	 K	 t	 b	 n.a.	 8.252974e-01
9	 1	 160	 flanked	 rf	 12	 0.010000	 2.000000	 flanked_rf_freq_12_amplitude_0.01_rep_3_l_K_2.0.png	 K	 l	 l	 n.a.	 1.263925e+00
9	 1	 161	 flanked	 rf	 12	 0.061700	 2.000000	 flanked_rf_freq_12_amplitude_0.0617_rep_4_l_N_2.0.png	 N	 l	 l	 n.a.	 9.809597e-01
9	 1	 162	 flanked	 rf	 5	 0.268300	 2.000000	 flanked_rf_freq_5_amplitude_0.2683_rep_8_b_H_2.0.png	 H	 b	 b	 n.a.	 1.081860e+00
9	 1	 163	 flanked	 rf	 2	 0.216700	 2.000000	 flanked_rf_freq_2_amplitude_0.2167_rep_0_t_N_2.0.png	 N	 t	 t	 n.a.	 1.281254e+00
9	 1	 164	 flanked	 rf	 4	 0.165000	 2.000000	 flanked_rf_freq_4_amplitude_0.165_rep_5_b_K_2.0.png	 K	 b	 b	 n.a.	 1.485678e+00
9	 1	 165	 flanked	 rf	 4	 0.061700	 2.000000	 flanked_rf_freq_4_amplitude_0.0617_rep_1_r_K_2.0.png	 K	 r	 b	 n.a.	 1.645962e+00
9	 1	 166	 flanked	 rf	 12	 0.320000	 2.000000	 flanked_rf_freq_12_amplitude_0.32_rep_0_l_D_2.0.png	 D	 l	 l	 n.a.	 6.778000e-01
9	 1	 167	 flanked	 rf	 5	 0.216700	 2.000000	 flanked_rf_freq_5_amplitude_0.2167_rep_1_t_H_2.0.png	 H	 t	 b	 n.a.	 7.339755e-01
9	 1	 168	 flanked	 rf	 2	 0.268300	 2.000000	 flanked_rf_freq_2_amplitude_0.2683_rep_5_b_H_2.0.png	 H	 b	 b	 n.a.	 6.836271e-01
9	 1	 169	 flanked	 rf	 8	 0.165000	 2.000000	 flanked_rf_freq_8_amplitude_0.165_rep_5_l_D_2.0.png	 D	 l	 l	 n.a.	 1.037456e+00
9	 1	 170	 flanked	 rf	 4	 0.165000	 2.000000	 flanked_rf_freq_4_amplitude_0.165_rep_8_r_H_2.0.png	 H	 r	 r	 n.a.	 1.117916e+00
9	 1	 171	 flanked	 rf	 2	 0.165000	 2.000000	 flanked_rf_freq_2_amplitude_0.165_rep_7_b_H_2.0.png	 H	 b	 t	 n.a.	 1.365084e+00
9	 1	 172	 flanked	 rf	 3	 0.113300	 2.000000	 flanked_rf_freq_3_amplitude_0.1133_rep_1_t_K_2.0.png	 K	 t	 b	 n.a.	 1.305267e+00
9	 1	 173	 flanked	 rf	 8	 0.165000	 2.000000	 flanked_rf_freq_8_amplitude_0.165_rep_1_b_K_2.0.png	 K	 b	 b	 n.a.	 1.267844e+00
9	 1	 174	 flanked	 rf	 2	 0.165000	 2.000000	 flanked_rf_freq_2_amplitude_0.165_rep_9_l_N_2.0.png	 N	 l	 b	 n.a.	 1.875052e+00
9	 1	 175	 flanked	 rf	 5	 0.010000	 2.000000	 flanked_rf_freq_5_amplitude_0.01_rep_4_b_N_2.0.png	 N	 b	 t	 n.a.	 1.316913e+00
9	 1	 176	 flanked	 rf	 3	 0.165000	 2.000000	 flanked_rf_freq_3_amplitude_0.165_rep_8_b_H_2.0.png	 H	 b	 t	 n.a.	 1.555156e+00
9	 1	 177	 flanked	 rf	 8	 0.320000	 2.000000	 flanked_rf_freq_8_amplitude_0.32_rep_7_b_H_2.0.png	 H	 b	 b	 n.a.	 1.194880e+00
9	 1	 178	 flanked	 rf	 2	 0.165000	 2.000000	 flanked_rf_freq_2_amplitude_0.165_rep_3_b_K_2.0.png	 K	 b	 b	 n.a.	 1.411689e+00
9	 1	 179	 flanked	 rf	 12	 0.010000	 2.000000	 flanked_rf_freq_12_amplitude_0.01_rep_0_t_D_2.0.png	 D	 t	 t	 n.a.	 9.939785e-01
9	 1	 180	 flanked	 rf	 5	 0.320000	 2.000000	 flanked_rf_freq_5_amplitude_0.32_rep_9_r_N_2.0.png	 N	 r	 r	 n.a.	 1.402921e+00
9	 1	 181	 flanked	 rf	 8	 0.010000	 2.000000	 flanked_rf_freq_8_amplitude_0.01_rep_9_b_K_2.0.png	 K	 b	 b	 n.a.	 1.565378e+00
9	 1	 182	 flanked	 rf	 2	 0.216700	 2.000000	 flanked_rf_freq_2_amplitude_0.2167_rep_8_r_H_2.0.png	 H	 r	 t	 n.a.	 1.766282e+00
9	 1	 183	 flanked	 rf	 12	 0.010000	 2.000000	 flanked_rf_freq_12_amplitude_0.01_rep_9_l_K_2.0.png	 K	 l	 b	 n.a.	 1.082154e+00
9	 1	 184	 flanked	 rf	 2	 0.216700	 2.000000	 flanked_rf_freq_2_amplitude_0.2167_rep_5_l_H_2.0.png	 H	 l	 l	 n.a.	 6.047609e-01
9	 1	 185	 flanked	 rf	 3	 0.010000	 2.000000	 flanked_rf_freq_3_amplitude_0.01_rep_7_t_H_2.0.png	 H	 t	 t	 n.a.	 1.122539e+00
9	 1	 186	 flanked	 rf	 4	 0.010000	 2.000000	 flanked_rf_freq_4_amplitude_0.01_rep_3_t_K_2.0.png	 K	 t	 t	 n.a.	 1.218784e+00
9	 1	 187	 flanked	 rf	 8	 0.268300	 2.000000	 flanked_rf_freq_8_amplitude_0.2683_rep_0_b_D_2.0.png	 D	 b	 b	 n.a.	 1.009971e+00
9	 1	 188	 flanked	 rf	 8	 0.061700	 2.000000	 flanked_rf_freq_8_amplitude_0.0617_rep_8_l_H_2.0.png	 H	 l	 b	 n.a.	 9.619380e-01
9	 1	 189	 flanked	 rf	 12	 0.268300	 2.000000	 flanked_rf_freq_12_amplitude_0.2683_rep_8_l_D_2.0.png	 D	 l	 l	 n.a.	 4.793302e-01
9	 1	 190	 flanked	 rf	 4	 0.216700	 2.000000	 flanked_rf_freq_4_amplitude_0.2167_rep_1_l_D_2.0.png	 D	 l	 t	 n.a.	 6.271309e-01
9	 1	 191	 flanked	 rf	 3	 0.010000	 2.000000	 flanked_rf_freq_3_amplitude_0.01_rep_3_l_D_2.0.png	 D	 l	 r	 n.a.	 9.693772e-01
9	 1	 192	 flanked	 rf	 12	 0.165000	 2.000000	 flanked_rf_freq_12_amplitude_0.165_rep_7_l_H_2.0.png	 H	 l	 l	 n.a.	 7.872216e-01
9	 1	 193	 flanked	 rf	 12	 0.165000	 2.000000	 flanked_rf_freq_12_amplitude_0.165_rep_6_l_H_2.0.png	 H	 l	 l	 n.a.	 5.301088e-01
9	 1	 194	 flanked	 rf	 3	 0.268300	 2.000000	 flanked_rf_freq_3_amplitude_0.2683_rep_8_l_H_2.0.png	 H	 l	 l	 n.a.	 6.182459e-01
9	 1	 195	 flanked	 rf	 2	 0.113300	 2.000000	 flanked_rf_freq_2_amplitude_0.1133_rep_1_t_K_2.0.png	 K	 t	 t	 n.a.	 5.524594e-01
9	 1	 196	 flanked	 rf	 3	 0.113300	 2.000000	 flanked_rf_freq_3_amplitude_0.1133_rep_9_t_N_2.0.png	 N	 t	 l	 n.a.	 6.335753e-01
9	 1	 197	 flanked	 rf	 5	 0.216700	 2.000000	 flanked_rf_freq_5_amplitude_0.2167_rep_0_t_K_2.0.png	 K	 t	 t	 n.a.	 4.940802e-01
9	 1	 198	 flanked	 rf	 2	 0.165000	 2.000000	 flanked_rf_freq_2_amplitude_0.165_rep_5_b_H_2.0.png	 H	 b	 r	 n.a.	 8.716672e-01
9	 1	 199	 flanked	 rf	 4	 0.216700	 2.000000	 flanked_rf_freq_4_amplitude_0.2167_rep_8_b_H_2.0.png	 H	 b	 b	 n.a.	 6.809359e-01
9	 1	 200	 flanked	 rf	 4	 0.061700	 2.000000	 flanked_rf_freq_4_amplitude_0.0617_rep_7_b_K_2.0.png	 K	 b	 b	 n.a.	 9.830607e-01
9	 1	 201	 flanked	 rf	 5	 0.268300	 2.000000	 flanked_rf_freq_5_amplitude_0.2683_rep_7_r_K_2.0.png	 K	 r	 r	 n.a.	 7.810650e-01
9	 1	 202	 flanked	 rf	 2	 0.113300	 2.000000	 flanked_rf_freq_2_amplitude_0.1133_rep_4_b_D_2.0.png	 D	 b	 t	 n.a.	 8.384974e-01
9	 1	 203	 flanked	 rf	 5	 0.061700	 2.000000	 flanked_rf_freq_5_amplitude_0.0617_rep_7_t_D_2.0.png	 D	 t	 b	 n.a.	 7.795607e-01
9	 1	 204	 flanked	 rf	 12	 0.165000	 2.000000	 flanked_rf_freq_12_amplitude_0.165_rep_0_l_H_2.0.png	 H	 l	 l	 n.a.	 4.459157e-01
9	 1	 205	 flanked	 rf	 12	 0.268300	 2.000000	 flanked_rf_freq_12_amplitude_0.2683_rep_2_b_K_2.0.png	 K	 b	 b	 n.a.	 5.084407e-01
9	 1	 206	 flanked	 rf	 12	 0.113300	 2.000000	 flanked_rf_freq_12_amplitude_0.1133_rep_3_b_H_2.0.png	 H	 b	 b	 n.a.	 3.692707e-01
9	 1	 207	 flanked	 rf	 12	 0.010000	 2.000000	 flanked_rf_freq_12_amplitude_0.01_rep_6_b_N_2.0.png	 N	 b	 t	 n.a.	 8.819908e-01
9	 1	 208	 flanked	 rf	 8	 0.320000	 2.000000	 flanked_rf_freq_8_amplitude_0.32_rep_6_b_N_2.0.png	 N	 b	 b	 n.a.	 7.805797e-01
9	 1	 209	 flanked	 rf	 5	 0.268300	 2.000000	 flanked_rf_freq_5_amplitude_0.2683_rep_1_b_H_2.0.png	 H	 b	 b	 n.a.	 7.978407e-01
9	 1	 210	 flanked	 rf	 8	 0.268300	 2.000000	 flanked_rf_freq_8_amplitude_0.2683_rep_6_l_N_2.0.png	 N	 l	 l	 n.a.	 6.036428e-01
9	 1	 211	 flanked	 rf	 8	 0.165000	 2.000000	 flanked_rf_freq_8_amplitude_0.165_rep_3_l_K_2.0.png	 K	 l	 l	 n.a.	 5.160369e-01
9	 1	 212	 flanked	 rf	 2	 0.320000	 2.000000	 flanked_rf_freq_2_amplitude_0.32_rep_8_r_H_2.0.png	 H	 r	 r	 n.a.	 4.549192e-01
9	 1	 213	 flanked	 rf	 12	 0.216700	 2.000000	 flanked_rf_freq_12_amplitude_0.2167_rep_6_t_K_2.0.png	 K	 t	 t	 n.a.	 3.750912e-01
9	 1	 214	 flanked	 rf	 2	 0.268300	 2.000000	 flanked_rf_freq_2_amplitude_0.2683_rep_0_l_H_2.0.png	 H	 l	 l	 n.a.	 3.599803e-01
9	 1	 215	 flanked	 rf	 4	 0.268300	 2.000000	 flanked_rf_freq_4_amplitude_0.2683_rep_1_l_D_2.0.png	 D	 l	 l	 n.a.	 4.366525e-01
9	 1	 216	 flanked	 rf	 8	 0.113300	 2.000000	 flanked_rf_freq_8_amplitude_0.1133_rep_5_b_H_2.0.png	 H	 b	 b	 n.a.	 4.114933e-01
9	 1	 217	 flanked	 rf	 8	 0.061700	 2.000000	 flanked_rf_freq_8_amplitude_0.0617_rep_1_l_N_2.0.png	 N	 l	 t	 n.a.	 3.199754e-01
9	 1	 218	 flanked	 rf	 3	 0.320000	 2.000000	 flanked_rf_freq_3_amplitude_0.32_rep_0_b_K_2.0.png	 K	 b	 b	 n.a.	 4.339728e-01
9	 1	 219	 flanked	 rf	 3	 0.320000	 2.000000	 flanked_rf_freq_3_amplitude_0.32_rep_7_r_D_2.0.png	 D	 r	 r	 n.a.	 3.997584e-01
9	 1	 220	 flanked	 rf	 2	 0.010000	 2.000000	 flanked_rf_freq_2_amplitude_0.01_rep_9_b_K_2.0.png	 K	 b	 b	 n.a.	 1.249212e+00
9	 1	 221	 flanked	 rf	 4	 0.268300	 2.000000	 flanked_rf_freq_4_amplitude_0.2683_rep_7_b_D_2.0.png	 D	 b	 b	 n.a.	 1.180953e+00
9	 1	 222	 flanked	 rf	 2	 0.061700	 2.000000	 flanked_rf_freq_2_amplitude_0.0617_rep_2_t_K_2.0.png	 K	 t	 b	 n.a.	 1.332081e+00
9	 1	 223	 flanked	 rf	 5	 0.010000	 2.000000	 flanked_rf_freq_5_amplitude_0.01_rep_8_r_H_2.0.png	 H	 r	 t	 n.a.	 9.903490e-01
9	 1	 224	 flanked	 rf	 2	 0.061700	 2.000000	 flanked_rf_freq_2_amplitude_0.0617_rep_7_l_N_2.0.png	 N	 l	 b	 n.a.	 1.007694e+00
9	 1	 225	 flanked	 rf	 2	 0.010000	 2.000000	 flanked_rf_freq_2_amplitude_0.01_rep_1_b_N_2.0.png	 N	 b	 b	 n.a.	 1.532695e+00
9	 1	 226	 flanked	 rf	 8	 0.113300	 2.000000	 flanked_rf_freq_8_amplitude_0.1133_rep_6_t_H_2.0.png	 H	 t	 t	 n.a.	 1.396045e+00
9	 1	 227	 flanked	 rf	 3	 0.010000	 2.000000	 flanked_rf_freq_3_amplitude_0.01_rep_0_t_N_2.0.png	 N	 t	 t	 n.a.	 1.268960e+00
9	 1	 228	 flanked	 rf	 5	 0.113300	 2.000000	 flanked_rf_freq_5_amplitude_0.1133_rep_2_r_N_2.0.png	 N	 r	 t	 n.a.	 1.409593e+00
9	 1	 229	 flanked	 rf	 5	 0.061700	 2.000000	 flanked_rf_freq_5_amplitude_0.0617_rep_2_l_K_2.0.png	 K	 l	 l	 n.a.	 1.014608e+00
9	 1	 230	 flanked	 rf	 8	 0.216700	 2.000000	 flanked_rf_freq_8_amplitude_0.2167_rep_7_b_K_2.0.png	 K	 b	 b	 n.a.	 1.085620e+00
9	 1	 231	 flanked	 rf	 4	 0.010000	 2.000000	 flanked_rf_freq_4_amplitude_0.01_rep_7_l_K_2.0.png	 K	 l	 l	 n.a.	 1.305712e+00
9	 1	 232	 flanked	 rf	 5	 0.320000	 2.000000	 flanked_rf_freq_5_amplitude_0.32_rep_1_l_H_2.0.png	 H	 l	 l	 n.a.	 1.606370e+00
9	 1	 233	 flanked	 rf	 3	 0.165000	 2.000000	 flanked_rf_freq_3_amplitude_0.165_rep_2_t_D_2.0.png	 D	 t	 b	 n.a.	 1.433377e+00
9	 1	 234	 flanked	 rf	 2	 0.113300	 2.000000	 flanked_rf_freq_2_amplitude_0.1133_rep_6_b_N_2.0.png	 N	 b	 t	 n.a.	 1.314061e+00
9	 1	 235	 flanked	 rf	 8	 0.216700	 2.000000	 flanked_rf_freq_8_amplitude_0.2167_rep_1_b_D_2.0.png	 D	 b	 b	 n.a.	 8.853433e-01
9	 1	 236	 flanked	 rf	 12	 0.216700	 2.000000	 flanked_rf_freq_12_amplitude_0.2167_rep_9_b_H_2.0.png	 H	 b	 b	 n.a.	 1.597441e+00
9	 1	 237	 flanked	 rf	 12	 0.061700	 2.000000	 flanked_rf_freq_12_amplitude_0.0617_rep_8_t_H_2.0.png	 H	 t	 l	 n.a.	 1.699245e+00
9	 1	 238	 flanked	 rf	 8	 0.216700	 2.000000	 flanked_rf_freq_8_amplitude_0.2167_rep_9_r_D_2.0.png	 D	 r	 r	 n.a.	 1.264001e+00
9	 1	 239	 flanked	 rf	 8	 0.268300	 2.000000	 flanked_rf_freq_8_amplitude_0.2683_rep_1_r_H_2.0.png	 H	 r	 r	 n.a.	 1.373916e+00
9	 1	 240	 flanked	 rf	 12	 0.061700	 2.000000	 flanked_rf_freq_12_amplitude_0.0617_rep_7_b_N_2.0.png	 N	 b	 t	 n.a.	 1.188930e+00
9	 1	 241	 flanked	 rf	 3	 0.268300	 2.000000	 flanked_rf_freq_3_amplitude_0.2683_rep_7_b_N_2.0.png	 N	 b	 b	 n.a.	 7.870546e-01
9	 1	 242	 flanked	 rf	 3	 0.165000	 2.000000	 flanked_rf_freq_3_amplitude_0.165_rep_9_l_K_2.0.png	 K	 l	 b	 n.a.	 1.207963e+00
9	 1	 243	 flanked	 rf	 5	 0.268300	 2.000000	 flanked_rf_freq_5_amplitude_0.2683_rep_3_l_K_2.0.png	 K	 l	 l	 n.a.	 1.172651e+00
9	 1	 244	 flanked	 rf	 3	 0.061700	 2.000000	 flanked_rf_freq_3_amplitude_0.0617_rep_4_r_N_2.0.png	 N	 r	 t	 n.a.	 1.146490e+00
9	 1	 245	 flanked	 rf	 3	 0.216700	 2.000000	 flanked_rf_freq_3_amplitude_0.2167_rep_1_r_D_2.0.png	 D	 r	 l	 n.a.	 1.274790e+00
9	 1	 246	 flanked	 rf	 2	 0.113300	 2.000000	 flanked_rf_freq_2_amplitude_0.1133_rep_7_r_N_2.0.png	 N	 r	 l	 n.a.	 1.583370e+00
9	 1	 247	 flanked	 rf	 5	 0.061700	 2.000000	 flanked_rf_freq_5_amplitude_0.0617_rep_1_t_K_2.0.png	 K	 t	 b	 n.a.	 1.492279e+00
9	 1	 248	 flanked	 rf	 8	 0.165000	 2.000000	 flanked_rf_freq_8_amplitude_0.165_rep_7_t_D_2.0.png	 D	 t	 t	 n.a.	 1.257493e+00
9	 1	 249	 flanked	 rf	 8	 0.113300	 2.000000	 flanked_rf_freq_8_amplitude_0.1133_rep_3_l_H_2.0.png	 H	 l	 l	 n.a.	 1.109638e+00
9	 1	 250	 flanked	 rf	 2	 0.010000	 2.000000	 flanked_rf_freq_2_amplitude_0.01_rep_3_b_K_2.0.png	 K	 b	 b	 n.a.	 1.080220e+00
9	 1	 251	 flanked	 rf	 4	 0.216700	 2.000000	 flanked_rf_freq_4_amplitude_0.2167_rep_9_l_H_2.0.png	 H	 l	 l	 n.a.	 1.034850e+00
9	 1	 252	 flanked	 rf	 5	 0.216700	 2.000000	 flanked_rf_freq_5_amplitude_0.2167_rep_8_b_N_2.0.png	 N	 b	 b	 n.a.	 1.126802e+00
9	 1	 253	 flanked	 rf	 4	 0.216700	 2.000000	 flanked_rf_freq_4_amplitude_0.2167_rep_5_t_D_2.0.png	 D	 t	 t	 n.a.	 9.481603e-01
9	 1	 254	 flanked	 rf	 5	 0.010000	 2.000000	 flanked_rf_freq_5_amplitude_0.01_rep_2_b_N_2.0.png	 N	 b	 r	 n.a.	 9.844999e-01
9	 1	 255	 flanked	 rf	 3	 0.320000	 2.000000	 flanked_rf_freq_3_amplitude_0.32_rep_3_r_N_2.0.png	 N	 r	 r	 n.a.	 8.243608e-01
9	 1	 256	 flanked	 rf	 12	 0.268300	 2.000000	 flanked_rf_freq_12_amplitude_0.2683_rep_7_l_H_2.0.png	 H	 l	 l	 n.a.	 7.433399e-01
9	 1	 257	 flanked	 rf	 2	 0.165000	 2.000000	 flanked_rf_freq_2_amplitude_0.165_rep_1_r_H_2.0.png	 H	 r	 b	 n.a.	 6.600203e-01
9	 1	 258	 flanked	 rf	 8	 0.216700	 2.000000	 flanked_rf_freq_8_amplitude_0.2167_rep_6_r_K_2.0.png	 K	 r	 r	 n.a.	 5.096954e-01
9	 1	 259	 flanked	 rf	 4	 0.113300	 2.000000	 flanked_rf_freq_4_amplitude_0.1133_rep_4_t_H_2.0.png	 H	 t	 t	 n.a.	 7.201327e-01
9	 1	 260	 flanked	 rf	 4	 0.061700	 2.000000	 flanked_rf_freq_4_amplitude_0.0617_rep_8_l_D_2.0.png	 D	 l	 t	 n.a.	 1.046583e+00
9	 1	 261	 flanked	 rf	 5	 0.165000	 2.000000	 flanked_rf_freq_5_amplitude_0.165_rep_6_b_N_2.0.png	 N	 b	 b	 n.a.	 6.758430e-01
9	 1	 262	 flanked	 rf	 5	 0.165000	 2.000000	 flanked_rf_freq_5_amplitude_0.165_rep_3_b_D_2.0.png	 D	 b	 l	 n.a.	 7.438631e-01
9	 1	 263	 flanked	 rf	 2	 0.061700	 2.000000	 flanked_rf_freq_2_amplitude_0.0617_rep_3_b_N_2.0.png	 N	 b	 l	 n.a.	 1.127163e+00
9	 1	 264	 flanked	 rf	 5	 0.320000	 2.000000	 flanked_rf_freq_5_amplitude_0.32_rep_8_b_K_2.0.png	 K	 b	 b	 n.a.	 6.162626e-01
9	 1	 265	 flanked	 rf	 2	 0.113300	 2.000000	 flanked_rf_freq_2_amplitude_0.1133_rep_0_l_K_2.0.png	 K	 l	 b	 n.a.	 8.676428e-01
9	 1	 266	 flanked	 rf	 8	 0.061700	 2.000000	 flanked_rf_freq_8_amplitude_0.0617_rep_5_b_K_2.0.png	 K	 b	 t	 n.a.	 1.727100e+00
9	 1	 267	 flanked	 rf	 3	 0.113300	 2.000000	 flanked_rf_freq_3_amplitude_0.1133_rep_6_t_N_2.0.png	 N	 t	 b	 n.a.	 5.679317e-01
9	 1	 268	 flanked	 rf	 12	 0.216700	 2.000000	 flanked_rf_freq_12_amplitude_0.2167_rep_1_l_N_2.0.png	 N	 l	 l	 n.a.	 3.645500e-01
9	 1	 269	 flanked	 rf	 4	 0.113300	 2.000000	 flanked_rf_freq_4_amplitude_0.1133_rep_9_r_H_2.0.png	 H	 r	 b	 n.a.	 8.827646e-01
9	 1	 270	 flanked	 rf	 12	 0.061700	 2.000000	 flanked_rf_freq_12_amplitude_0.0617_rep_1_r_K_2.0.png	 K	 r	 r	 n.a.	 5.622003e-01
9	 1	 271	 flanked	 rf	 2	 0.320000	 2.000000	 flanked_rf_freq_2_amplitude_0.32_rep_4_b_N_2.0.png	 N	 b	 b	 n.a.	 5.869170e-01
9	 1	 272	 flanked	 rf	 4	 0.320000	 2.000000	 flanked_rf_freq_4_amplitude_0.32_rep_3_t_H_2.0.png	 H	 t	 t	 n.a.	 4.555428e-01
9	 1	 273	 flanked	 rf	 3	 0.113300	 2.000000	 flanked_rf_freq_3_amplitude_0.1133_rep_3_t_N_2.0.png	 N	 t	 b	 n.a.	 6.893946e-01
9	 1	 274	 flanked	 rf	 4	 0.216700	 2.000000	 flanked_rf_freq_4_amplitude_0.2167_rep_3_l_H_2.0.png	 H	 l	 r	 n.a.	 4.304134e-01
9	 1	 275	 flanked	 rf	 12	 0.010000	 2.000000	 flanked_rf_freq_12_amplitude_0.01_rep_2_t_K_2.0.png	 K	 t	 t	 n.a.	 4.319262e-01
9	 1	 276	 flanked	 rf	 4	 0.320000	 2.000000	 flanked_rf_freq_4_amplitude_0.32_rep_2_r_H_2.0.png	 H	 r	 r	 n.a.	 4.007543e-01
9	 1	 277	 flanked	 rf	 12	 0.320000	 2.000000	 flanked_rf_freq_12_amplitude_0.32_rep_3_b_H_2.0.png	 H	 b	 b	 n.a.	 3.076985e-01
9	 1	 278	 flanked	 rf	 3	 0.268300	 2.000000	 flanked_rf_freq_3_amplitude_0.2683_rep_6_r_D_2.0.png	 D	 r	 r	 n.a.	 4.255564e-01
9	 1	 279	 flanked	 rf	 12	 0.320000	 2.000000	 flanked_rf_freq_12_amplitude_0.32_rep_2_t_D_2.0.png	 D	 t	 t	 n.a.	 2.711232e-01
9	 1	 280	 flanked	 rf	 5	 0.113300	 2.000000	 flanked_rf_freq_5_amplitude_0.1133_rep_9_r_N_2.0.png	 N	 r	 t	 n.a.	 4.821554e-01
9	 1	 281	 flanked	 rf	 12	 0.268300	 2.000000	 flanked_rf_freq_12_amplitude_0.2683_rep_3_l_K_2.0.png	 K	 l	 l	 n.a.	 2.905324e-01
9	 1	 282	 flanked	 rf	 4	 0.268300	 2.000000	 flanked_rf_freq_4_amplitude_0.2683_rep_2_r_D_2.0.png	 D	 r	 r	 n.a.	 3.365940e-01
9	 1	 283	 flanked	 rf	 12	 0.113300	 2.000000	 flanked_rf_freq_12_amplitude_0.1133_rep_6_b_D_2.0.png	 D	 b	 b	 n.a.	 4.541715e-01
9	 1	 284	 flanked	 rf	 3	 0.061700	 2.000000	 flanked_rf_freq_3_amplitude_0.0617_rep_3_b_H_2.0.png	 H	 b	 b	 n.a.	 8.433455e-01
9	 1	 285	 flanked	 rf	 3	 0.320000	 2.000000	 flanked_rf_freq_3_amplitude_0.32_rep_5_b_H_2.0.png	 H	 b	 b	 n.a.	 5.195499e-01
9	 1	 286	 flanked	 rf	 4	 0.113300	 2.000000	 flanked_rf_freq_4_amplitude_0.1133_rep_1_r_H_2.0.png	 H	 r	 t	 n.a.	 4.371757e-01
9	 1	 287	 flanked	 rf	 5	 0.320000	 2.000000	 flanked_rf_freq_5_amplitude_0.32_rep_5_t_N_2.0.png	 N	 t	 b	 n.a.	 4.391444e-01
9	 1	 288	 flanked	 rf	 2	 0.113300	 2.000000	 flanked_rf_freq_2_amplitude_0.1133_rep_3_b_K_2.0.png	 K	 b	 b	 n.a.	 3.626009e-01
9	 1	 289	 flanked	 rf	 2	 0.061700	 2.000000	 flanked_rf_freq_2_amplitude_0.0617_rep_6_t_H_2.0.png	 H	 t	 l	 n.a.	 8.339448e-01
9	 1	 290	 flanked	 rf	 8	 0.268300	 2.000000	 flanked_rf_freq_8_amplitude_0.2683_rep_9_t_H_2.0.png	 H	 t	 t	 n.a.	 3.097293e-01
9	 1	 291	 flanked	 rf	 4	 0.061700	 2.000000	 flanked_rf_freq_4_amplitude_0.0617_rep_3_r_K_2.0.png	 K	 r	 r	 n.a.	 7.892632e-01
9	 1	 292	 flanked	 rf	 5	 0.216700	 2.000000	 flanked_rf_freq_5_amplitude_0.2167_rep_7_t_D_2.0.png	 D	 t	 t	 n.a.	 4.104712e-01
9	 1	 293	 flanked	 rf	 4	 0.010000	 2.000000	 flanked_rf_freq_4_amplitude_0.01_rep_2_b_H_2.0.png	 H	 b	 l	 n.a.	 1.041733e+00
9	 1	 294	 flanked	 rf	 5	 0.216700	 2.000000	 flanked_rf_freq_5_amplitude_0.2167_rep_3_r_N_2.0.png	 N	 r	 r	 n.a.	 4.355520e-01
9	 1	 295	 flanked	 rf	 8	 0.165000	 2.000000	 flanked_rf_freq_8_amplitude_0.165_rep_0_b_H_2.0.png	 H	 b	 b	 n.a.	 3.165222e-01
9	 1	 296	 flanked	 rf	 3	 0.061700	 2.000000	 flanked_rf_freq_3_amplitude_0.0617_rep_1_b_H_2.0.png	 H	 b	 l	 n.a.	 3.584052e-01
9	 1	 297	 flanked	 rf	 2	 0.113300	 2.000000	 flanked_rf_freq_2_amplitude_0.1133_rep_8_r_N_2.0.png	 N	 r	 t	 n.a.	 3.701338e-01
9	 1	 298	 flanked	 rf	 4	 0.061700	 2.000000	 flanked_rf_freq_4_amplitude_0.0617_rep_9_t_N_2.0.png	 N	 t	 t	 n.a.	 3.578229e-01
9	 1	 299	 flanked	 rf	 4	 0.010000	 2.000000	 flanked_rf_freq_4_amplitude_0.01_rep_4_t_D_2.0.png	 D	 t	 b	 n.a.	 4.906787e-01
9	 1	 300	 flanked	 rf	 3	 0.268300	 2.000000	 flanked_rf_freq_3_amplitude_0.2683_rep_5_b_K_2.0.png	 K	 b	 b	 n.a.	 3.321404e-01
9	 1	 301	 flanked	 rf	 4	 0.320000	 2.000000	 flanked_rf_freq_4_amplitude_0.32_rep_9_b_K_2.0.png	 K	 b	 b	 n.a.	 2.664323e-01
9	 1	 302	 flanked	 rf	 12	 0.061700	 2.000000	 flanked_rf_freq_12_amplitude_0.0617_rep_3_t_N_2.0.png	 N	 t	 b	 n.a.	 2.444402e-01
9	 1	 303	 flanked	 rf	 8	 0.165000	 2.000000	 flanked_rf_freq_8_amplitude_0.165_rep_6_l_H_2.0.png	 H	 l	 l	 n.a.	 5.481431e-01
9	 1	 304	 flanked	 rf	 3	 0.061700	 2.000000	 flanked_rf_freq_3_amplitude_0.0617_rep_2_t_K_2.0.png	 K	 t	 t	 n.a.	 3.492272e-01
9	 1	 305	 flanked	 rf	 2	 0.268300	 2.000000	 flanked_rf_freq_2_amplitude_0.2683_rep_1_r_H_2.0.png	 H	 r	 l	 n.a.	 5.805608e-01
9	 1	 306	 flanked	 rf	 5	 0.113300	 2.000000	 flanked_rf_freq_5_amplitude_0.1133_rep_4_l_K_2.0.png	 K	 l	 t	 n.a.	 7.539051e-01
9	 1	 307	 flanked	 rf	 5	 0.320000	 2.000000	 flanked_rf_freq_5_amplitude_0.32_rep_2_t_D_2.0.png	 D	 t	 t	 n.a.	 3.285276e-01
9	 1	 308	 flanked	 rf	 8	 0.268300	 2.000000	 flanked_rf_freq_8_amplitude_0.2683_rep_2_l_N_2.0.png	 N	 l	 l	 n.a.	 2.728074e-01
9	 1	 309	 flanked	 rf	 12	 0.268300	 2.000000	 flanked_rf_freq_12_amplitude_0.2683_rep_6_l_K_2.0.png	 K	 l	 l	 n.a.	 2.518190e-01
9	 1	 310	 flanked	 rf	 3	 0.165000	 2.000000	 flanked_rf_freq_3_amplitude_0.165_rep_3_l_N_2.0.png	 N	 l	 l	 n.a.	 4.318229e-01
9	 1	 311	 flanked	 rf	 4	 0.113300	 2.000000	 flanked_rf_freq_4_amplitude_0.1133_rep_0_b_D_2.0.png	 D	 b	 t	 n.a.	 4.080707e-01
9	 1	 312	 flanked	 rf	 5	 0.010000	 2.000000	 flanked_rf_freq_5_amplitude_0.01_rep_0_l_H_2.0.png	 H	 l	 l	 n.a.	 5.478930e-01
9	 1	 313	 flanked	 rf	 5	 0.061700	 2.000000	 flanked_rf_freq_5_amplitude_0.0617_rep_0_b_H_2.0.png	 H	 b	 t	 n.a.	 3.444750e-01
9	 1	 314	 flanked	 rf	 4	 0.113300	 2.000000	 flanked_rf_freq_4_amplitude_0.1133_rep_2_t_D_2.0.png	 D	 t	 l	 n.a.	 7.998067e-01
9	 1	 315	 flanked	 rf	 12	 0.165000	 2.000000	 flanked_rf_freq_12_amplitude_0.165_rep_3_l_N_2.0.png	 N	 l	 l	 n.a.	 3.306129e-01
9	 1	 316	 flanked	 rf	 3	 0.216700	 2.000000	 flanked_rf_freq_3_amplitude_0.2167_rep_9_b_D_2.0.png	 D	 b	 l	 n.a.	 8.739504e-01
9	 1	 317	 flanked	 rf	 8	 0.061700	 2.000000	 flanked_rf_freq_8_amplitude_0.0617_rep_0_r_N_2.0.png	 N	 r	 b	 n.a.	 5.196884e-01
9	 1	 318	 flanked	 rf	 12	 0.061700	 2.000000	 flanked_rf_freq_12_amplitude_0.0617_rep_5_t_K_2.0.png	 K	 t	 b	 n.a.	 5.322139e-01
9	 1	 319	 flanked	 rf	 4	 0.268300	 2.000000	 flanked_rf_freq_4_amplitude_0.2683_rep_9_b_D_2.0.png	 D	 b	 b	 n.a.	 4.677261e-01
9	 1	 320	 flanked	 rf	 3	 0.320000	 2.000000	 flanked_rf_freq_3_amplitude_0.32_rep_4_r_D_2.0.png	 D	 r	 b	 n.a.	 5.483377e-01
9	 1	 321	 flanked	 rf	 8	 0.061700	 2.000000	 flanked_rf_freq_8_amplitude_0.0617_rep_9_b_K_2.0.png	 K	 b	 b	 n.a.	 8.171455e-01
9	 1	 322	 flanked	 rf	 5	 0.061700	 2.000000	 flanked_rf_freq_5_amplitude_0.0617_rep_8_r_D_2.0.png	 D	 r	 t	 n.a.	 3.605446e-01
9	 1	 323	 flanked	 rf	 8	 0.165000	 2.000000	 flanked_rf_freq_8_amplitude_0.165_rep_8_b_H_2.0.png	 H	 b	 b	 n.a.	 3.916823e-01
9	 1	 324	 flanked	 rf	 8	 0.010000	 2.000000	 flanked_rf_freq_8_amplitude_0.01_rep_2_b_D_2.0.png	 D	 b	 t	 n.a.	 5.463675e-01
9	 1	 325	 flanked	 rf	 3	 0.320000	 2.000000	 flanked_rf_freq_3_amplitude_0.32_rep_1_t_H_2.0.png	 H	 t	 t	 n.a.	 5.098044e-01
9	 1	 326	 flanked	 rf	 12	 0.268300	 2.000000	 flanked_rf_freq_12_amplitude_0.2683_rep_0_t_N_2.0.png	 N	 t	 t	 n.a.	 3.019464e-01
9	 1	 327	 flanked	 rf	 3	 0.320000	 2.000000	 flanked_rf_freq_3_amplitude_0.32_rep_2_l_H_2.0.png	 H	 l	 l	 n.a.	 5.498717e-01
9	 1	 328	 flanked	 rf	 3	 0.010000	 2.000000	 flanked_rf_freq_3_amplitude_0.01_rep_9_b_K_2.0.png	 K	 b	 b	 n.a.	 3.449428e-01
9	 1	 329	 flanked	 rf	 2	 0.061700	 2.000000	 flanked_rf_freq_2_amplitude_0.0617_rep_4_r_H_2.0.png	 H	 r	 b	 n.a.	 4.397227e-01
9	 1	 330	 flanked	 rf	 8	 0.113300	 2.000000	 flanked_rf_freq_8_amplitude_0.1133_rep_2_r_N_2.0.png	 N	 r	 r	 n.a.	 3.481939e-01
9	 1	 331	 flanked	 rf	 2	 0.010000	 2.000000	 flanked_rf_freq_2_amplitude_0.01_rep_5_r_H_2.0.png	 H	 r	 l	 n.a.	 5.890513e-01
9	 1	 332	 flanked	 rf	 3	 0.061700	 2.000000	 flanked_rf_freq_3_amplitude_0.0617_rep_6_r_H_2.0.png	 H	 r	 t	 n.a.	 7.368765e-01
9	 1	 333	 flanked	 rf	 12	 0.165000	 2.000000	 flanked_rf_freq_12_amplitude_0.165_rep_5_l_K_2.0.png	 K	 l	 l	 n.a.	 3.406791e-01
9	 1	 334	 flanked	 rf	 8	 0.010000	 2.000000	 flanked_rf_freq_8_amplitude_0.01_rep_5_b_N_2.0.png	 N	 b	 t	 n.a.	 6.743084e-01
9	 1	 335	 flanked	 rf	 12	 0.010000	 2.000000	 flanked_rf_freq_12_amplitude_0.01_rep_5_t_H_2.0.png	 H	 t	 t	 n.a.	 6.235664e-01
9	 1	 336	 flanked	 rf	 2	 0.268300	 2.000000	 flanked_rf_freq_2_amplitude_0.2683_rep_3_r_N_2.0.png	 N	 r	 t	 n.a.	 5.671156e-01
9	 1	 337	 flanked	 rf	 5	 0.061700	 2.000000	 flanked_rf_freq_5_amplitude_0.0617_rep_5_b_D_2.0.png	 D	 b	 b	 n.a.	 4.597753e-01
9	 1	 338	 flanked	 rf	 5	 0.268300	 2.000000	 flanked_rf_freq_5_amplitude_0.2683_rep_9_t_H_2.0.png	 H	 t	 t	 n.a.	 4.208858e-01
9	 1	 339	 flanked	 rf	 4	 0.216700	 2.000000	 flanked_rf_freq_4_amplitude_0.2167_rep_6_b_N_2.0.png	 N	 b	 t	 n.a.	 7.403092e-01
9	 1	 340	 flanked	 rf	 8	 0.268300	 2.000000	 flanked_rf_freq_8_amplitude_0.2683_rep_4_b_H_2.0.png	 H	 b	 b	 n.a.	 2.972171e-01
9	 1	 341	 flanked	 rf	 8	 0.010000	 2.000000	 flanked_rf_freq_8_amplitude_0.01_rep_8_t_K_2.0.png	 K	 t	 t	 n.a.	 6.299399e-01
9	 1	 342	 flanked	 rf	 12	 0.320000	 2.000000	 flanked_rf_freq_12_amplitude_0.32_rep_5_l_H_2.0.png	 H	 l	 l	 n.a.	 3.628120e-01
9	 1	 343	 flanked	 rf	 5	 0.268300	 2.000000	 flanked_rf_freq_5_amplitude_0.2683_rep_6_b_N_2.0.png	 N	 b	 b	 n.a.	 7.020070e-01
9	 1	 344	 flanked	 rf	 8	 0.061700	 2.000000	 flanked_rf_freq_8_amplitude_0.0617_rep_2_r_K_2.0.png	 K	 r	 r	 n.a.	 6.251148e-01
9	 1	 345	 flanked	 rf	 5	 0.010000	 2.000000	 flanked_rf_freq_5_amplitude_0.01_rep_3_t_D_2.0.png	 D	 t	 b	 n.a.	 8.157691e-01
9	 1	 346	 flanked	 rf	 12	 0.010000	 2.000000	 flanked_rf_freq_12_amplitude_0.01_rep_7_b_N_2.0.png	 N	 b	 t	 n.a.	 8.380138e-01
9	 1	 347	 flanked	 rf	 3	 0.216700	 2.000000	 flanked_rf_freq_3_amplitude_0.2167_rep_8_t_K_2.0.png	 K	 t	 t	 n.a.	 5.348000e-01
9	 1	 348	 flanked	 rf	 5	 0.216700	 2.000000	 flanked_rf_freq_5_amplitude_0.2167_rep_2_r_K_2.0.png	 K	 r	 r	 n.a.	 4.309033e-01
9	 1	 349	 flanked	 rf	 5	 0.165000	 2.000000	 flanked_rf_freq_5_amplitude_0.165_rep_8_l_K_2.0.png	 K	 l	 b	 n.a.	 7.723834e-01
9	 1	 350	 flanked	 rf	 5	 0.061700	 2.000000	 flanked_rf_freq_5_amplitude_0.0617_rep_3_b_N_2.0.png	 N	 b	 b	 n.a.	 1.260763e+00
9	 1	 351	 flanked	 rf	 2	 0.165000	 2.000000	 flanked_rf_freq_2_amplitude_0.165_rep_8_l_H_2.0.png	 H	 l	 r	 n.a.	 9.374640e-01
9	 1	 352	 flanked	 rf	 4	 0.268300	 2.000000	 flanked_rf_freq_4_amplitude_0.2683_rep_4_b_H_2.0.png	 H	 b	 b	 n.a.	 3.674774e-01
9	 1	 353	 flanked	 rf	 4	 0.061700	 2.000000	 flanked_rf_freq_4_amplitude_0.0617_rep_4_b_D_2.0.png	 D	 b	 l	 n.a.	 9.332312e-01
9	 1	 354	 flanked	 rf	 5	 0.165000	 2.000000	 flanked_rf_freq_5_amplitude_0.165_rep_2_t_D_2.0.png	 D	 t	 b	 n.a.	 4.342512e-01
9	 1	 355	 flanked	 rf	 2	 0.113300	 2.000000	 flanked_rf_freq_2_amplitude_0.1133_rep_5_b_K_2.0.png	 K	 b	 b	 n.a.	 4.813911e-01
9	 1	 356	 flanked	 rf	 12	 0.216700	 2.000000	 flanked_rf_freq_12_amplitude_0.2167_rep_3_t_D_2.0.png	 D	 t	 t	 n.a.	 2.613309e-01
9	 1	 357	 flanked	 rf	 12	 0.010000	 2.000000	 flanked_rf_freq_12_amplitude_0.01_rep_1_l_D_2.0.png	 D	 l	 t	 n.a.	 4.339824e-01
9	 1	 358	 flanked	 rf	 4	 0.268300	 2.000000	 flanked_rf_freq_4_amplitude_0.2683_rep_6_l_N_2.0.png	 N	 l	 l	 n.a.	 1.197615e+00
9	 1	 359	 flanked	 rf	 2	 0.010000	 2.000000	 flanked_rf_freq_2_amplitude_0.01_rep_6_b_D_2.0.png	 D	 b	 t	 n.a.	 5.164362e-01
9	 1	 360	 flanked	 rf	 5	 0.113300	 2.000000	 flanked_rf_freq_5_amplitude_0.1133_rep_7_r_D_2.0.png	 D	 r	 t	 n.a.	 3.448566e-01
9	 1	 361	 flanked	 rf	 3	 0.113300	 2.000000	 flanked_rf_freq_3_amplitude_0.1133_rep_8_r_N_2.0.png	 N	 r	 t	 n.a.	 3.449466e-01
9	 1	 362	 flanked	 rf	 8	 0.113300	 2.000000	 flanked_rf_freq_8_amplitude_0.1133_rep_8_r_K_2.0.png	 K	 r	 b	 n.a.	 1.475352e+00
9	 1	 363	 flanked	 rf	 3	 0.113300	 2.000000	 flanked_rf_freq_3_amplitude_0.1133_rep_0_b_K_2.0.png	 K	 b	 b	 n.a.	 4.708489e-01
9	 1	 364	 flanked	 rf	 12	 0.216700	 2.000000	 flanked_rf_freq_12_amplitude_0.2167_rep_4_l_N_2.0.png	 N	 l	 l	 n.a.	 2.785829e-01
9	 1	 365	 flanked	 rf	 4	 0.320000	 2.000000	 flanked_rf_freq_4_amplitude_0.32_rep_7_r_D_2.0.png	 D	 r	 r	 n.a.	 3.152439e-01
9	 1	 366	 flanked	 rf	 5	 0.061700	 2.000000	 flanked_rf_freq_5_amplitude_0.0617_rep_4_l_D_2.0.png	 D	 l	 b	 n.a.	 4.396565e-01
9	 1	 367	 flanked	 rf	 2	 0.165000	 2.000000	 flanked_rf_freq_2_amplitude_0.165_rep_2_b_D_2.0.png	 D	 b	 t	 n.a.	 6.172606e-01
9	 1	 368	 flanked	 rf	 5	 0.320000	 2.000000	 flanked_rf_freq_5_amplitude_0.32_rep_3_l_D_2.0.png	 D	 l	 l	 n.a.	 2.376810e-01
9	 1	 369	 flanked	 rf	 12	 0.010000	 2.000000	 flanked_rf_freq_12_amplitude_0.01_rep_4_b_N_2.0.png	 N	 b	 l	 n.a.	 5.666198e-01
9	 1	 370	 flanked	 rf	 8	 0.320000	 2.000000	 flanked_rf_freq_8_amplitude_0.32_rep_5_t_D_2.0.png	 D	 t	 t	 n.a.	 3.095315e-01
9	 1	 371	 flanked	 rf	 12	 0.268300	 2.000000	 flanked_rf_freq_12_amplitude_0.2683_rep_9_t_D_2.0.png	 D	 t	 t	 n.a.	 2.468195e-01
9	 1	 372	 flanked	 rf	 3	 0.061700	 2.000000	 flanked_rf_freq_3_amplitude_0.0617_rep_9_l_H_2.0.png	 H	 l	 t	 n.a.	 4.516568e-01
9	 1	 373	 flanked	 rf	 12	 0.010000	 2.000000	 flanked_rf_freq_12_amplitude_0.01_rep_8_b_K_2.0.png	 K	 b	 b	 n.a.	 3.297611e-01
9	 1	 374	 flanked	 rf	 2	 0.320000	 2.000000	 flanked_rf_freq_2_amplitude_0.32_rep_5_b_H_2.0.png	 H	 b	 b	 n.a.	 3.808983e-01
9	 1	 375	 flanked	 rf	 8	 0.216700	 2.000000	 flanked_rf_freq_8_amplitude_0.2167_rep_8_b_K_2.0.png	 K	 b	 b	 n.a.	 2.941529e-01
9	 1	 376	 flanked	 rf	 12	 0.061700	 2.000000	 flanked_rf_freq_12_amplitude_0.0617_rep_2_b_D_2.0.png	 D	 b	 b	 n.a.	 4.463857e-01
9	 1	 377	 flanked	 rf	 3	 0.165000	 2.000000	 flanked_rf_freq_3_amplitude_0.165_rep_0_t_H_2.0.png	 H	 t	 t	 n.a.	 8.059049e-01
9	 1	 378	 flanked	 rf	 4	 0.061700	 2.000000	 flanked_rf_freq_4_amplitude_0.0617_rep_0_r_H_2.0.png	 H	 r	 b	 n.a.	 6.587971e-01
9	 1	 379	 flanked	 rf	 5	 0.268300	 2.000000	 flanked_rf_freq_5_amplitude_0.2683_rep_2_t_H_2.0.png	 H	 t	 t	 n.a.	 6.901252e-01
9	 1	 380	 flanked	 rf	 3	 0.113300	 2.000000	 flanked_rf_freq_3_amplitude_0.1133_rep_5_t_K_2.0.png	 K	 t	 t	 n.a.	 6.348782e-01
9	 1	 381	 flanked	 rf	 8	 0.061700	 2.000000	 flanked_rf_freq_8_amplitude_0.0617_rep_6_b_N_2.0.png	 N	 b	 t	 n.a.	 7.769942e-01
9	 1	 382	 flanked	 rf	 3	 0.113300	 2.000000	 flanked_rf_freq_3_amplitude_0.1133_rep_4_t_H_2.0.png	 H	 t	 l	 n.a.	 4.544463e-01
9	 1	 383	 flanked	 rf	 4	 0.320000	 2.000000	 flanked_rf_freq_4_amplitude_0.32_rep_8_r_N_2.0.png	 N	 r	 r	 n.a.	 3.661596e-01
9	 1	 384	 flanked	 rf	 5	 0.113300	 2.000000	 flanked_rf_freq_5_amplitude_0.1133_rep_8_l_D_2.0.png	 D	 l	 l	 n.a.	 3.562789e-01
9	 1	 385	 flanked	 rf	 12	 0.113300	 2.000000	 flanked_rf_freq_12_amplitude_0.1133_rep_5_r_D_2.0.png	 D	 r	 r	 n.a.	 2.880331e-01
9	 1	 386	 flanked	 rf	 2	 0.010000	 2.000000	 flanked_rf_freq_2_amplitude_0.01_rep_7_r_K_2.0.png	 K	 r	 b	 n.a.	 5.539493e-01
9	 1	 387	 flanked	 rf	 12	 0.268300	 2.000000	 flanked_rf_freq_12_amplitude_0.2683_rep_4_b_D_2.0.png	 D	 b	 b	 n.a.	 3.047933e-01
9	 1	 388	 flanked	 rf	 4	 0.165000	 2.000000	 flanked_rf_freq_4_amplitude_0.165_rep_4_l_H_2.0.png	 H	 l	 b	 n.a.	 3.800499e-01
9	 1	 389	 flanked	 rf	 8	 0.165000	 2.000000	 flanked_rf_freq_8_amplitude_0.165_rep_2_t_N_2.0.png	 N	 t	 t	 n.a.	 3.932553e-01
9	 1	 390	 flanked	 rf	 3	 0.216700	 2.000000	 flanked_rf_freq_3_amplitude_0.2167_rep_7_l_H_2.0.png	 H	 l	 b	 n.a.	 3.702828e-01
9	 1	 391	 flanked	 rf	 2	 0.061700	 2.000000	 flanked_rf_freq_2_amplitude_0.0617_rep_9_r_K_2.0.png	 K	 r	 b	 n.a.	 3.867583e-01
9	 1	 392	 flanked	 rf	 2	 0.320000	 2.000000	 flanked_rf_freq_2_amplitude_0.32_rep_6_t_D_2.0.png	 D	 t	 b	 n.a.	 7.467527e-01
9	 1	 393	 flanked	 rf	 2	 0.113300	 2.000000	 flanked_rf_freq_2_amplitude_0.1133_rep_2_l_K_2.0.png	 K	 l	 l	 n.a.	 3.916532e-01
9	 1	 394	 flanked	 rf	 4	 0.010000	 2.000000	 flanked_rf_freq_4_amplitude_0.01_rep_9_r_H_2.0.png	 H	 r	 b	 n.a.	 5.452391e-01
9	 1	 395	 flanked	 rf	 8	 0.113300	 2.000000	 flanked_rf_freq_8_amplitude_0.1133_rep_1_t_N_2.0.png	 N	 t	 t	 n.a.	 5.730233e-01
9	 1	 396	 flanked	 rf	 5	 0.165000	 2.000000	 flanked_rf_freq_5_amplitude_0.165_rep_4_l_K_2.0.png	 K	 l	 t	 n.a.	 4.179036e-01
9	 1	 397	 flanked	 rf	 12	 0.061700	 2.000000	 flanked_rf_freq_12_amplitude_0.0617_rep_6_t_N_2.0.png	 N	 t	 l	 n.a.	 4.404369e-01
9	 1	 398	 flanked	 rf	 3	 0.010000	 2.000000	 flanked_rf_freq_3_amplitude_0.01_rep_6_b_H_2.0.png	 H	 b	 r	 n.a.	 4.242929e-01
9	 1	 399	 flanked	 rf	 3	 0.216700	 2.000000	 flanked_rf_freq_3_amplitude_0.2167_rep_6_b_D_2.0.png	 D	 b	 b	 n.a.	 5.469722e-01
9	 1	 400	 flanked	 rf	 4	 0.320000	 2.000000	 flanked_rf_freq_4_amplitude_0.32_rep_1_t_K_2.0.png	 K	 t	 t	 n.a.	 4.315176e-01
9	 1	 401	 flanked	 rf	 3	 0.010000	 2.000000	 flanked_rf_freq_3_amplitude_0.01_rep_8_b_H_2.0.png	 H	 b	 r	 n.a.	 5.751294e-01
9	 1	 402	 flanked	 rf	 4	 0.165000	 2.000000	 flanked_rf_freq_4_amplitude_0.165_rep_0_t_N_2.0.png	 N	 t	 t	 n.a.	 3.634105e-01
9	 1	 403	 flanked	 rf	 8	 0.113300	 2.000000	 flanked_rf_freq_8_amplitude_0.1133_rep_9_r_H_2.0.png	 H	 r	 t	 n.a.	 6.236104e-01
9	 1	 404	 flanked	 rf	 8	 0.216700	 2.000000	 flanked_rf_freq_8_amplitude_0.2167_rep_0_b_N_2.0.png	 N	 b	 b	 n.a.	 3.573301e-01
9	 1	 405	 flanked	 rf	 12	 0.216700	 2.000000	 flanked_rf_freq_12_amplitude_0.2167_rep_5_t_D_2.0.png	 D	 t	 t	 n.a.	 4.631929e-01
9	 1	 406	 flanked	 rf	 8	 0.216700	 2.000000	 flanked_rf_freq_8_amplitude_0.2167_rep_2_l_D_2.0.png	 D	 l	 l	 n.a.	 4.000007e-01
9	 1	 407	 flanked	 rf	 8	 0.320000	 2.000000	 flanked_rf_freq_8_amplitude_0.32_rep_9_l_H_2.0.png	 H	 l	 l	 n.a.	 2.564344e-01
9	 1	 408	 flanked	 rf	 4	 0.268300	 2.000000	 flanked_rf_freq_4_amplitude_0.2683_rep_5_r_K_2.0.png	 K	 r	 r	 n.a.	 7.652501e-01
9	 1	 409	 flanked	 rf	 4	 0.061700	 2.000000	 flanked_rf_freq_4_amplitude_0.0617_rep_5_l_H_2.0.png	 H	 l	 r	 n.a.	 1.003197e+00
9	 1	 410	 flanked	 rf	 5	 0.113300	 2.000000	 flanked_rf_freq_5_amplitude_0.1133_rep_3_l_H_2.0.png	 H	 l	 l	 n.a.	 5.736749e-01
9	 1	 411	 flanked	 rf	 5	 0.320000	 2.000000	 flanked_rf_freq_5_amplitude_0.32_rep_6_r_N_2.0.png	 N	 r	 r	 n.a.	 5.193932e-01
9	 1	 412	 flanked	 rf	 4	 0.113300	 2.000000	 flanked_rf_freq_4_amplitude_0.1133_rep_7_b_D_2.0.png	 D	 b	 r	 n.a.	 5.729672e-01
9	 1	 413	 flanked	 rf	 12	 0.320000	 2.000000	 flanked_rf_freq_12_amplitude_0.32_rep_7_r_H_2.0.png	 H	 r	 r	 n.a.	 3.727883e-01
9	 1	 414	 flanked	 rf	 2	 0.010000	 2.000000	 flanked_rf_freq_2_amplitude_0.01_rep_8_t_H_2.0.png	 H	 t	 b	 n.a.	 5.752399e-01
9	 1	 415	 flanked	 rf	 5	 0.010000	 2.000000	 flanked_rf_freq_5_amplitude_0.01_rep_5_r_D_2.0.png	 D	 r	 t	 n.a.	 1.132456e+00
9	 1	 416	 flanked	 rf	 8	 0.010000	 2.000000	 flanked_rf_freq_8_amplitude_0.01_rep_7_b_D_2.0.png	 D	 b	 t	 n.a.	 1.169091e+00
9	 1	 417	 flanked	 rf	 8	 0.113300	 2.000000	 flanked_rf_freq_8_amplitude_0.1133_rep_7_r_D_2.0.png	 D	 r	 r	 n.a.	 3.367217e-01
9	 1	 418	 flanked	 rf	 8	 0.010000	 2.000000	 flanked_rf_freq_8_amplitude_0.01_rep_3_t_K_2.0.png	 K	 t	 t	 n.a.	 1.160993e+00
9	 1	 419	 flanked	 rf	 8	 0.165000	 2.000000	 flanked_rf_freq_8_amplitude_0.165_rep_9_l_D_2.0.png	 D	 l	 l	 n.a.	 1.060957e+00
9	 1	 420	 flanked	 rf	 12	 0.320000	 2.000000	 flanked_rf_freq_12_amplitude_0.32_rep_6_l_N_2.0.png	 N	 l	 l	 n.a.	 9.138191e-01
