subject	 session	 trial	 flanked	 distortion	 freq	 amplitude	 spacing	 im_name	 targ_letter	 targ_pos	 response	 eyemovement	 RT
7	 2	 1	 flanked	 rf	 4	 0.268300	 2.000000	 flanked_rf_freq_4_amplitude_0.2683_rep_2_r_D_2.0.png	 D	 r	 r	 n.a.	 5.655400e-01
7	 2	 2	 flanked	 rf	 2	 0.061700	 2.000000	 flanked_rf_freq_2_amplitude_0.0617_rep_0_t_N_2.0.png	 N	 t	 b	 n.a.	 6.239941e-01
7	 2	 3	 flanked	 rf	 4	 0.010000	 2.000000	 flanked_rf_freq_4_amplitude_0.01_rep_4_t_D_2.0.png	 D	 t	 t	 n.a.	 3.883713e-01
7	 2	 4	 flanked	 rf	 12	 0.320000	 2.000000	 flanked_rf_freq_12_amplitude_0.32_rep_9_t_D_2.0.png	 D	 t	 t	 n.a.	 4.088399e-01
7	 2	 5	 flanked	 rf	 12	 0.113300	 2.000000	 flanked_rf_freq_12_amplitude_0.1133_rep_9_b_K_2.0.png	 K	 b	 l	 n.a.	 4.995437e-01
7	 2	 6	 flanked	 rf	 5	 0.061700	 2.000000	 flanked_rf_freq_5_amplitude_0.0617_rep_1_t_K_2.0.png	 K	 t	 b	 n.a.	 3.464600e-01
7	 2	 7	 flanked	 rf	 4	 0.216700	 2.000000	 flanked_rf_freq_4_amplitude_0.2167_rep_4_r_D_2.0.png	 D	 r	 r	 n.a.	 3.930837e-01
7	 2	 8	 flanked	 rf	 12	 0.216700	 2.000000	 flanked_rf_freq_12_amplitude_0.2167_rep_1_l_N_2.0.png	 N	 l	 l	 n.a.	 4.047808e-01
7	 2	 9	 flanked	 rf	 2	 0.061700	 2.000000	 flanked_rf_freq_2_amplitude_0.0617_rep_2_t_K_2.0.png	 K	 t	 t	 n.a.	 4.060649e-01
7	 2	 10	 flanked	 rf	 5	 0.165000	 2.000000	 flanked_rf_freq_5_amplitude_0.165_rep_1_r_N_2.0.png	 N	 r	 b	 n.a.	 3.505147e-01
7	 2	 11	 flanked	 rf	 12	 0.216700	 2.000000	 flanked_rf_freq_12_amplitude_0.2167_rep_7_r_H_2.0.png	 H	 r	 r	 n.a.	 3.085183e-01
7	 2	 12	 flanked	 rf	 5	 0.010000	 2.000000	 flanked_rf_freq_5_amplitude_0.01_rep_9_r_D_2.0.png	 D	 r	 l	 n.a.	 3.554874e-01
7	 2	 13	 flanked	 rf	 2	 0.268300	 2.000000	 flanked_rf_freq_2_amplitude_0.2683_rep_1_r_H_2.0.png	 H	 r	 r	 n.a.	 4.885107e-01
7	 2	 14	 flanked	 rf	 8	 0.061700	 2.000000	 flanked_rf_freq_8_amplitude_0.0617_rep_5_b_K_2.0.png	 K	 b	 b	 n.a.	 6.482801e-01
7	 2	 15	 flanked	 rf	 2	 0.061700	 2.000000	 flanked_rf_freq_2_amplitude_0.0617_rep_3_b_N_2.0.png	 N	 b	 l	 n.a.	 6.445260e-01
7	 2	 16	 flanked	 rf	 8	 0.061700	 2.000000	 flanked_rf_freq_8_amplitude_0.0617_rep_7_r_K_2.0.png	 K	 r	 r	 n.a.	 4.660386e-01
7	 2	 17	 flanked	 rf	 3	 0.010000	 2.000000	 flanked_rf_freq_3_amplitude_0.01_rep_3_l_D_2.0.png	 D	 l	 t	 n.a.	 4.031615e-01
7	 2	 18	 flanked	 rf	 3	 0.113300	 2.000000	 flanked_rf_freq_3_amplitude_0.1133_rep_5_t_K_2.0.png	 K	 t	 r	 n.a.	 5.878083e-01
7	 2	 19	 flanked	 rf	 8	 0.268300	 2.000000	 flanked_rf_freq_8_amplitude_0.2683_rep_9_t_H_2.0.png	 H	 t	 t	 n.a.	 4.274429e-01
7	 2	 20	 flanked	 rf	 8	 0.113300	 2.000000	 flanked_rf_freq_8_amplitude_0.1133_rep_4_r_H_2.0.png	 H	 r	 r	 n.a.	 5.360646e-01
7	 2	 21	 flanked	 rf	 3	 0.010000	 2.000000	 flanked_rf_freq_3_amplitude_0.01_rep_8_b_H_2.0.png	 H	 b	 r	 n.a.	 6.444289e-01
7	 2	 22	 flanked	 rf	 2	 0.268300	 2.000000	 flanked_rf_freq_2_amplitude_0.2683_rep_2_b_N_2.0.png	 N	 b	 t	 n.a.	 5.168775e-01
7	 2	 23	 flanked	 rf	 8	 0.165000	 2.000000	 flanked_rf_freq_8_amplitude_0.165_rep_3_l_K_2.0.png	 K	 l	 r	 n.a.	 3.489106e-01
7	 2	 24	 flanked	 rf	 3	 0.010000	 2.000000	 flanked_rf_freq_3_amplitude_0.01_rep_2_t_D_2.0.png	 D	 t	 t	 n.a.	 4.582830e-01
7	 2	 25	 flanked	 rf	 3	 0.268300	 2.000000	 flanked_rf_freq_3_amplitude_0.2683_rep_2_l_K_2.0.png	 K	 l	 l	 n.a.	 4.638931e-01
7	 2	 26	 flanked	 rf	 12	 0.165000	 2.000000	 flanked_rf_freq_12_amplitude_0.165_rep_2_b_N_2.0.png	 N	 b	 b	 n.a.	 5.089163e-01
7	 2	 27	 flanked	 rf	 8	 0.061700	 2.000000	 flanked_rf_freq_8_amplitude_0.0617_rep_0_r_N_2.0.png	 N	 r	 r	 n.a.	 5.561695e-01
7	 2	 28	 flanked	 rf	 12	 0.113300	 2.000000	 flanked_rf_freq_12_amplitude_0.1133_rep_5_r_D_2.0.png	 D	 r	 r	 n.a.	 5.526011e-01
7	 2	 29	 flanked	 rf	 4	 0.061700	 2.000000	 flanked_rf_freq_4_amplitude_0.0617_rep_5_l_H_2.0.png	 H	 l	 r	 n.a.	 5.660832e-01
7	 2	 30	 flanked	 rf	 2	 0.113300	 2.000000	 flanked_rf_freq_2_amplitude_0.1133_rep_3_b_K_2.0.png	 K	 b	 r	 n.a.	 7.534410e-01
7	 2	 31	 flanked	 rf	 3	 0.320000	 2.000000	 flanked_rf_freq_3_amplitude_0.32_rep_2_l_H_2.0.png	 H	 l	 l	 n.a.	 4.550558e-01
7	 2	 32	 flanked	 rf	 4	 0.165000	 2.000000	 flanked_rf_freq_4_amplitude_0.165_rep_3_r_H_2.0.png	 H	 r	 r	 n.a.	 4.900282e-01
7	 2	 33	 flanked	 rf	 12	 0.320000	 2.000000	 flanked_rf_freq_12_amplitude_0.32_rep_5_l_H_2.0.png	 H	 l	 l	 n.a.	 3.500808e-01
7	 2	 34	 flanked	 rf	 4	 0.320000	 2.000000	 flanked_rf_freq_4_amplitude_0.32_rep_1_t_K_2.0.png	 K	 t	 t	 n.a.	 4.667917e-01
7	 2	 35	 flanked	 rf	 2	 0.061700	 2.000000	 flanked_rf_freq_2_amplitude_0.0617_rep_8_b_K_2.0.png	 K	 b	 l	 n.a.	 5.249058e-01
7	 2	 36	 flanked	 rf	 3	 0.010000	 2.000000	 flanked_rf_freq_3_amplitude_0.01_rep_6_b_H_2.0.png	 H	 b	 t	 n.a.	 6.300937e-01
7	 2	 37	 flanked	 rf	 8	 0.268300	 2.000000	 flanked_rf_freq_8_amplitude_0.2683_rep_2_l_N_2.0.png	 N	 l	 l	 n.a.	 3.850946e-01
7	 2	 38	 flanked	 rf	 2	 0.320000	 2.000000	 flanked_rf_freq_2_amplitude_0.32_rep_6_t_D_2.0.png	 D	 t	 l	 n.a.	 5.521351e-01
7	 2	 39	 flanked	 rf	 12	 0.113300	 2.000000	 flanked_rf_freq_12_amplitude_0.1133_rep_8_r_N_2.0.png	 N	 r	 r	 n.a.	 4.546560e-01
7	 2	 40	 flanked	 rf	 3	 0.320000	 2.000000	 flanked_rf_freq_3_amplitude_0.32_rep_9_t_N_2.0.png	 N	 t	 r	 n.a.	 6.539653e-01
7	 2	 41	 flanked	 rf	 2	 0.113300	 2.000000	 flanked_rf_freq_2_amplitude_0.1133_rep_2_l_K_2.0.png	 K	 l	 l	 n.a.	 4.857126e-01
7	 2	 42	 flanked	 rf	 4	 0.113300	 2.000000	 flanked_rf_freq_4_amplitude_0.1133_rep_1_r_H_2.0.png	 H	 r	 t	 n.a.	 7.444934e-01
7	 2	 43	 flanked	 rf	 3	 0.061700	 2.000000	 flanked_rf_freq_3_amplitude_0.0617_rep_0_b_D_2.0.png	 D	 b	 l	 n.a.	 6.654406e-01
7	 2	 44	 flanked	 rf	 2	 0.010000	 2.000000	 flanked_rf_freq_2_amplitude_0.01_rep_0_t_D_2.0.png	 D	 t	 l	 n.a.	 4.695436e-01
7	 2	 45	 flanked	 rf	 12	 0.165000	 2.000000	 flanked_rf_freq_12_amplitude_0.165_rep_5_l_K_2.0.png	 K	 l	 l	 n.a.	 3.388165e-01
7	 2	 46	 flanked	 rf	 8	 0.165000	 2.000000	 flanked_rf_freq_8_amplitude_0.165_rep_7_t_D_2.0.png	 D	 t	 t	 n.a.	 3.371093e-01
7	 2	 47	 flanked	 rf	 8	 0.216700	 2.000000	 flanked_rf_freq_8_amplitude_0.2167_rep_9_r_D_2.0.png	 D	 r	 r	 n.a.	 4.988794e-01
7	 2	 48	 flanked	 rf	 5	 0.010000	 2.000000	 flanked_rf_freq_5_amplitude_0.01_rep_7_r_H_2.0.png	 H	 r	 b	 n.a.	 4.360673e-01
7	 2	 49	 flanked	 rf	 3	 0.268300	 2.000000	 flanked_rf_freq_3_amplitude_0.2683_rep_1_r_N_2.0.png	 N	 r	 r	 n.a.	 4.090646e-01
7	 2	 50	 flanked	 rf	 4	 0.113300	 2.000000	 flanked_rf_freq_4_amplitude_0.1133_rep_6_l_D_2.0.png	 D	 l	 r	 n.a.	 6.798544e-01
7	 2	 51	 flanked	 rf	 4	 0.113300	 2.000000	 flanked_rf_freq_4_amplitude_0.1133_rep_5_l_K_2.0.png	 K	 l	 l	 n.a.	 4.157396e-01
7	 2	 52	 flanked	 rf	 3	 0.268300	 2.000000	 flanked_rf_freq_3_amplitude_0.2683_rep_5_b_K_2.0.png	 K	 b	 t	 n.a.	 5.611356e-01
7	 2	 53	 flanked	 rf	 3	 0.320000	 2.000000	 flanked_rf_freq_3_amplitude_0.32_rep_8_t_H_2.0.png	 H	 t	 l	 n.a.	 3.792934e-01
7	 2	 54	 flanked	 rf	 2	 0.320000	 2.000000	 flanked_rf_freq_2_amplitude_0.32_rep_0_t_H_2.0.png	 H	 t	 l	 n.a.	 4.113914e-01
7	 2	 55	 flanked	 rf	 5	 0.165000	 2.000000	 flanked_rf_freq_5_amplitude_0.165_rep_5_t_D_2.0.png	 D	 t	 t	 n.a.	 3.763546e-01
7	 2	 56	 flanked	 rf	 8	 0.010000	 2.000000	 flanked_rf_freq_8_amplitude_0.01_rep_5_b_N_2.0.png	 N	 b	 r	 n.a.	 5.705231e-01
7	 2	 57	 flanked	 rf	 8	 0.165000	 2.000000	 flanked_rf_freq_8_amplitude_0.165_rep_8_b_H_2.0.png	 H	 b	 b	 n.a.	 3.298150e-01
7	 2	 58	 flanked	 rf	 12	 0.165000	 2.000000	 flanked_rf_freq_12_amplitude_0.165_rep_0_l_H_2.0.png	 H	 l	 l	 n.a.	 3.231155e-01
7	 2	 59	 flanked	 rf	 8	 0.320000	 2.000000	 flanked_rf_freq_8_amplitude_0.32_rep_9_l_H_2.0.png	 H	 l	 l	 n.a.	 3.391517e-01
7	 2	 60	 flanked	 rf	 5	 0.113300	 2.000000	 flanked_rf_freq_5_amplitude_0.1133_rep_0_t_K_2.0.png	 K	 t	 t	 n.a.	 4.133869e-01
7	 2	 61	 flanked	 rf	 3	 0.010000	 2.000000	 flanked_rf_freq_3_amplitude_0.01_rep_9_b_K_2.0.png	 K	 b	 b	 n.a.	 5.800843e-01
7	 2	 62	 flanked	 rf	 5	 0.113300	 2.000000	 flanked_rf_freq_5_amplitude_0.1133_rep_5_b_D_2.0.png	 D	 b	 b	 n.a.	 7.062348e-01
7	 2	 63	 flanked	 rf	 12	 0.113300	 2.000000	 flanked_rf_freq_12_amplitude_0.1133_rep_4_t_N_2.0.png	 N	 t	 t	 n.a.	 4.551259e-01
7	 2	 64	 flanked	 rf	 3	 0.320000	 2.000000	 flanked_rf_freq_3_amplitude_0.32_rep_1_t_H_2.0.png	 H	 t	 t	 n.a.	 4.897260e-01
7	 2	 65	 flanked	 rf	 12	 0.010000	 2.000000	 flanked_rf_freq_12_amplitude_0.01_rep_2_t_K_2.0.png	 K	 t	 r	 n.a.	 5.546385e-01
7	 2	 66	 flanked	 rf	 4	 0.216700	 2.000000	 flanked_rf_freq_4_amplitude_0.2167_rep_7_b_K_2.0.png	 K	 b	 b	 n.a.	 4.890331e-01
7	 2	 67	 flanked	 rf	 5	 0.165000	 2.000000	 flanked_rf_freq_5_amplitude_0.165_rep_4_l_K_2.0.png	 K	 l	 l	 n.a.	 4.778528e-01
7	 2	 68	 flanked	 rf	 5	 0.113300	 2.000000	 flanked_rf_freq_5_amplitude_0.1133_rep_3_l_H_2.0.png	 H	 l	 l	 n.a.	 5.276682e-01
7	 2	 69	 flanked	 rf	 5	 0.165000	 2.000000	 flanked_rf_freq_5_amplitude_0.165_rep_6_b_N_2.0.png	 N	 b	 t	 n.a.	 5.252563e-01
7	 2	 70	 flanked	 rf	 2	 0.113300	 2.000000	 flanked_rf_freq_2_amplitude_0.1133_rep_0_l_K_2.0.png	 K	 l	 l	 n.a.	 4.950859e-01
7	 2	 71	 flanked	 rf	 5	 0.216700	 2.000000	 flanked_rf_freq_5_amplitude_0.2167_rep_8_b_N_2.0.png	 N	 b	 t	 n.a.	 5.865222e-01
7	 2	 72	 flanked	 rf	 5	 0.061700	 2.000000	 flanked_rf_freq_5_amplitude_0.0617_rep_3_b_N_2.0.png	 N	 b	 t	 n.a.	 3.281613e-01
7	 2	 73	 flanked	 rf	 4	 0.010000	 2.000000	 flanked_rf_freq_4_amplitude_0.01_rep_0_l_D_2.0.png	 D	 l	 b	 n.a.	 5.387710e-01
7	 2	 74	 flanked	 rf	 8	 0.113300	 2.000000	 flanked_rf_freq_8_amplitude_0.1133_rep_8_r_K_2.0.png	 K	 r	 r	 n.a.	 3.356454e-01
7	 2	 75	 flanked	 rf	 8	 0.320000	 2.000000	 flanked_rf_freq_8_amplitude_0.32_rep_8_r_N_2.0.png	 N	 r	 r	 n.a.	 3.144091e-01
7	 2	 76	 flanked	 rf	 12	 0.165000	 2.000000	 flanked_rf_freq_12_amplitude_0.165_rep_8_l_H_2.0.png	 H	 l	 l	 n.a.	 2.867482e-01
7	 2	 77	 flanked	 rf	 12	 0.320000	 2.000000	 flanked_rf_freq_12_amplitude_0.32_rep_2_t_D_2.0.png	 D	 t	 t	 n.a.	 2.714764e-01
7	 2	 78	 flanked	 rf	 2	 0.113300	 2.000000	 flanked_rf_freq_2_amplitude_0.1133_rep_6_b_N_2.0.png	 N	 b	 r	 n.a.	 5.444064e-01
7	 2	 79	 flanked	 rf	 3	 0.113300	 2.000000	 flanked_rf_freq_3_amplitude_0.1133_rep_2_l_K_2.0.png	 K	 l	 t	 n.a.	 4.507799e-01
7	 2	 80	 flanked	 rf	 2	 0.165000	 2.000000	 flanked_rf_freq_2_amplitude_0.165_rep_6_l_H_2.0.png	 H	 l	 r	 n.a.	 3.672133e-01
7	 2	 81	 flanked	 rf	 4	 0.061700	 2.000000	 flanked_rf_freq_4_amplitude_0.0617_rep_1_r_K_2.0.png	 K	 r	 r	 n.a.	 4.509033e-01
7	 2	 82	 flanked	 rf	 5	 0.010000	 2.000000	 flanked_rf_freq_5_amplitude_0.01_rep_1_r_K_2.0.png	 K	 r	 r	 n.a.	 5.130877e-01
7	 2	 83	 flanked	 rf	 12	 0.216700	 2.000000	 flanked_rf_freq_12_amplitude_0.2167_rep_4_l_N_2.0.png	 N	 l	 l	 n.a.	 3.179512e-01
7	 2	 84	 flanked	 rf	 12	 0.268300	 2.000000	 flanked_rf_freq_12_amplitude_0.2683_rep_9_t_D_2.0.png	 D	 t	 t	 n.a.	 2.291645e-01
7	 2	 85	 flanked	 rf	 4	 0.061700	 2.000000	 flanked_rf_freq_4_amplitude_0.0617_rep_9_t_N_2.0.png	 N	 t	 l	 n.a.	 4.770832e-01
7	 2	 86	 flanked	 rf	 8	 0.061700	 2.000000	 flanked_rf_freq_8_amplitude_0.0617_rep_4_l_K_2.0.png	 K	 l	 r	 n.a.	 5.946475e-01
7	 2	 87	 flanked	 rf	 8	 0.216700	 2.000000	 flanked_rf_freq_8_amplitude_0.2167_rep_3_l_K_2.0.png	 K	 l	 l	 n.a.	 2.599938e-01
7	 2	 88	 flanked	 rf	 8	 0.216700	 2.000000	 flanked_rf_freq_8_amplitude_0.2167_rep_5_l_H_2.0.png	 H	 l	 l	 n.a.	 2.891619e-01
7	 2	 89	 flanked	 rf	 3	 0.165000	 2.000000	 flanked_rf_freq_3_amplitude_0.165_rep_9_l_K_2.0.png	 K	 l	 l	 n.a.	 3.045868e-01
7	 2	 90	 flanked	 rf	 8	 0.320000	 2.000000	 flanked_rf_freq_8_amplitude_0.32_rep_0_l_H_2.0.png	 H	 l	 l	 n.a.	 2.619961e-01
7	 2	 91	 flanked	 rf	 2	 0.268300	 2.000000	 flanked_rf_freq_2_amplitude_0.2683_rep_7_r_N_2.0.png	 N	 r	 l	 n.a.	 3.719000e-01
7	 2	 92	 flanked	 rf	 8	 0.010000	 2.000000	 flanked_rf_freq_8_amplitude_0.01_rep_4_r_H_2.0.png	 H	 r	 t	 n.a.	 3.893185e-01
7	 2	 93	 flanked	 rf	 12	 0.113300	 2.000000	 flanked_rf_freq_12_amplitude_0.1133_rep_6_b_D_2.0.png	 D	 b	 l	 n.a.	 3.700670e-01
7	 2	 94	 flanked	 rf	 5	 0.165000	 2.000000	 flanked_rf_freq_5_amplitude_0.165_rep_7_b_N_2.0.png	 N	 b	 r	 n.a.	 6.648105e-01
7	 2	 95	 flanked	 rf	 2	 0.320000	 2.000000	 flanked_rf_freq_2_amplitude_0.32_rep_4_b_N_2.0.png	 N	 b	 b	 n.a.	 3.608536e-01
7	 2	 96	 flanked	 rf	 3	 0.113300	 2.000000	 flanked_rf_freq_3_amplitude_0.1133_rep_3_t_N_2.0.png	 N	 t	 r	 n.a.	 4.688812e-01
7	 2	 97	 flanked	 rf	 5	 0.165000	 2.000000	 flanked_rf_freq_5_amplitude_0.165_rep_0_r_D_2.0.png	 D	 r	 r	 n.a.	 4.643500e-01
7	 2	 98	 flanked	 rf	 8	 0.113300	 2.000000	 flanked_rf_freq_8_amplitude_0.1133_rep_2_r_N_2.0.png	 N	 r	 r	 n.a.	 4.928255e-01
7	 2	 99	 flanked	 rf	 3	 0.010000	 2.000000	 flanked_rf_freq_3_amplitude_0.01_rep_4_r_D_2.0.png	 D	 r	 b	 n.a.	 5.549414e-01
7	 2	 100	 flanked	 rf	 4	 0.061700	 2.000000	 flanked_rf_freq_4_amplitude_0.0617_rep_2_t_N_2.0.png	 N	 t	 t	 n.a.	 3.961753e-01
7	 2	 101	 flanked	 rf	 5	 0.268300	 2.000000	 flanked_rf_freq_5_amplitude_0.2683_rep_3_l_K_2.0.png	 K	 l	 l	 n.a.	 3.267531e-01
7	 2	 102	 flanked	 rf	 8	 0.165000	 2.000000	 flanked_rf_freq_8_amplitude_0.165_rep_9_l_D_2.0.png	 D	 l	 l	 n.a.	 3.120919e-01
7	 2	 103	 flanked	 rf	 4	 0.165000	 2.000000	 flanked_rf_freq_4_amplitude_0.165_rep_7_r_D_2.0.png	 D	 r	 r	 n.a.	 4.915775e-01
7	 2	 104	 flanked	 rf	 4	 0.113300	 2.000000	 flanked_rf_freq_4_amplitude_0.1133_rep_8_b_D_2.0.png	 D	 b	 r	 n.a.	 4.793727e-01
7	 2	 105	 flanked	 rf	 4	 0.216700	 2.000000	 flanked_rf_freq_4_amplitude_0.2167_rep_5_t_D_2.0.png	 D	 t	 l	 n.a.	 6.922520e-01
7	 2	 106	 flanked	 rf	 8	 0.061700	 2.000000	 flanked_rf_freq_8_amplitude_0.0617_rep_9_b_K_2.0.png	 K	 b	 b	 n.a.	 3.783596e-01
7	 2	 107	 flanked	 rf	 4	 0.320000	 2.000000	 flanked_rf_freq_4_amplitude_0.32_rep_9_b_K_2.0.png	 K	 b	 b	 n.a.	 4.036111e-01
7	 2	 108	 flanked	 rf	 4	 0.216700	 2.000000	 flanked_rf_freq_4_amplitude_0.2167_rep_3_l_H_2.0.png	 H	 l	 l	 n.a.	 4.570672e-01
7	 2	 109	 flanked	 rf	 8	 0.268300	 2.000000	 flanked_rf_freq_8_amplitude_0.2683_rep_8_b_H_2.0.png	 H	 b	 b	 n.a.	 3.990523e-01
7	 2	 110	 flanked	 rf	 12	 0.113300	 2.000000	 flanked_rf_freq_12_amplitude_0.1133_rep_0_b_N_2.0.png	 N	 b	 b	 n.a.	 4.416777e-01
7	 2	 111	 flanked	 rf	 4	 0.010000	 2.000000	 flanked_rf_freq_4_amplitude_0.01_rep_2_b_H_2.0.png	 H	 b	 l	 n.a.	 3.846007e-01
7	 2	 112	 flanked	 rf	 2	 0.216700	 2.000000	 flanked_rf_freq_2_amplitude_0.2167_rep_3_r_N_2.0.png	 N	 r	 t	 n.a.	 6.725030e-01
7	 2	 113	 flanked	 rf	 3	 0.113300	 2.000000	 flanked_rf_freq_3_amplitude_0.1133_rep_1_t_K_2.0.png	 K	 t	 t	 n.a.	 4.223224e-01
7	 2	 114	 flanked	 rf	 2	 0.061700	 2.000000	 flanked_rf_freq_2_amplitude_0.0617_rep_9_r_K_2.0.png	 K	 r	 r	 n.a.	 3.885362e-01
7	 2	 115	 flanked	 rf	 4	 0.113300	 2.000000	 flanked_rf_freq_4_amplitude_0.1133_rep_4_t_H_2.0.png	 H	 t	 b	 n.a.	 5.883695e-01
7	 2	 116	 flanked	 rf	 4	 0.010000	 2.000000	 flanked_rf_freq_4_amplitude_0.01_rep_3_t_K_2.0.png	 K	 t	 t	 n.a.	 3.745042e-01
7	 2	 117	 flanked	 rf	 2	 0.216700	 2.000000	 flanked_rf_freq_2_amplitude_0.2167_rep_2_b_D_2.0.png	 D	 b	 t	 n.a.	 7.344830e-01
7	 2	 118	 flanked	 rf	 5	 0.010000	 2.000000	 flanked_rf_freq_5_amplitude_0.01_rep_8_r_H_2.0.png	 H	 r	 r	 n.a.	 5.893789e-01
7	 2	 119	 flanked	 rf	 12	 0.165000	 2.000000	 flanked_rf_freq_12_amplitude_0.165_rep_6_l_H_2.0.png	 H	 l	 l	 n.a.	 4.012679e-01
7	 2	 120	 flanked	 rf	 3	 0.165000	 2.000000	 flanked_rf_freq_3_amplitude_0.165_rep_6_l_D_2.0.png	 D	 l	 l	 n.a.	 5.190149e-01
7	 2	 121	 flanked	 rf	 2	 0.320000	 2.000000	 flanked_rf_freq_2_amplitude_0.32_rep_8_r_H_2.0.png	 H	 r	 r	 n.a.	 4.788229e-01
7	 2	 122	 flanked	 rf	 5	 0.216700	 2.000000	 flanked_rf_freq_5_amplitude_0.2167_rep_2_r_K_2.0.png	 K	 r	 r	 n.a.	 4.255480e-01
7	 2	 123	 flanked	 rf	 5	 0.320000	 2.000000	 flanked_rf_freq_5_amplitude_0.32_rep_4_t_H_2.0.png	 H	 t	 t	 n.a.	 4.229472e-01
7	 2	 124	 flanked	 rf	 12	 0.216700	 2.000000	 flanked_rf_freq_12_amplitude_0.2167_rep_6_t_K_2.0.png	 K	 t	 t	 n.a.	 4.030253e-01
7	 2	 125	 flanked	 rf	 8	 0.113300	 2.000000	 flanked_rf_freq_8_amplitude_0.1133_rep_0_l_D_2.0.png	 D	 l	 l	 n.a.	 4.069849e-01
7	 2	 126	 flanked	 rf	 3	 0.216700	 2.000000	 flanked_rf_freq_3_amplitude_0.2167_rep_9_b_D_2.0.png	 D	 b	 t	 n.a.	 5.129800e-01
7	 2	 127	 flanked	 rf	 2	 0.165000	 2.000000	 flanked_rf_freq_2_amplitude_0.165_rep_7_b_H_2.0.png	 H	 b	 b	 n.a.	 4.551809e-01
7	 2	 128	 flanked	 rf	 5	 0.320000	 2.000000	 flanked_rf_freq_5_amplitude_0.32_rep_6_r_N_2.0.png	 N	 r	 r	 n.a.	 4.635785e-01
7	 2	 129	 flanked	 rf	 4	 0.268300	 2.000000	 flanked_rf_freq_4_amplitude_0.2683_rep_5_r_K_2.0.png	 K	 r	 r	 n.a.	 3.771311e-01
7	 2	 130	 flanked	 rf	 4	 0.268300	 2.000000	 flanked_rf_freq_4_amplitude_0.2683_rep_9_b_D_2.0.png	 D	 b	 t	 n.a.	 5.488094e-01
7	 2	 131	 flanked	 rf	 5	 0.320000	 2.000000	 flanked_rf_freq_5_amplitude_0.32_rep_0_l_K_2.0.png	 K	 l	 l	 n.a.	 3.499457e-01
7	 2	 132	 flanked	 rf	 8	 0.113300	 2.000000	 flanked_rf_freq_8_amplitude_0.1133_rep_7_r_D_2.0.png	 D	 r	 r	 n.a.	 3.799904e-01
7	 2	 133	 flanked	 rf	 5	 0.268300	 2.000000	 flanked_rf_freq_5_amplitude_0.2683_rep_5_l_K_2.0.png	 K	 l	 l	 n.a.	 4.018817e-01
7	 2	 134	 flanked	 rf	 2	 0.165000	 2.000000	 flanked_rf_freq_2_amplitude_0.165_rep_0_t_N_2.0.png	 N	 t	 r	 n.a.	 4.943064e-01
7	 2	 135	 flanked	 rf	 5	 0.268300	 2.000000	 flanked_rf_freq_5_amplitude_0.2683_rep_9_t_H_2.0.png	 H	 t	 t	 n.a.	 3.915122e-01
7	 2	 136	 flanked	 rf	 3	 0.010000	 2.000000	 flanked_rf_freq_3_amplitude_0.01_rep_5_t_N_2.0.png	 N	 t	 t	 n.a.	 5.186624e-01
7	 2	 137	 flanked	 rf	 3	 0.320000	 2.000000	 flanked_rf_freq_3_amplitude_0.32_rep_0_b_K_2.0.png	 K	 b	 b	 n.a.	 5.415927e-01
7	 2	 138	 flanked	 rf	 4	 0.320000	 2.000000	 flanked_rf_freq_4_amplitude_0.32_rep_6_r_N_2.0.png	 N	 r	 r	 n.a.	 3.659111e-01
7	 2	 139	 flanked	 rf	 3	 0.320000	 2.000000	 flanked_rf_freq_3_amplitude_0.32_rep_5_b_H_2.0.png	 H	 b	 b	 n.a.	 4.664078e-01
7	 2	 140	 flanked	 rf	 5	 0.113300	 2.000000	 flanked_rf_freq_5_amplitude_0.1133_rep_1_b_N_2.0.png	 N	 b	 r	 n.a.	 4.248624e-01
7	 2	 141	 flanked	 rf	 5	 0.165000	 2.000000	 flanked_rf_freq_5_amplitude_0.165_rep_9_b_H_2.0.png	 H	 b	 t	 n.a.	 3.837197e-01
7	 2	 142	 flanked	 rf	 3	 0.010000	 2.000000	 flanked_rf_freq_3_amplitude_0.01_rep_0_t_N_2.0.png	 N	 t	 r	 n.a.	 3.550246e-01
7	 2	 143	 flanked	 rf	 2	 0.320000	 2.000000	 flanked_rf_freq_2_amplitude_0.32_rep_3_r_D_2.0.png	 D	 r	 r	 n.a.	 3.643816e-01
7	 2	 144	 flanked	 rf	 2	 0.268300	 2.000000	 flanked_rf_freq_2_amplitude_0.2683_rep_9_b_H_2.0.png	 H	 b	 t	 n.a.	 3.981044e-01
7	 2	 145	 flanked	 rf	 8	 0.113300	 2.000000	 flanked_rf_freq_8_amplitude_0.1133_rep_5_b_H_2.0.png	 H	 b	 b	 n.a.	 3.686816e-01
7	 2	 146	 flanked	 rf	 5	 0.061700	 2.000000	 flanked_rf_freq_5_amplitude_0.0617_rep_7_t_D_2.0.png	 D	 t	 b	 n.a.	 3.857565e-01
7	 2	 147	 flanked	 rf	 5	 0.320000	 2.000000	 flanked_rf_freq_5_amplitude_0.32_rep_1_l_H_2.0.png	 H	 l	 l	 n.a.	 3.203436e-01
7	 2	 148	 flanked	 rf	 5	 0.216700	 2.000000	 flanked_rf_freq_5_amplitude_0.2167_rep_5_r_H_2.0.png	 H	 r	 r	 n.a.	 3.158743e-01
7	 2	 149	 flanked	 rf	 4	 0.268300	 2.000000	 flanked_rf_freq_4_amplitude_0.2683_rep_3_l_N_2.0.png	 N	 l	 l	 n.a.	 3.134730e-01
7	 2	 150	 flanked	 rf	 3	 0.061700	 2.000000	 flanked_rf_freq_3_amplitude_0.0617_rep_2_t_K_2.0.png	 K	 t	 b	 n.a.	 8.161099e-01
7	 2	 151	 flanked	 rf	 8	 0.010000	 2.000000	 flanked_rf_freq_8_amplitude_0.01_rep_6_l_N_2.0.png	 N	 l	 r	 n.a.	 4.338341e-01
7	 2	 152	 flanked	 rf	 2	 0.010000	 2.000000	 flanked_rf_freq_2_amplitude_0.01_rep_4_b_K_2.0.png	 K	 b	 t	 n.a.	 5.502929e-01
7	 2	 153	 flanked	 rf	 12	 0.320000	 2.000000	 flanked_rf_freq_12_amplitude_0.32_rep_7_r_H_2.0.png	 H	 r	 r	 n.a.	 2.924091e-01
7	 2	 154	 flanked	 rf	 2	 0.268300	 2.000000	 flanked_rf_freq_2_amplitude_0.2683_rep_3_r_N_2.0.png	 N	 r	 r	 n.a.	 4.576353e-01
7	 2	 155	 flanked	 rf	 5	 0.268300	 2.000000	 flanked_rf_freq_5_amplitude_0.2683_rep_2_t_H_2.0.png	 H	 t	 b	 n.a.	 5.780232e-01
7	 2	 156	 flanked	 rf	 3	 0.010000	 2.000000	 flanked_rf_freq_3_amplitude_0.01_rep_7_t_H_2.0.png	 H	 t	 r	 n.a.	 5.346950e-01
7	 2	 157	 flanked	 rf	 4	 0.268300	 2.000000	 flanked_rf_freq_4_amplitude_0.2683_rep_0_t_K_2.0.png	 K	 t	 t	 n.a.	 4.642164e-01
7	 2	 158	 flanked	 rf	 4	 0.165000	 2.000000	 flanked_rf_freq_4_amplitude_0.165_rep_0_t_N_2.0.png	 N	 t	 l	 n.a.	 7.153246e-01
7	 2	 159	 flanked	 rf	 2	 0.320000	 2.000000	 flanked_rf_freq_2_amplitude_0.32_rep_5_b_H_2.0.png	 H	 b	 b	 n.a.	 3.788981e-01
7	 2	 160	 flanked	 rf	 2	 0.216700	 2.000000	 flanked_rf_freq_2_amplitude_0.2167_rep_0_t_N_2.0.png	 N	 t	 t	 n.a.	 5.779713e-01
7	 2	 161	 flanked	 rf	 4	 0.165000	 2.000000	 flanked_rf_freq_4_amplitude_0.165_rep_2_t_N_2.0.png	 N	 t	 r	 n.a.	 4.500073e-01
7	 2	 162	 flanked	 rf	 2	 0.113300	 2.000000	 flanked_rf_freq_2_amplitude_0.1133_rep_5_b_K_2.0.png	 K	 b	 b	 n.a.	 4.534283e-01
7	 2	 163	 flanked	 rf	 3	 0.165000	 2.000000	 flanked_rf_freq_3_amplitude_0.165_rep_0_t_H_2.0.png	 H	 t	 r	 n.a.	 6.088748e-01
7	 2	 164	 flanked	 rf	 8	 0.268300	 2.000000	 flanked_rf_freq_8_amplitude_0.2683_rep_7_l_N_2.0.png	 N	 l	 l	 n.a.	 3.138977e-01
7	 2	 165	 flanked	 rf	 4	 0.165000	 2.000000	 flanked_rf_freq_4_amplitude_0.165_rep_9_b_D_2.0.png	 D	 b	 b	 n.a.	 7.471180e-01
7	 2	 166	 flanked	 rf	 12	 0.061700	 2.000000	 flanked_rf_freq_12_amplitude_0.0617_rep_1_r_K_2.0.png	 K	 r	 r	 n.a.	 4.401914e-01
7	 2	 167	 flanked	 rf	 3	 0.216700	 2.000000	 flanked_rf_freq_3_amplitude_0.2167_rep_7_l_H_2.0.png	 H	 l	 b	 n.a.	 6.303182e-01
7	 2	 168	 flanked	 rf	 12	 0.165000	 2.000000	 flanked_rf_freq_12_amplitude_0.165_rep_7_l_H_2.0.png	 H	 l	 l	 n.a.	 4.725276e-01
7	 2	 169	 flanked	 rf	 2	 0.216700	 2.000000	 flanked_rf_freq_2_amplitude_0.2167_rep_8_r_H_2.0.png	 H	 r	 r	 n.a.	 5.178890e-01
7	 2	 170	 flanked	 rf	 8	 0.268300	 2.000000	 flanked_rf_freq_8_amplitude_0.2683_rep_1_r_H_2.0.png	 H	 r	 r	 n.a.	 4.667178e-01
7	 2	 171	 flanked	 rf	 3	 0.165000	 2.000000	 flanked_rf_freq_3_amplitude_0.165_rep_2_t_D_2.0.png	 D	 t	 t	 n.a.	 5.875294e-01
7	 2	 172	 flanked	 rf	 3	 0.320000	 2.000000	 flanked_rf_freq_3_amplitude_0.32_rep_7_r_D_2.0.png	 D	 r	 r	 n.a.	 4.530550e-01
7	 2	 173	 flanked	 rf	 8	 0.320000	 2.000000	 flanked_rf_freq_8_amplitude_0.32_rep_1_t_N_2.0.png	 N	 t	 t	 n.a.	 4.094550e-01
7	 2	 174	 flanked	 rf	 3	 0.061700	 2.000000	 flanked_rf_freq_3_amplitude_0.0617_rep_4_r_N_2.0.png	 N	 r	 t	 n.a.	 5.146952e-01
7	 2	 175	 flanked	 rf	 12	 0.010000	 2.000000	 flanked_rf_freq_12_amplitude_0.01_rep_1_l_D_2.0.png	 D	 l	 r	 n.a.	 4.371903e-01
7	 2	 176	 flanked	 rf	 5	 0.320000	 2.000000	 flanked_rf_freq_5_amplitude_0.32_rep_3_l_D_2.0.png	 D	 l	 l	 n.a.	 4.380954e-01
7	 2	 177	 flanked	 rf	 2	 0.165000	 2.000000	 flanked_rf_freq_2_amplitude_0.165_rep_8_l_H_2.0.png	 H	 l	 b	 n.a.	 7.352025e-01
7	 2	 178	 flanked	 rf	 8	 0.010000	 2.000000	 flanked_rf_freq_8_amplitude_0.01_rep_8_t_K_2.0.png	 K	 t	 t	 n.a.	 5.169414e-01
7	 2	 179	 flanked	 rf	 4	 0.061700	 2.000000	 flanked_rf_freq_4_amplitude_0.0617_rep_6_b_N_2.0.png	 N	 b	 r	 n.a.	 4.938704e-01
7	 2	 180	 flanked	 rf	 8	 0.320000	 2.000000	 flanked_rf_freq_8_amplitude_0.32_rep_5_t_D_2.0.png	 D	 t	 t	 n.a.	 3.361039e-01
7	 2	 181	 flanked	 rf	 3	 0.113300	 2.000000	 flanked_rf_freq_3_amplitude_0.1133_rep_0_b_K_2.0.png	 K	 b	 b	 n.a.	 5.997785e-01
7	 2	 182	 flanked	 rf	 2	 0.010000	 2.000000	 flanked_rf_freq_2_amplitude_0.01_rep_3_b_K_2.0.png	 K	 b	 t	 n.a.	 5.873698e-01
7	 2	 183	 flanked	 rf	 5	 0.216700	 2.000000	 flanked_rf_freq_5_amplitude_0.2167_rep_7_t_D_2.0.png	 D	 t	 r	 n.a.	 6.330054e-01
7	 2	 184	 flanked	 rf	 4	 0.061700	 2.000000	 flanked_rf_freq_4_amplitude_0.0617_rep_0_r_H_2.0.png	 H	 r	 r	 n.a.	 6.859190e-01
7	 2	 185	 flanked	 rf	 12	 0.320000	 2.000000	 flanked_rf_freq_12_amplitude_0.32_rep_1_b_H_2.0.png	 H	 b	 b	 n.a.	 4.301256e-01
7	 2	 186	 flanked	 rf	 4	 0.113300	 2.000000	 flanked_rf_freq_4_amplitude_0.1133_rep_3_r_K_2.0.png	 K	 r	 r	 n.a.	 4.626276e-01
7	 2	 187	 flanked	 rf	 12	 0.061700	 2.000000	 flanked_rf_freq_12_amplitude_0.0617_rep_9_l_H_2.0.png	 H	 l	 t	 n.a.	 6.642451e-01
7	 2	 188	 flanked	 rf	 5	 0.216700	 2.000000	 flanked_rf_freq_5_amplitude_0.2167_rep_4_t_K_2.0.png	 K	 t	 t	 n.a.	 5.571813e-01
7	 2	 189	 flanked	 rf	 2	 0.165000	 2.000000	 flanked_rf_freq_2_amplitude_0.165_rep_2_b_D_2.0.png	 D	 b	 b	 n.a.	 6.036340e-01
7	 2	 190	 flanked	 rf	 12	 0.268300	 2.000000	 flanked_rf_freq_12_amplitude_0.2683_rep_1_b_H_2.0.png	 H	 b	 b	 n.a.	 5.660207e-01
7	 2	 191	 flanked	 rf	 8	 0.216700	 2.000000	 flanked_rf_freq_8_amplitude_0.2167_rep_1_b_D_2.0.png	 D	 b	 b	 n.a.	 7.014373e-01
7	 2	 192	 flanked	 rf	 3	 0.010000	 2.000000	 flanked_rf_freq_3_amplitude_0.01_rep_1_r_K_2.0.png	 K	 r	 r	 n.a.	 7.781919e-01
7	 2	 193	 flanked	 rf	 8	 0.268300	 2.000000	 flanked_rf_freq_8_amplitude_0.2683_rep_5_b_D_2.0.png	 D	 b	 b	 n.a.	 5.046448e-01
7	 2	 194	 flanked	 rf	 3	 0.320000	 2.000000	 flanked_rf_freq_3_amplitude_0.32_rep_6_l_H_2.0.png	 H	 l	 l	 n.a.	 8.552997e-01
7	 2	 195	 flanked	 rf	 5	 0.320000	 2.000000	 flanked_rf_freq_5_amplitude_0.32_rep_9_r_N_2.0.png	 N	 r	 r	 n.a.	 6.010219e-01
7	 2	 196	 flanked	 rf	 2	 0.165000	 2.000000	 flanked_rf_freq_2_amplitude_0.165_rep_1_r_H_2.0.png	 H	 r	 b	 n.a.	 5.626624e-01
7	 2	 197	 flanked	 rf	 3	 0.165000	 2.000000	 flanked_rf_freq_3_amplitude_0.165_rep_7_r_K_2.0.png	 K	 r	 r	 n.a.	 4.298875e-01
7	 2	 198	 flanked	 rf	 12	 0.061700	 2.000000	 flanked_rf_freq_12_amplitude_0.0617_rep_8_t_H_2.0.png	 H	 t	 l	 n.a.	 4.404211e-01
7	 2	 199	 flanked	 rf	 5	 0.010000	 2.000000	 flanked_rf_freq_5_amplitude_0.01_rep_2_b_N_2.0.png	 N	 b	 r	 n.a.	 3.900462e-01
7	 2	 200	 flanked	 rf	 8	 0.320000	 2.000000	 flanked_rf_freq_8_amplitude_0.32_rep_3_r_N_2.0.png	 N	 r	 r	 n.a.	 4.284061e-01
7	 2	 201	 flanked	 rf	 12	 0.268300	 2.000000	 flanked_rf_freq_12_amplitude_0.2683_rep_4_b_D_2.0.png	 D	 b	 b	 n.a.	 3.830462e-01
7	 2	 202	 flanked	 rf	 12	 0.216700	 2.000000	 flanked_rf_freq_12_amplitude_0.2167_rep_0_t_K_2.0.png	 K	 t	 t	 n.a.	 3.423294e-01
7	 2	 203	 flanked	 rf	 3	 0.113300	 2.000000	 flanked_rf_freq_3_amplitude_0.1133_rep_9_t_N_2.0.png	 N	 t	 l	 n.a.	 4.559118e-01
7	 2	 204	 flanked	 rf	 4	 0.268300	 2.000000	 flanked_rf_freq_4_amplitude_0.2683_rep_1_l_D_2.0.png	 D	 l	 b	 n.a.	 4.734787e-01
7	 2	 205	 flanked	 rf	 5	 0.165000	 2.000000	 flanked_rf_freq_5_amplitude_0.165_rep_3_b_D_2.0.png	 D	 b	 t	 n.a.	 5.313453e-01
7	 2	 206	 flanked	 rf	 12	 0.268300	 2.000000	 flanked_rf_freq_12_amplitude_0.2683_rep_3_l_K_2.0.png	 K	 l	 l	 n.a.	 2.858966e-01
7	 2	 207	 flanked	 rf	 8	 0.165000	 2.000000	 flanked_rf_freq_8_amplitude_0.165_rep_6_l_H_2.0.png	 H	 l	 l	 n.a.	 5.620951e-01
7	 2	 208	 flanked	 rf	 4	 0.268300	 2.000000	 flanked_rf_freq_4_amplitude_0.2683_rep_4_b_H_2.0.png	 H	 b	 b	 n.a.	 4.006334e-01
7	 2	 209	 flanked	 rf	 12	 0.010000	 2.000000	 flanked_rf_freq_12_amplitude_0.01_rep_7_b_N_2.0.png	 N	 b	 b	 n.a.	 6.480333e-01
7	 2	 210	 flanked	 rf	 4	 0.113300	 2.000000	 flanked_rf_freq_4_amplitude_0.1133_rep_0_b_D_2.0.png	 D	 b	 t	 n.a.	 6.668469e-01
7	 2	 211	 flanked	 rf	 4	 0.061700	 2.000000	 flanked_rf_freq_4_amplitude_0.0617_rep_7_b_K_2.0.png	 K	 b	 t	 n.a.	 4.367883e-01
7	 2	 212	 flanked	 rf	 5	 0.010000	 2.000000	 flanked_rf_freq_5_amplitude_0.01_rep_5_r_D_2.0.png	 D	 r	 t	 n.a.	 5.436851e-01
7	 2	 213	 flanked	 rf	 12	 0.320000	 2.000000	 flanked_rf_freq_12_amplitude_0.32_rep_4_r_D_2.0.png	 D	 r	 r	 n.a.	 2.251034e-01
7	 2	 214	 flanked	 rf	 5	 0.320000	 2.000000	 flanked_rf_freq_5_amplitude_0.32_rep_8_b_K_2.0.png	 K	 b	 b	 n.a.	 3.260243e-01
7	 2	 215	 flanked	 rf	 3	 0.216700	 2.000000	 flanked_rf_freq_3_amplitude_0.2167_rep_8_t_K_2.0.png	 K	 t	 t	 n.a.	 4.164171e-01
7	 2	 216	 flanked	 rf	 3	 0.216700	 2.000000	 flanked_rf_freq_3_amplitude_0.2167_rep_2_r_D_2.0.png	 D	 r	 r	 n.a.	 3.282488e-01
7	 2	 217	 flanked	 rf	 2	 0.061700	 2.000000	 flanked_rf_freq_2_amplitude_0.0617_rep_7_l_N_2.0.png	 N	 l	 t	 n.a.	 3.130358e-01
7	 2	 218	 flanked	 rf	 2	 0.216700	 2.000000	 flanked_rf_freq_2_amplitude_0.2167_rep_7_l_K_2.0.png	 K	 l	 t	 n.a.	 3.504141e-01
7	 2	 219	 flanked	 rf	 5	 0.268300	 2.000000	 flanked_rf_freq_5_amplitude_0.2683_rep_1_b_H_2.0.png	 H	 b	 b	 n.a.	 3.581806e-01
7	 2	 220	 flanked	 rf	 3	 0.268300	 2.000000	 flanked_rf_freq_3_amplitude_0.2683_rep_0_b_K_2.0.png	 K	 b	 t	 n.a.	 4.865313e-01
7	 2	 221	 flanked	 rf	 4	 0.320000	 2.000000	 flanked_rf_freq_4_amplitude_0.32_rep_4_r_K_2.0.png	 K	 r	 r	 n.a.	 2.463683e-01
7	 2	 222	 flanked	 rf	 5	 0.268300	 2.000000	 flanked_rf_freq_5_amplitude_0.2683_rep_0_b_N_2.0.png	 N	 b	 b	 n.a.	 3.559391e-01
7	 2	 223	 flanked	 rf	 12	 0.061700	 2.000000	 flanked_rf_freq_12_amplitude_0.0617_rep_0_b_D_2.0.png	 D	 b	 b	 n.a.	 3.618773e-01
7	 2	 224	 flanked	 rf	 3	 0.113300	 2.000000	 flanked_rf_freq_3_amplitude_0.1133_rep_7_r_D_2.0.png	 D	 r	 b	 n.a.	 4.552374e-01
7	 2	 225	 flanked	 rf	 12	 0.320000	 2.000000	 flanked_rf_freq_12_amplitude_0.32_rep_6_l_N_2.0.png	 N	 l	 l	 n.a.	 2.779336e-01
7	 2	 226	 flanked	 rf	 2	 0.061700	 2.000000	 flanked_rf_freq_2_amplitude_0.0617_rep_6_t_H_2.0.png	 H	 t	 t	 n.a.	 3.073474e-01
7	 2	 227	 flanked	 rf	 4	 0.320000	 2.000000	 flanked_rf_freq_4_amplitude_0.32_rep_7_r_D_2.0.png	 D	 r	 r	 n.a.	 3.265709e-01
7	 2	 228	 flanked	 rf	 12	 0.113300	 2.000000	 flanked_rf_freq_12_amplitude_0.1133_rep_7_t_D_2.0.png	 D	 t	 t	 n.a.	 2.940045e-01
7	 2	 229	 flanked	 rf	 12	 0.216700	 2.000000	 flanked_rf_freq_12_amplitude_0.2167_rep_8_t_N_2.0.png	 N	 t	 t	 n.a.	 2.445852e-01
7	 2	 230	 flanked	 rf	 4	 0.216700	 2.000000	 flanked_rf_freq_4_amplitude_0.2167_rep_6_b_N_2.0.png	 N	 b	 b	 n.a.	 5.752074e-01
7	 2	 231	 flanked	 rf	 2	 0.061700	 2.000000	 flanked_rf_freq_2_amplitude_0.0617_rep_5_t_K_2.0.png	 K	 t	 t	 n.a.	 3.782387e-01
7	 2	 232	 flanked	 rf	 5	 0.268300	 2.000000	 flanked_rf_freq_5_amplitude_0.2683_rep_6_b_N_2.0.png	 N	 b	 r	 n.a.	 4.870672e-01
7	 2	 233	 flanked	 rf	 3	 0.268300	 2.000000	 flanked_rf_freq_3_amplitude_0.2683_rep_7_b_N_2.0.png	 N	 b	 t	 n.a.	 3.868659e-01
7	 2	 234	 flanked	 rf	 8	 0.216700	 2.000000	 flanked_rf_freq_8_amplitude_0.2167_rep_7_b_K_2.0.png	 K	 b	 b	 n.a.	 3.263835e-01
7	 2	 235	 flanked	 rf	 5	 0.061700	 2.000000	 flanked_rf_freq_5_amplitude_0.0617_rep_2_l_K_2.0.png	 K	 l	 l	 n.a.	 4.184692e-01
7	 2	 236	 flanked	 rf	 5	 0.268300	 2.000000	 flanked_rf_freq_5_amplitude_0.2683_rep_7_r_K_2.0.png	 K	 r	 r	 n.a.	 3.890717e-01
7	 2	 237	 flanked	 rf	 4	 0.010000	 2.000000	 flanked_rf_freq_4_amplitude_0.01_rep_7_l_K_2.0.png	 K	 l	 l	 n.a.	 4.356433e-01
7	 2	 238	 flanked	 rf	 2	 0.010000	 2.000000	 flanked_rf_freq_2_amplitude_0.01_rep_5_r_H_2.0.png	 H	 r	 b	 n.a.	 5.286779e-01
7	 2	 239	 flanked	 rf	 4	 0.165000	 2.000000	 flanked_rf_freq_4_amplitude_0.165_rep_5_b_K_2.0.png	 K	 b	 t	 n.a.	 3.526722e-01
7	 2	 240	 flanked	 rf	 3	 0.165000	 2.000000	 flanked_rf_freq_3_amplitude_0.165_rep_3_l_N_2.0.png	 N	 l	 t	 n.a.	 6.407578e-01
7	 2	 241	 flanked	 rf	 5	 0.320000	 2.000000	 flanked_rf_freq_5_amplitude_0.32_rep_2_t_D_2.0.png	 D	 t	 t	 n.a.	 4.711499e-01
7	 2	 242	 flanked	 rf	 4	 0.010000	 2.000000	 flanked_rf_freq_4_amplitude_0.01_rep_6_r_H_2.0.png	 H	 r	 b	 n.a.	 6.752911e-01
7	 2	 243	 flanked	 rf	 8	 0.010000	 2.000000	 flanked_rf_freq_8_amplitude_0.01_rep_0_t_H_2.0.png	 H	 t	 t	 n.a.	 5.556238e-01
7	 2	 244	 flanked	 rf	 3	 0.216700	 2.000000	 flanked_rf_freq_3_amplitude_0.2167_rep_3_t_N_2.0.png	 N	 t	 b	 n.a.	 6.430811e-01
7	 2	 245	 flanked	 rf	 4	 0.268300	 2.000000	 flanked_rf_freq_4_amplitude_0.2683_rep_8_b_K_2.0.png	 K	 b	 b	 n.a.	 4.831433e-01
7	 2	 246	 flanked	 rf	 8	 0.061700	 2.000000	 flanked_rf_freq_8_amplitude_0.0617_rep_6_b_N_2.0.png	 N	 b	 r	 n.a.	 6.237039e-01
7	 2	 247	 flanked	 rf	 12	 0.165000	 2.000000	 flanked_rf_freq_12_amplitude_0.165_rep_4_t_N_2.0.png	 N	 t	 t	 n.a.	 2.676157e-01
7	 2	 248	 flanked	 rf	 12	 0.010000	 2.000000	 flanked_rf_freq_12_amplitude_0.01_rep_8_b_K_2.0.png	 K	 b	 b	 n.a.	 4.256051e-01
7	 2	 249	 flanked	 rf	 12	 0.268300	 2.000000	 flanked_rf_freq_12_amplitude_0.2683_rep_6_l_K_2.0.png	 K	 l	 l	 n.a.	 3.231119e-01
7	 2	 250	 flanked	 rf	 5	 0.061700	 2.000000	 flanked_rf_freq_5_amplitude_0.0617_rep_4_l_D_2.0.png	 D	 l	 b	 n.a.	 6.647192e-01
7	 2	 251	 flanked	 rf	 2	 0.320000	 2.000000	 flanked_rf_freq_2_amplitude_0.32_rep_2_l_N_2.0.png	 N	 l	 l	 n.a.	 4.949479e-01
7	 2	 252	 flanked	 rf	 3	 0.061700	 2.000000	 flanked_rf_freq_3_amplitude_0.0617_rep_3_b_H_2.0.png	 H	 b	 b	 n.a.	 4.640973e-01
7	 2	 253	 flanked	 rf	 8	 0.268300	 2.000000	 flanked_rf_freq_8_amplitude_0.2683_rep_6_l_N_2.0.png	 N	 l	 l	 n.a.	 2.877340e-01
7	 2	 254	 flanked	 rf	 3	 0.061700	 2.000000	 flanked_rf_freq_3_amplitude_0.0617_rep_8_t_H_2.0.png	 H	 t	 l	 n.a.	 5.455831e-01
7	 2	 255	 flanked	 rf	 5	 0.216700	 2.000000	 flanked_rf_freq_5_amplitude_0.2167_rep_0_t_K_2.0.png	 K	 t	 t	 n.a.	 2.534754e-01
7	 2	 256	 flanked	 rf	 12	 0.010000	 2.000000	 flanked_rf_freq_12_amplitude_0.01_rep_6_b_N_2.0.png	 N	 b	 t	 n.a.	 5.809813e-01
7	 2	 257	 flanked	 rf	 8	 0.010000	 2.000000	 flanked_rf_freq_8_amplitude_0.01_rep_7_b_D_2.0.png	 D	 b	 b	 n.a.	 3.889016e-01
7	 2	 258	 flanked	 rf	 8	 0.113300	 2.000000	 flanked_rf_freq_8_amplitude_0.1133_rep_9_r_H_2.0.png	 H	 r	 b	 n.a.	 5.910629e-01
7	 2	 259	 flanked	 rf	 12	 0.165000	 2.000000	 flanked_rf_freq_12_amplitude_0.165_rep_1_r_H_2.0.png	 H	 r	 r	 n.a.	 3.446654e-01
7	 2	 260	 flanked	 rf	 2	 0.165000	 2.000000	 flanked_rf_freq_2_amplitude_0.165_rep_3_b_K_2.0.png	 K	 b	 t	 n.a.	 1.035848e+00
7	 2	 261	 flanked	 rf	 3	 0.268300	 2.000000	 flanked_rf_freq_3_amplitude_0.2683_rep_6_r_D_2.0.png	 D	 r	 r	 n.a.	 5.410047e-01
7	 2	 262	 flanked	 rf	 5	 0.010000	 2.000000	 flanked_rf_freq_5_amplitude_0.01_rep_6_t_H_2.0.png	 H	 t	 r	 n.a.	 5.940552e-01
7	 2	 263	 flanked	 rf	 4	 0.165000	 2.000000	 flanked_rf_freq_4_amplitude_0.165_rep_4_l_H_2.0.png	 H	 l	 b	 n.a.	 5.558960e-01
7	 2	 264	 flanked	 rf	 8	 0.010000	 2.000000	 flanked_rf_freq_8_amplitude_0.01_rep_1_t_N_2.0.png	 N	 t	 l	 n.a.	 3.899669e-01
7	 2	 265	 flanked	 rf	 2	 0.268300	 2.000000	 flanked_rf_freq_2_amplitude_0.2683_rep_8_l_H_2.0.png	 H	 l	 t	 n.a.	 3.492601e-01
7	 2	 266	 flanked	 rf	 3	 0.268300	 2.000000	 flanked_rf_freq_3_amplitude_0.2683_rep_4_t_N_2.0.png	 N	 t	 r	 n.a.	 6.715554e-01
7	 2	 267	 flanked	 rf	 8	 0.061700	 2.000000	 flanked_rf_freq_8_amplitude_0.0617_rep_3_b_H_2.0.png	 H	 b	 b	 n.a.	 3.761068e-01
7	 2	 268	 flanked	 rf	 12	 0.010000	 2.000000	 flanked_rf_freq_12_amplitude_0.01_rep_4_b_N_2.0.png	 N	 b	 t	 n.a.	 1.236363e+00
7	 2	 269	 flanked	 rf	 3	 0.320000	 2.000000	 flanked_rf_freq_3_amplitude_0.32_rep_3_r_N_2.0.png	 N	 r	 r	 n.a.	 5.187707e-01
7	 2	 270	 flanked	 rf	 5	 0.061700	 2.000000	 flanked_rf_freq_5_amplitude_0.0617_rep_5_b_D_2.0.png	 D	 b	 b	 n.a.	 6.071464e-01
7	 2	 271	 flanked	 rf	 12	 0.010000	 2.000000	 flanked_rf_freq_12_amplitude_0.01_rep_3_l_K_2.0.png	 K	 l	 r	 n.a.	 5.936140e-01
7	 2	 272	 flanked	 rf	 4	 0.320000	 2.000000	 flanked_rf_freq_4_amplitude_0.32_rep_2_r_H_2.0.png	 H	 r	 r	 n.a.	 5.543172e-01
7	 2	 273	 flanked	 rf	 2	 0.268300	 2.000000	 flanked_rf_freq_2_amplitude_0.2683_rep_5_b_H_2.0.png	 H	 b	 r	 n.a.	 7.267814e-01
7	 2	 274	 flanked	 rf	 3	 0.268300	 2.000000	 flanked_rf_freq_3_amplitude_0.2683_rep_3_l_H_2.0.png	 H	 l	 t	 n.a.	 4.375985e-01
7	 2	 275	 flanked	 rf	 2	 0.113300	 2.000000	 flanked_rf_freq_2_amplitude_0.1133_rep_7_r_N_2.0.png	 N	 r	 t	 n.a.	 2.974318e-01
7	 2	 276	 flanked	 rf	 8	 0.320000	 2.000000	 flanked_rf_freq_8_amplitude_0.32_rep_4_b_D_2.0.png	 D	 b	 b	 n.a.	 5.217852e-01
7	 2	 277	 flanked	 rf	 2	 0.216700	 2.000000	 flanked_rf_freq_2_amplitude_0.2167_rep_6_l_K_2.0.png	 K	 l	 b	 n.a.	 8.228905e-01
7	 2	 278	 flanked	 rf	 12	 0.320000	 2.000000	 flanked_rf_freq_12_amplitude_0.32_rep_3_b_H_2.0.png	 H	 b	 b	 n.a.	 3.570529e-01
7	 2	 279	 flanked	 rf	 3	 0.268300	 2.000000	 flanked_rf_freq_3_amplitude_0.2683_rep_9_r_K_2.0.png	 K	 r	 b	 n.a.	 4.513069e-01
7	 2	 280	 flanked	 rf	 8	 0.165000	 2.000000	 flanked_rf_freq_8_amplitude_0.165_rep_0_b_H_2.0.png	 H	 b	 b	 n.a.	 4.010396e-01
7	 2	 281	 flanked	 rf	 8	 0.268300	 2.000000	 flanked_rf_freq_8_amplitude_0.2683_rep_4_b_H_2.0.png	 H	 b	 b	 n.a.	 3.274128e-01
7	 2	 282	 flanked	 rf	 2	 0.320000	 2.000000	 flanked_rf_freq_2_amplitude_0.32_rep_7_l_D_2.0.png	 D	 l	 l	 n.a.	 3.146538e-01
7	 2	 283	 flanked	 rf	 5	 0.216700	 2.000000	 flanked_rf_freq_5_amplitude_0.2167_rep_6_t_K_2.0.png	 K	 t	 t	 n.a.	 2.721133e-01
7	 2	 284	 flanked	 rf	 12	 0.165000	 2.000000	 flanked_rf_freq_12_amplitude_0.165_rep_3_l_N_2.0.png	 N	 l	 l	 n.a.	 5.221153e-01
7	 2	 285	 flanked	 rf	 12	 0.010000	 2.000000	 flanked_rf_freq_12_amplitude_0.01_rep_0_t_D_2.0.png	 D	 t	 t	 n.a.	 4.887157e-01
7	 2	 286	 flanked	 rf	 2	 0.113300	 2.000000	 flanked_rf_freq_2_amplitude_0.1133_rep_4_b_D_2.0.png	 D	 b	 r	 n.a.	 5.788567e-01
7	 2	 287	 flanked	 rf	 5	 0.113300	 2.000000	 flanked_rf_freq_5_amplitude_0.1133_rep_7_r_D_2.0.png	 D	 r	 t	 n.a.	 5.260849e-01
7	 2	 288	 flanked	 rf	 12	 0.061700	 2.000000	 flanked_rf_freq_12_amplitude_0.0617_rep_6_t_N_2.0.png	 N	 t	 t	 n.a.	 5.345704e-01
7	 2	 289	 flanked	 rf	 8	 0.061700	 2.000000	 flanked_rf_freq_8_amplitude_0.0617_rep_2_r_K_2.0.png	 K	 r	 r	 n.a.	 3.451904e-01
7	 2	 290	 flanked	 rf	 4	 0.061700	 2.000000	 flanked_rf_freq_4_amplitude_0.0617_rep_4_b_D_2.0.png	 D	 b	 t	 n.a.	 4.083727e-01
7	 2	 291	 flanked	 rf	 5	 0.320000	 2.000000	 flanked_rf_freq_5_amplitude_0.32_rep_5_t_N_2.0.png	 N	 t	 r	 n.a.	 5.431549e-01
7	 2	 292	 flanked	 rf	 4	 0.010000	 2.000000	 flanked_rf_freq_4_amplitude_0.01_rep_1_r_H_2.0.png	 H	 r	 r	 n.a.	 4.893064e-01
7	 2	 293	 flanked	 rf	 12	 0.216700	 2.000000	 flanked_rf_freq_12_amplitude_0.2167_rep_2_b_N_2.0.png	 N	 b	 b	 n.a.	 3.506745e-01
7	 2	 294	 flanked	 rf	 4	 0.268300	 2.000000	 flanked_rf_freq_4_amplitude_0.2683_rep_6_l_N_2.0.png	 N	 l	 l	 n.a.	 3.841140e-01
7	 2	 295	 flanked	 rf	 3	 0.061700	 2.000000	 flanked_rf_freq_3_amplitude_0.0617_rep_9_l_H_2.0.png	 H	 l	 r	 n.a.	 6.533054e-01
7	 2	 296	 flanked	 rf	 12	 0.320000	 2.000000	 flanked_rf_freq_12_amplitude_0.32_rep_0_l_D_2.0.png	 D	 l	 l	 n.a.	 2.615025e-01
7	 2	 297	 flanked	 rf	 3	 0.320000	 2.000000	 flanked_rf_freq_3_amplitude_0.32_rep_4_r_D_2.0.png	 D	 r	 r	 n.a.	 4.236358e-01
7	 2	 298	 flanked	 rf	 5	 0.010000	 2.000000	 flanked_rf_freq_5_amplitude_0.01_rep_4_b_N_2.0.png	 N	 b	 r	 n.a.	 6.399322e-01
7	 2	 299	 flanked	 rf	 2	 0.061700	 2.000000	 flanked_rf_freq_2_amplitude_0.0617_rep_4_r_H_2.0.png	 H	 r	 b	 n.a.	 3.607088e-01
7	 2	 300	 flanked	 rf	 8	 0.061700	 2.000000	 flanked_rf_freq_8_amplitude_0.0617_rep_8_l_H_2.0.png	 H	 l	 b	 n.a.	 8.905404e-01
7	 2	 301	 flanked	 rf	 4	 0.216700	 2.000000	 flanked_rf_freq_4_amplitude_0.2167_rep_2_t_N_2.0.png	 N	 t	 l	 n.a.	 6.547195e-01
7	 2	 302	 flanked	 rf	 12	 0.268300	 2.000000	 flanked_rf_freq_12_amplitude_0.2683_rep_8_l_D_2.0.png	 D	 l	 l	 n.a.	 4.352325e-01
7	 2	 303	 flanked	 rf	 12	 0.268300	 2.000000	 flanked_rf_freq_12_amplitude_0.2683_rep_2_b_K_2.0.png	 K	 b	 b	 n.a.	 4.063000e-01
7	 2	 304	 flanked	 rf	 4	 0.061700	 2.000000	 flanked_rf_freq_4_amplitude_0.0617_rep_3_r_K_2.0.png	 K	 r	 r	 n.a.	 4.845333e-01
7	 2	 305	 flanked	 rf	 4	 0.010000	 2.000000	 flanked_rf_freq_4_amplitude_0.01_rep_5_l_H_2.0.png	 H	 l	 b	 n.a.	 6.255135e-01
7	 2	 306	 flanked	 rf	 5	 0.216700	 2.000000	 flanked_rf_freq_5_amplitude_0.2167_rep_3_r_N_2.0.png	 N	 r	 r	 n.a.	 4.327655e-01
7	 2	 307	 flanked	 rf	 8	 0.216700	 2.000000	 flanked_rf_freq_8_amplitude_0.2167_rep_4_l_N_2.0.png	 N	 l	 l	 n.a.	 3.121937e-01
7	 2	 308	 flanked	 rf	 12	 0.061700	 2.000000	 flanked_rf_freq_12_amplitude_0.0617_rep_7_b_N_2.0.png	 N	 b	 t	 n.a.	 3.224949e-01
7	 2	 309	 flanked	 rf	 12	 0.165000	 2.000000	 flanked_rf_freq_12_amplitude_0.165_rep_9_b_H_2.0.png	 H	 b	 b	 n.a.	 2.504702e-01
7	 2	 310	 flanked	 rf	 12	 0.061700	 2.000000	 flanked_rf_freq_12_amplitude_0.0617_rep_5_t_K_2.0.png	 K	 t	 t	 n.a.	 3.321500e-01
7	 2	 311	 flanked	 rf	 4	 0.010000	 2.000000	 flanked_rf_freq_4_amplitude_0.01_rep_8_b_H_2.0.png	 H	 b	 l	 n.a.	 3.504689e-01
7	 2	 312	 flanked	 rf	 3	 0.061700	 2.000000	 flanked_rf_freq_3_amplitude_0.0617_rep_6_r_H_2.0.png	 H	 r	 r	 n.a.	 5.128215e-01
7	 2	 313	 flanked	 rf	 2	 0.113300	 2.000000	 flanked_rf_freq_2_amplitude_0.1133_rep_8_r_N_2.0.png	 N	 r	 t	 n.a.	 3.562877e-01
7	 2	 314	 flanked	 rf	 5	 0.061700	 2.000000	 flanked_rf_freq_5_amplitude_0.0617_rep_6_b_D_2.0.png	 D	 b	 b	 n.a.	 6.849330e-01
7	 2	 315	 flanked	 rf	 3	 0.165000	 2.000000	 flanked_rf_freq_3_amplitude_0.165_rep_1_l_N_2.0.png	 N	 l	 r	 n.a.	 5.858464e-01
7	 2	 316	 flanked	 rf	 2	 0.320000	 2.000000	 flanked_rf_freq_2_amplitude_0.32_rep_9_t_K_2.0.png	 K	 t	 b	 n.a.	 6.631059e-01
7	 2	 317	 flanked	 rf	 3	 0.216700	 2.000000	 flanked_rf_freq_3_amplitude_0.2167_rep_0_l_D_2.0.png	 D	 l	 t	 n.a.	 4.159913e-01
7	 2	 318	 flanked	 rf	 8	 0.165000	 2.000000	 flanked_rf_freq_8_amplitude_0.165_rep_4_l_H_2.0.png	 H	 l	 l	 n.a.	 5.001313e-01
7	 2	 319	 flanked	 rf	 8	 0.320000	 2.000000	 flanked_rf_freq_8_amplitude_0.32_rep_7_b_H_2.0.png	 H	 b	 b	 n.a.	 5.097689e-01
7	 2	 320	 flanked	 rf	 5	 0.113300	 2.000000	 flanked_rf_freq_5_amplitude_0.1133_rep_6_l_D_2.0.png	 D	 l	 t	 n.a.	 4.888394e-01
7	 2	 321	 flanked	 rf	 2	 0.216700	 2.000000	 flanked_rf_freq_2_amplitude_0.2167_rep_9_t_N_2.0.png	 N	 t	 r	 n.a.	 6.557943e-01
7	 2	 322	 flanked	 rf	 12	 0.268300	 2.000000	 flanked_rf_freq_12_amplitude_0.2683_rep_0_t_N_2.0.png	 N	 t	 t	 n.a.	 3.133413e-01
7	 2	 323	 flanked	 rf	 2	 0.165000	 2.000000	 flanked_rf_freq_2_amplitude_0.165_rep_4_r_N_2.0.png	 N	 r	 t	 n.a.	 6.567913e-01
7	 2	 324	 flanked	 rf	 5	 0.113300	 2.000000	 flanked_rf_freq_5_amplitude_0.1133_rep_8_l_D_2.0.png	 D	 l	 l	 n.a.	 6.529966e-01
7	 2	 325	 flanked	 rf	 4	 0.061700	 2.000000	 flanked_rf_freq_4_amplitude_0.0617_rep_8_l_D_2.0.png	 D	 l	 b	 n.a.	 6.781013e-01
7	 2	 326	 flanked	 rf	 8	 0.216700	 2.000000	 flanked_rf_freq_8_amplitude_0.2167_rep_0_b_N_2.0.png	 N	 b	 b	 n.a.	 4.667581e-01
7	 2	 327	 flanked	 rf	 5	 0.061700	 2.000000	 flanked_rf_freq_5_amplitude_0.0617_rep_9_l_K_2.0.png	 K	 l	 b	 n.a.	 4.693309e-01
7	 2	 328	 flanked	 rf	 12	 0.268300	 2.000000	 flanked_rf_freq_12_amplitude_0.2683_rep_7_l_H_2.0.png	 H	 l	 l	 n.a.	 2.943614e-01
7	 2	 329	 flanked	 rf	 2	 0.268300	 2.000000	 flanked_rf_freq_2_amplitude_0.2683_rep_0_l_H_2.0.png	 H	 l	 l	 n.a.	 6.087339e-01
7	 2	 330	 flanked	 rf	 4	 0.113300	 2.000000	 flanked_rf_freq_4_amplitude_0.1133_rep_2_t_D_2.0.png	 D	 t	 r	 n.a.	 5.410806e-01
7	 2	 331	 flanked	 rf	 4	 0.165000	 2.000000	 flanked_rf_freq_4_amplitude_0.165_rep_8_r_H_2.0.png	 H	 r	 r	 n.a.	 5.091734e-01
7	 2	 332	 flanked	 rf	 5	 0.113300	 2.000000	 flanked_rf_freq_5_amplitude_0.1133_rep_4_l_K_2.0.png	 K	 l	 b	 n.a.	 5.343988e-01
7	 2	 333	 flanked	 rf	 3	 0.216700	 2.000000	 flanked_rf_freq_3_amplitude_0.2167_rep_6_b_D_2.0.png	 D	 b	 t	 n.a.	 5.842601e-01
7	 2	 334	 flanked	 rf	 2	 0.010000	 2.000000	 flanked_rf_freq_2_amplitude_0.01_rep_6_b_D_2.0.png	 D	 b	 r	 n.a.	 4.798818e-01
7	 2	 335	 flanked	 rf	 2	 0.010000	 2.000000	 flanked_rf_freq_2_amplitude_0.01_rep_9_b_K_2.0.png	 K	 b	 b	 n.a.	 5.057762e-01
7	 2	 336	 flanked	 rf	 2	 0.010000	 2.000000	 flanked_rf_freq_2_amplitude_0.01_rep_7_r_K_2.0.png	 K	 r	 b	 n.a.	 5.464438e-01
7	 2	 337	 flanked	 rf	 8	 0.113300	 2.000000	 flanked_rf_freq_8_amplitude_0.1133_rep_3_l_H_2.0.png	 H	 l	 b	 n.a.	 5.145219e-01
7	 2	 338	 flanked	 rf	 2	 0.268300	 2.000000	 flanked_rf_freq_2_amplitude_0.2683_rep_4_r_N_2.0.png	 N	 r	 b	 n.a.	 7.580205e-01
7	 2	 339	 flanked	 rf	 2	 0.113300	 2.000000	 flanked_rf_freq_2_amplitude_0.1133_rep_9_l_H_2.0.png	 H	 l	 l	 n.a.	 6.038370e-01
7	 2	 340	 flanked	 rf	 8	 0.010000	 2.000000	 flanked_rf_freq_8_amplitude_0.01_rep_2_b_D_2.0.png	 D	 b	 b	 n.a.	 8.443052e-01
7	 2	 341	 flanked	 rf	 3	 0.113300	 2.000000	 flanked_rf_freq_3_amplitude_0.1133_rep_8_r_N_2.0.png	 N	 r	 l	 n.a.	 6.806180e-01
7	 2	 342	 flanked	 rf	 12	 0.216700	 2.000000	 flanked_rf_freq_12_amplitude_0.2167_rep_5_t_D_2.0.png	 D	 t	 t	 n.a.	 3.946943e-01
7	 2	 343	 flanked	 rf	 4	 0.010000	 2.000000	 flanked_rf_freq_4_amplitude_0.01_rep_9_r_H_2.0.png	 H	 r	 b	 n.a.	 4.661379e-01
7	 2	 344	 flanked	 rf	 5	 0.010000	 2.000000	 flanked_rf_freq_5_amplitude_0.01_rep_0_l_H_2.0.png	 H	 l	 l	 n.a.	 3.425740e-01
7	 2	 345	 flanked	 rf	 8	 0.216700	 2.000000	 flanked_rf_freq_8_amplitude_0.2167_rep_2_l_D_2.0.png	 D	 l	 l	 n.a.	 3.937670e-01
7	 2	 346	 flanked	 rf	 3	 0.165000	 2.000000	 flanked_rf_freq_3_amplitude_0.165_rep_8_b_H_2.0.png	 H	 b	 t	 n.a.	 3.737245e-01
7	 2	 347	 flanked	 rf	 5	 0.165000	 2.000000	 flanked_rf_freq_5_amplitude_0.165_rep_2_t_D_2.0.png	 D	 t	 b	 n.a.	 3.468463e-01
7	 2	 348	 flanked	 rf	 4	 0.216700	 2.000000	 flanked_rf_freq_4_amplitude_0.2167_rep_1_l_D_2.0.png	 D	 l	 b	 n.a.	 8.477143e-01
7	 2	 349	 flanked	 rf	 8	 0.320000	 2.000000	 flanked_rf_freq_8_amplitude_0.32_rep_6_b_N_2.0.png	 N	 b	 b	 n.a.	 4.205438e-01
7	 2	 350	 flanked	 rf	 8	 0.216700	 2.000000	 flanked_rf_freq_8_amplitude_0.2167_rep_6_r_K_2.0.png	 K	 r	 r	 n.a.	 5.560654e-01
7	 2	 351	 flanked	 rf	 3	 0.165000	 2.000000	 flanked_rf_freq_3_amplitude_0.165_rep_5_r_H_2.0.png	 H	 r	 r	 n.a.	 3.977214e-01
7	 2	 352	 flanked	 rf	 5	 0.061700	 2.000000	 flanked_rf_freq_5_amplitude_0.0617_rep_0_b_H_2.0.png	 H	 b	 b	 n.a.	 4.149792e-01
7	 2	 353	 flanked	 rf	 3	 0.216700	 2.000000	 flanked_rf_freq_3_amplitude_0.2167_rep_4_l_D_2.0.png	 D	 l	 l	 n.a.	 3.433352e-01
7	 2	 354	 flanked	 rf	 5	 0.216700	 2.000000	 flanked_rf_freq_5_amplitude_0.2167_rep_1_t_H_2.0.png	 H	 t	 t	 n.a.	 2.880242e-01
7	 2	 355	 flanked	 rf	 4	 0.216700	 2.000000	 flanked_rf_freq_4_amplitude_0.2167_rep_8_b_H_2.0.png	 H	 b	 b	 n.a.	 3.695325e-01
7	 2	 356	 flanked	 rf	 12	 0.320000	 2.000000	 flanked_rf_freq_12_amplitude_0.32_rep_8_b_N_2.0.png	 N	 b	 b	 n.a.	 2.989575e-01
7	 2	 357	 flanked	 rf	 3	 0.268300	 2.000000	 flanked_rf_freq_3_amplitude_0.2683_rep_8_l_H_2.0.png	 H	 l	 r	 n.a.	 4.053647e-01
7	 2	 358	 flanked	 rf	 8	 0.165000	 2.000000	 flanked_rf_freq_8_amplitude_0.165_rep_5_l_D_2.0.png	 D	 l	 b	 n.a.	 6.150636e-01
7	 2	 359	 flanked	 rf	 5	 0.268300	 2.000000	 flanked_rf_freq_5_amplitude_0.2683_rep_4_t_N_2.0.png	 N	 t	 t	 n.a.	 4.375822e-01
7	 2	 360	 flanked	 rf	 2	 0.010000	 2.000000	 flanked_rf_freq_2_amplitude_0.01_rep_8_t_H_2.0.png	 H	 t	 t	 n.a.	 5.807935e-01
7	 2	 361	 flanked	 rf	 8	 0.165000	 2.000000	 flanked_rf_freq_8_amplitude_0.165_rep_1_b_K_2.0.png	 K	 b	 b	 n.a.	 3.705273e-01
7	 2	 362	 flanked	 rf	 5	 0.010000	 2.000000	 flanked_rf_freq_5_amplitude_0.01_rep_3_t_D_2.0.png	 D	 t	 r	 n.a.	 4.577408e-01
7	 2	 363	 flanked	 rf	 3	 0.216700	 2.000000	 flanked_rf_freq_3_amplitude_0.2167_rep_1_r_D_2.0.png	 D	 r	 b	 n.a.	 3.385323e-01
7	 2	 364	 flanked	 rf	 8	 0.320000	 2.000000	 flanked_rf_freq_8_amplitude_0.32_rep_2_r_H_2.0.png	 H	 r	 r	 n.a.	 3.212043e-01
7	 2	 365	 flanked	 rf	 2	 0.320000	 2.000000	 flanked_rf_freq_2_amplitude_0.32_rep_1_r_H_2.0.png	 H	 r	 t	 n.a.	 4.534593e-01
7	 2	 366	 flanked	 rf	 3	 0.113300	 2.000000	 flanked_rf_freq_3_amplitude_0.1133_rep_6_t_N_2.0.png	 N	 t	 l	 n.a.	 6.866361e-01
7	 2	 367	 flanked	 rf	 8	 0.010000	 2.000000	 flanked_rf_freq_8_amplitude_0.01_rep_3_t_K_2.0.png	 K	 t	 b	 n.a.	 7.144475e-01
7	 2	 368	 flanked	 rf	 12	 0.216700	 2.000000	 flanked_rf_freq_12_amplitude_0.2167_rep_3_t_D_2.0.png	 D	 t	 t	 n.a.	 2.979432e-01
7	 2	 369	 flanked	 rf	 12	 0.113300	 2.000000	 flanked_rf_freq_12_amplitude_0.1133_rep_1_b_N_2.0.png	 N	 b	 b	 n.a.	 3.858449e-01
7	 2	 370	 flanked	 rf	 3	 0.061700	 2.000000	 flanked_rf_freq_3_amplitude_0.0617_rep_7_l_K_2.0.png	 K	 l	 l	 n.a.	 4.088088e-01
7	 2	 371	 flanked	 rf	 3	 0.165000	 2.000000	 flanked_rf_freq_3_amplitude_0.165_rep_4_r_K_2.0.png	 K	 r	 r	 n.a.	 4.125300e-01
7	 2	 372	 flanked	 rf	 12	 0.061700	 2.000000	 flanked_rf_freq_12_amplitude_0.0617_rep_4_l_N_2.0.png	 N	 l	 l	 n.a.	 3.992002e-01
7	 2	 373	 flanked	 rf	 8	 0.165000	 2.000000	 flanked_rf_freq_8_amplitude_0.165_rep_2_t_N_2.0.png	 N	 t	 t	 n.a.	 3.132853e-01
7	 2	 374	 flanked	 rf	 2	 0.216700	 2.000000	 flanked_rf_freq_2_amplitude_0.2167_rep_1_r_K_2.0.png	 K	 r	 r	 n.a.	 4.204821e-01
7	 2	 375	 flanked	 rf	 2	 0.010000	 2.000000	 flanked_rf_freq_2_amplitude_0.01_rep_1_b_N_2.0.png	 N	 b	 t	 n.a.	 3.061227e-01
7	 2	 376	 flanked	 rf	 3	 0.061700	 2.000000	 flanked_rf_freq_3_amplitude_0.0617_rep_1_b_H_2.0.png	 H	 b	 b	 n.a.	 4.812077e-01
7	 2	 377	 flanked	 rf	 4	 0.165000	 2.000000	 flanked_rf_freq_4_amplitude_0.165_rep_6_r_K_2.0.png	 K	 r	 r	 n.a.	 4.053252e-01
7	 2	 378	 flanked	 rf	 5	 0.113300	 2.000000	 flanked_rf_freq_5_amplitude_0.1133_rep_2_r_N_2.0.png	 N	 r	 l	 n.a.	 6.029674e-01
7	 2	 379	 flanked	 rf	 4	 0.216700	 2.000000	 flanked_rf_freq_4_amplitude_0.2167_rep_9_l_H_2.0.png	 H	 l	 l	 n.a.	 4.370343e-01
7	 2	 380	 flanked	 rf	 4	 0.268300	 2.000000	 flanked_rf_freq_4_amplitude_0.2683_rep_7_b_D_2.0.png	 D	 b	 b	 n.a.	 4.063240e-01
7	 2	 381	 flanked	 rf	 4	 0.320000	 2.000000	 flanked_rf_freq_4_amplitude_0.32_rep_8_r_N_2.0.png	 N	 r	 r	 n.a.	 3.722778e-01
7	 2	 382	 flanked	 rf	 12	 0.010000	 2.000000	 flanked_rf_freq_12_amplitude_0.01_rep_5_t_H_2.0.png	 H	 t	 r	 n.a.	 4.909551e-01
7	 2	 383	 flanked	 rf	 5	 0.061700	 2.000000	 flanked_rf_freq_5_amplitude_0.0617_rep_8_r_D_2.0.png	 D	 r	 t	 n.a.	 6.417128e-01
7	 2	 384	 flanked	 rf	 2	 0.061700	 2.000000	 flanked_rf_freq_2_amplitude_0.0617_rep_1_r_D_2.0.png	 D	 r	 l	 n.a.	 8.789721e-01
7	 2	 385	 flanked	 rf	 8	 0.010000	 2.000000	 flanked_rf_freq_8_amplitude_0.01_rep_9_b_K_2.0.png	 K	 b	 b	 n.a.	 6.233101e-01
7	 2	 386	 flanked	 rf	 4	 0.113300	 2.000000	 flanked_rf_freq_4_amplitude_0.1133_rep_7_b_D_2.0.png	 D	 b	 r	 n.a.	 4.966006e-01
7	 2	 387	 flanked	 rf	 4	 0.320000	 2.000000	 flanked_rf_freq_4_amplitude_0.32_rep_0_b_N_2.0.png	 N	 b	 b	 n.a.	 4.747369e-01
7	 2	 388	 flanked	 rf	 5	 0.113300	 2.000000	 flanked_rf_freq_5_amplitude_0.1133_rep_9_r_N_2.0.png	 N	 r	 t	 n.a.	 4.715195e-01
7	 2	 389	 flanked	 rf	 8	 0.268300	 2.000000	 flanked_rf_freq_8_amplitude_0.2683_rep_0_b_D_2.0.png	 D	 b	 b	 n.a.	 3.699674e-01
7	 2	 390	 flanked	 rf	 12	 0.216700	 2.000000	 flanked_rf_freq_12_amplitude_0.2167_rep_9_b_H_2.0.png	 H	 b	 b	 n.a.	 4.857401e-01
7	 2	 391	 flanked	 rf	 3	 0.113300	 2.000000	 flanked_rf_freq_3_amplitude_0.1133_rep_4_t_H_2.0.png	 H	 t	 l	 n.a.	 4.738866e-01
7	 2	 392	 flanked	 rf	 2	 0.165000	 2.000000	 flanked_rf_freq_2_amplitude_0.165_rep_5_b_H_2.0.png	 H	 b	 r	 n.a.	 4.066238e-01
7	 2	 393	 flanked	 rf	 12	 0.113300	 2.000000	 flanked_rf_freq_12_amplitude_0.1133_rep_2_l_H_2.0.png	 H	 l	 l	 n.a.	 5.956278e-01
7	 2	 394	 flanked	 rf	 12	 0.268300	 2.000000	 flanked_rf_freq_12_amplitude_0.2683_rep_5_b_K_2.0.png	 K	 b	 b	 n.a.	 4.055563e-01
7	 2	 395	 flanked	 rf	 4	 0.320000	 2.000000	 flanked_rf_freq_4_amplitude_0.32_rep_3_t_H_2.0.png	 H	 t	 b	 n.a.	 4.758766e-01
7	 2	 396	 flanked	 rf	 12	 0.113300	 2.000000	 flanked_rf_freq_12_amplitude_0.1133_rep_3_b_H_2.0.png	 H	 b	 b	 n.a.	 3.226368e-01
7	 2	 397	 flanked	 rf	 2	 0.216700	 2.000000	 flanked_rf_freq_2_amplitude_0.2167_rep_5_l_H_2.0.png	 H	 l	 r	 n.a.	 4.688407e-01
7	 2	 398	 flanked	 rf	 3	 0.061700	 2.000000	 flanked_rf_freq_3_amplitude_0.0617_rep_5_b_N_2.0.png	 N	 b	 l	 n.a.	 3.299344e-01
7	 2	 399	 flanked	 rf	 4	 0.113300	 2.000000	 flanked_rf_freq_4_amplitude_0.1133_rep_9_r_H_2.0.png	 H	 r	 b	 n.a.	 3.796007e-01
7	 2	 400	 flanked	 rf	 4	 0.320000	 2.000000	 flanked_rf_freq_4_amplitude_0.32_rep_5_t_N_2.0.png	 N	 t	 r	 n.a.	 5.220526e-01
7	 2	 401	 flanked	 rf	 8	 0.113300	 2.000000	 flanked_rf_freq_8_amplitude_0.1133_rep_1_t_N_2.0.png	 N	 t	 b	 n.a.	 4.713566e-01
7	 2	 402	 flanked	 rf	 4	 0.165000	 2.000000	 flanked_rf_freq_4_amplitude_0.165_rep_1_l_N_2.0.png	 N	 l	 l	 n.a.	 3.800379e-01
7	 2	 403	 flanked	 rf	 8	 0.216700	 2.000000	 flanked_rf_freq_8_amplitude_0.2167_rep_8_b_K_2.0.png	 K	 b	 b	 n.a.	 4.215037e-01
7	 2	 404	 flanked	 rf	 5	 0.320000	 2.000000	 flanked_rf_freq_5_amplitude_0.32_rep_7_t_D_2.0.png	 D	 t	 t	 n.a.	 3.902107e-01
7	 2	 405	 flanked	 rf	 5	 0.268300	 2.000000	 flanked_rf_freq_5_amplitude_0.2683_rep_8_b_H_2.0.png	 H	 b	 b	 n.a.	 3.234108e-01
7	 2	 406	 flanked	 rf	 8	 0.268300	 2.000000	 flanked_rf_freq_8_amplitude_0.2683_rep_3_b_K_2.0.png	 K	 b	 b	 n.a.	 4.733503e-01
7	 2	 407	 flanked	 rf	 8	 0.113300	 2.000000	 flanked_rf_freq_8_amplitude_0.1133_rep_6_t_H_2.0.png	 H	 t	 t	 n.a.	 5.043716e-01
7	 2	 408	 flanked	 rf	 2	 0.010000	 2.000000	 flanked_rf_freq_2_amplitude_0.01_rep_2_r_N_2.0.png	 N	 r	 r	 n.a.	 7.005654e-01
7	 2	 409	 flanked	 rf	 4	 0.216700	 2.000000	 flanked_rf_freq_4_amplitude_0.2167_rep_0_r_K_2.0.png	 K	 r	 b	 n.a.	 1.005225e+00
7	 2	 410	 flanked	 rf	 5	 0.165000	 2.000000	 flanked_rf_freq_5_amplitude_0.165_rep_8_l_K_2.0.png	 K	 l	 l	 n.a.	 4.399619e-01
7	 2	 411	 flanked	 rf	 5	 0.216700	 2.000000	 flanked_rf_freq_5_amplitude_0.2167_rep_9_b_D_2.0.png	 D	 b	 t	 n.a.	 5.903835e-01
7	 2	 412	 flanked	 rf	 12	 0.010000	 2.000000	 flanked_rf_freq_12_amplitude_0.01_rep_9_l_K_2.0.png	 K	 l	 l	 n.a.	 5.908955e-01
7	 2	 413	 flanked	 rf	 2	 0.268300	 2.000000	 flanked_rf_freq_2_amplitude_0.2683_rep_6_b_N_2.0.png	 N	 b	 l	 n.a.	 6.472442e-01
7	 2	 414	 flanked	 rf	 12	 0.061700	 2.000000	 flanked_rf_freq_12_amplitude_0.0617_rep_2_b_D_2.0.png	 D	 b	 b	 n.a.	 3.880437e-01
7	 2	 415	 flanked	 rf	 3	 0.216700	 2.000000	 flanked_rf_freq_3_amplitude_0.2167_rep_5_b_N_2.0.png	 N	 b	 b	 n.a.	 4.964444e-01
7	 2	 416	 flanked	 rf	 2	 0.113300	 2.000000	 flanked_rf_freq_2_amplitude_0.1133_rep_1_t_K_2.0.png	 K	 t	 t	 n.a.	 4.998555e-01
7	 2	 417	 flanked	 rf	 2	 0.216700	 2.000000	 flanked_rf_freq_2_amplitude_0.2167_rep_4_t_N_2.0.png	 N	 t	 b	 n.a.	 5.261797e-01
7	 2	 418	 flanked	 rf	 12	 0.061700	 2.000000	 flanked_rf_freq_12_amplitude_0.0617_rep_3_t_N_2.0.png	 N	 t	 b	 n.a.	 5.493627e-01
7	 2	 419	 flanked	 rf	 2	 0.165000	 2.000000	 flanked_rf_freq_2_amplitude_0.165_rep_9_l_N_2.0.png	 N	 l	 r	 n.a.	 4.953930e-01
7	 2	 420	 flanked	 rf	 8	 0.061700	 2.000000	 flanked_rf_freq_8_amplitude_0.0617_rep_1_l_N_2.0.png	 N	 l	 t	 n.a.	 5.232542e-01
