subject	 session	 trial	 flanked	 distortion	 freq	 amplitude	 spacing	 im_name	 targ_letter	 targ_pos	 response	 eyemovement	 RT
5	 3	 1	 unflanked	 bex	 32	 1.000000	 0.000000	 unflanked_bex_freq_32_amplitude_1_rep_2_t_N.png	 N	 t	 t	 n.a.	 5.633545e-01
5	 3	 2	 unflanked	 bex	 6	 1.500000	 0.000000	 unflanked_bex_freq_6_amplitude_1.5_rep_0_t_D.png	 D	 t	 t	 n.a.	 5.205427e-01
5	 3	 3	 unflanked	 bex	 16	 1.000000	 0.000000	 unflanked_bex_freq_16_amplitude_1_rep_3_r_K.png	 K	 r	 t	 n.a.	 4.968368e-01
5	 3	 4	 unflanked	 bex	 2	 2.000000	 0.000000	 unflanked_bex_freq_2_amplitude_2_rep_2_r_D.png	 D	 r	 b	 n.a.	 4.112267e-01
5	 3	 5	 unflanked	 bex	 8	 2.500000	 0.000000	 unflanked_bex_freq_8_amplitude_2.5_rep_3_t_H.png	 H	 t	 t	 n.a.	 4.398791e-01
5	 3	 6	 unflanked	 bex	 32	 2.500000	 0.000000	 unflanked_bex_freq_32_amplitude_2.5_rep_0_t_K.png	 K	 t	 t	 n.a.	 5.204590e-01
5	 3	 7	 unflanked	 bex	 32	 5.000000	 0.000000	 unflanked_bex_freq_32_amplitude_5_rep_1_b_H.png	 H	 b	 t	 n.a.	 6.800256e-01
5	 3	 8	 unflanked	 bex	 16	 1.500000	 0.000000	 unflanked_bex_freq_16_amplitude_1.5_rep_1_b_H.png	 H	 b	 l	 n.a.	 7.693316e-01
5	 3	 9	 unflanked	 bex	 8	 1.500000	 0.000000	 unflanked_bex_freq_8_amplitude_1.5_rep_4_r_N.png	 N	 r	 t	 n.a.	 5.690268e-01
5	 3	 10	 unflanked	 bex	 8	 2.500000	 0.000000	 unflanked_bex_freq_8_amplitude_2.5_rep_9_b_N.png	 N	 b	 b	 n.a.	 4.800324e-01
5	 3	 11	 unflanked	 bex	 2	 2.500000	 0.000000	 unflanked_bex_freq_2_amplitude_2.5_rep_2_b_D.png	 D	 b	 b	 n.a.	 4.253076e-01
5	 3	 12	 unflanked	 bex	 16	 3.000000	 0.000000	 unflanked_bex_freq_16_amplitude_3_rep_9_r_K.png	 K	 r	 r	 n.a.	 2.930396e-01
5	 3	 13	 unflanked	 bex	 8	 2.000000	 0.000000	 unflanked_bex_freq_8_amplitude_2_rep_5_b_N.png	 N	 b	 r	 n.a.	 1.006833e+00
5	 3	 14	 unflanked	 bex	 4	 5.000000	 0.000000	 unflanked_bex_freq_4_amplitude_5_rep_9_r_H.png	 H	 r	 r	 n.a.	 2.366896e-01
5	 3	 15	 unflanked	 bex	 2	 2.000000	 0.000000	 unflanked_bex_freq_2_amplitude_2_rep_6_b_N.png	 N	 b	 r	 n.a.	 1.063814e+00
5	 3	 16	 unflanked	 bex	 6	 3.000000	 0.000000	 unflanked_bex_freq_6_amplitude_3_rep_4_l_N.png	 N	 l	 l	 n.a.	 2.371663e-01
5	 3	 17	 unflanked	 bex	 4	 1.000000	 0.000000	 unflanked_bex_freq_4_amplitude_1_rep_1_r_H.png	 H	 r	 r	 n.a.	 2.804155e-01
5	 3	 18	 unflanked	 bex	 2	 3.000000	 0.000000	 unflanked_bex_freq_2_amplitude_3_rep_1_l_K.png	 K	 l	 t	 n.a.	 9.035099e-01
5	 3	 19	 unflanked	 bex	 4	 2.000000	 0.000000	 unflanked_bex_freq_4_amplitude_2_rep_2_b_N.png	 N	 b	 b	 n.a.	 6.746601e-01
5	 3	 20	 unflanked	 bex	 32	 1.500000	 0.000000	 unflanked_bex_freq_32_amplitude_1.5_rep_2_l_D.png	 D	 l	 r	 n.a.	 9.720355e-01
5	 3	 21	 unflanked	 bex	 4	 2.500000	 0.000000	 unflanked_bex_freq_4_amplitude_2.5_rep_2_t_N.png	 N	 t	 t	 n.a.	 6.948635e-01
5	 3	 22	 unflanked	 bex	 8	 2.500000	 0.000000	 unflanked_bex_freq_8_amplitude_2.5_rep_7_t_K.png	 K	 t	 t	 n.a.	 3.581286e-01
5	 3	 23	 unflanked	 bex	 6	 2.000000	 0.000000	 unflanked_bex_freq_6_amplitude_2_rep_1_b_D.png	 D	 b	 b	 n.a.	 5.603119e-01
5	 3	 24	 unflanked	 bex	 6	 0.500000	 0.000000	 unflanked_bex_freq_6_amplitude_0.5_rep_1_r_K.png	 K	 r	 t	 n.a.	 4.904247e-01
5	 3	 25	 unflanked	 bex	 32	 1.000000	 0.000000	 unflanked_bex_freq_32_amplitude_1_rep_9_r_K.png	 K	 r	 b	 n.a.	 5.540700e-01
5	 3	 26	 unflanked	 bex	 6	 5.000000	 0.000000	 unflanked_bex_freq_6_amplitude_5_rep_9_t_H.png	 H	 t	 t	 n.a.	 3.651305e-01
5	 3	 27	 unflanked	 bex	 16	 2.000000	 0.000000	 unflanked_bex_freq_16_amplitude_2_rep_4_b_D.png	 D	 b	 r	 n.a.	 9.163814e-01
5	 3	 28	 unflanked	 bex	 8	 2.000000	 0.000000	 unflanked_bex_freq_8_amplitude_2_rep_4_b_H.png	 H	 b	 b	 n.a.	 8.069902e-01
5	 3	 29	 unflanked	 bex	 16	 5.000000	 0.000000	 unflanked_bex_freq_16_amplitude_5_rep_8_l_D.png	 D	 l	 l	 n.a.	 4.352018e-01
5	 3	 30	 unflanked	 bex	 4	 1.000000	 0.000000	 unflanked_bex_freq_4_amplitude_1_rep_3_l_K.png	 K	 l	 l	 n.a.	 3.691983e-01
5	 3	 31	 unflanked	 bex	 6	 5.000000	 0.000000	 unflanked_bex_freq_6_amplitude_5_rep_4_l_N.png	 N	 l	 l	 n.a.	 3.080013e-01
5	 3	 32	 unflanked	 bex	 8	 3.000000	 0.000000	 unflanked_bex_freq_8_amplitude_3_rep_7_t_D.png	 D	 t	 t	 n.a.	 4.169041e-01
5	 3	 33	 unflanked	 bex	 6	 2.500000	 0.000000	 unflanked_bex_freq_6_amplitude_2.5_rep_1_b_H.png	 H	 b	 b	 n.a.	 5.155384e-01
5	 3	 34	 unflanked	 bex	 4	 1.000000	 0.000000	 unflanked_bex_freq_4_amplitude_1_rep_6_l_N.png	 N	 l	 l	 n.a.	 3.646150e-01
5	 3	 35	 unflanked	 bex	 2	 0.500000	 0.000000	 unflanked_bex_freq_2_amplitude_0.5_rep_6_l_H.png	 H	 l	 b	 n.a.	 3.987879e-01
5	 3	 36	 unflanked	 bex	 16	 0.500000	 0.000000	 unflanked_bex_freq_16_amplitude_0.5_rep_5_l_K.png	 K	 l	 l	 n.a.	 4.397065e-01
5	 3	 37	 unflanked	 bex	 2	 1.000000	 0.000000	 unflanked_bex_freq_2_amplitude_1_rep_4_b_D.png	 D	 b	 l	 n.a.	 6.242035e-01
5	 3	 38	 unflanked	 bex	 8	 1.000000	 0.000000	 unflanked_bex_freq_8_amplitude_1_rep_6_r_H.png	 H	 r	 r	 n.a.	 4.475508e-01
5	 3	 39	 unflanked	 bex	 8	 1.000000	 0.000000	 unflanked_bex_freq_8_amplitude_1_rep_7_r_H.png	 H	 r	 t	 n.a.	 8.825351e-01
5	 3	 40	 unflanked	 bex	 6	 1.500000	 0.000000	 unflanked_bex_freq_6_amplitude_1.5_rep_6_t_K.png	 K	 t	 t	 n.a.	 5.670502e-01
5	 3	 41	 unflanked	 bex	 6	 5.000000	 0.000000	 unflanked_bex_freq_6_amplitude_5_rep_3_b_D.png	 D	 b	 b	 n.a.	 3.633743e-01
5	 3	 42	 unflanked	 bex	 6	 2.500000	 0.000000	 unflanked_bex_freq_6_amplitude_2.5_rep_5_t_K.png	 K	 t	 t	 n.a.	 5.094295e-01
5	 3	 43	 unflanked	 bex	 16	 5.000000	 0.000000	 unflanked_bex_freq_16_amplitude_5_rep_0_r_K.png	 K	 r	 r	 n.a.	 2.770488e-01
5	 3	 44	 unflanked	 bex	 2	 3.000000	 0.000000	 unflanked_bex_freq_2_amplitude_3_rep_6_b_D.png	 D	 b	 b	 n.a.	 8.498548e-01
5	 3	 45	 unflanked	 bex	 16	 3.000000	 0.000000	 unflanked_bex_freq_16_amplitude_3_rep_2_t_D.png	 D	 t	 t	 n.a.	 4.897602e-01
5	 3	 46	 unflanked	 bex	 6	 5.000000	 0.000000	 unflanked_bex_freq_6_amplitude_5_rep_7_l_D.png	 D	 l	 l	 n.a.	 2.383394e-01
5	 3	 47	 unflanked	 bex	 6	 5.000000	 0.000000	 unflanked_bex_freq_6_amplitude_5_rep_6_t_N.png	 N	 t	 t	 n.a.	 3.400652e-01
5	 3	 48	 unflanked	 bex	 32	 1.500000	 0.000000	 unflanked_bex_freq_32_amplitude_1.5_rep_1_l_K.png	 K	 l	 r	 n.a.	 5.538039e-01
5	 3	 49	 unflanked	 bex	 6	 5.000000	 0.000000	 unflanked_bex_freq_6_amplitude_5_rep_8_l_D.png	 D	 l	 l	 n.a.	 2.222763e-01
5	 3	 50	 unflanked	 bex	 2	 3.000000	 0.000000	 unflanked_bex_freq_2_amplitude_3_rep_3_r_N.png	 N	 r	 r	 n.a.	 2.807287e-01
5	 3	 51	 unflanked	 bex	 6	 1.000000	 0.000000	 unflanked_bex_freq_6_amplitude_1_rep_5_b_N.png	 N	 b	 t	 n.a.	 5.871562e-01
5	 3	 52	 unflanked	 bex	 16	 0.500000	 0.000000	 unflanked_bex_freq_16_amplitude_0.5_rep_6_r_H.png	 H	 r	 r	 n.a.	 1.081031e+00
5	 3	 53	 unflanked	 bex	 16	 0.500000	 0.000000	 unflanked_bex_freq_16_amplitude_0.5_rep_3_r_K.png	 K	 r	 r	 n.a.	 5.865500e-01
5	 3	 54	 unflanked	 bex	 2	 2.500000	 0.000000	 unflanked_bex_freq_2_amplitude_2.5_rep_5_b_K.png	 K	 b	 t	 n.a.	 7.914528e-01
5	 3	 55	 unflanked	 bex	 32	 3.000000	 0.000000	 unflanked_bex_freq_32_amplitude_3_rep_6_l_N.png	 N	 l	 l	 n.a.	 2.776218e-01
5	 3	 56	 unflanked	 bex	 6	 2.000000	 0.000000	 unflanked_bex_freq_6_amplitude_2_rep_9_l_K.png	 K	 l	 l	 n.a.	 3.135755e-01
5	 3	 57	 unflanked	 bex	 16	 1.500000	 0.000000	 unflanked_bex_freq_16_amplitude_1.5_rep_2_b_K.png	 K	 b	 b	 n.a.	 6.145174e-01
5	 3	 58	 unflanked	 bex	 8	 2.000000	 0.000000	 unflanked_bex_freq_8_amplitude_2_rep_8_t_K.png	 K	 t	 t	 n.a.	 5.268023e-01
5	 3	 59	 unflanked	 bex	 16	 2.000000	 0.000000	 unflanked_bex_freq_16_amplitude_2_rep_9_r_H.png	 H	 r	 r	 n.a.	 2.769726e-01
5	 3	 60	 unflanked	 bex	 16	 1.500000	 0.000000	 unflanked_bex_freq_16_amplitude_1.5_rep_4_l_D.png	 D	 l	 l	 n.a.	 2.831238e-01
5	 3	 61	 unflanked	 bex	 2	 1.500000	 0.000000	 unflanked_bex_freq_2_amplitude_1.5_rep_0_b_K.png	 K	 b	 t	 n.a.	 6.971268e-01
5	 3	 62	 unflanked	 bex	 2	 1.500000	 0.000000	 unflanked_bex_freq_2_amplitude_1.5_rep_3_b_H.png	 H	 b	 t	 n.a.	 4.943118e-01
5	 3	 63	 unflanked	 bex	 2	 2.000000	 0.000000	 unflanked_bex_freq_2_amplitude_2_rep_9_b_N.png	 N	 b	 l	 n.a.	 5.412245e-01
5	 3	 64	 unflanked	 bex	 16	 2.000000	 0.000000	 unflanked_bex_freq_16_amplitude_2_rep_2_t_H.png	 H	 t	 l	 n.a.	 4.713941e-01
5	 3	 65	 unflanked	 bex	 2	 2.500000	 0.000000	 unflanked_bex_freq_2_amplitude_2.5_rep_9_r_N.png	 N	 r	 r	 n.a.	 2.676947e-01
5	 3	 66	 unflanked	 bex	 32	 2.000000	 0.000000	 unflanked_bex_freq_32_amplitude_2_rep_1_r_K.png	 K	 r	 r	 n.a.	 3.939629e-01
5	 3	 67	 unflanked	 bex	 4	 5.000000	 0.000000	 unflanked_bex_freq_4_amplitude_5_rep_2_l_K.png	 K	 l	 l	 n.a.	 2.781851e-01
5	 3	 68	 unflanked	 bex	 32	 5.000000	 0.000000	 unflanked_bex_freq_32_amplitude_5_rep_6_b_N.png	 N	 b	 t	 n.a.	 8.574021e-01
5	 3	 69	 unflanked	 bex	 2	 0.500000	 0.000000	 unflanked_bex_freq_2_amplitude_0.5_rep_4_r_K.png	 K	 r	 r	 n.a.	 2.354103e-01
5	 3	 70	 unflanked	 bex	 6	 3.000000	 0.000000	 unflanked_bex_freq_6_amplitude_3_rep_9_l_K.png	 K	 l	 l	 n.a.	 2.265036e-01
5	 3	 71	 unflanked	 bex	 32	 3.000000	 0.000000	 unflanked_bex_freq_32_amplitude_3_rep_0_t_N.png	 N	 t	 r	 n.a.	 2.987527e-01
5	 3	 72	 unflanked	 bex	 8	 3.000000	 0.000000	 unflanked_bex_freq_8_amplitude_3_rep_4_b_N.png	 N	 b	 b	 n.a.	 8.811543e-01
5	 3	 73	 unflanked	 bex	 16	 2.000000	 0.000000	 unflanked_bex_freq_16_amplitude_2_rep_6_l_N.png	 N	 l	 l	 n.a.	 2.713821e-01
5	 3	 74	 unflanked	 bex	 8	 5.000000	 0.000000	 unflanked_bex_freq_8_amplitude_5_rep_4_l_D.png	 D	 l	 l	 n.a.	 2.467436e-01
5	 3	 75	 unflanked	 bex	 2	 5.000000	 0.000000	 unflanked_bex_freq_2_amplitude_5_rep_5_r_K.png	 K	 r	 r	 n.a.	 3.543608e-01
5	 3	 76	 unflanked	 bex	 8	 2.000000	 0.000000	 unflanked_bex_freq_8_amplitude_2_rep_3_t_H.png	 H	 t	 r	 n.a.	 6.275216e-01
5	 3	 77	 unflanked	 bex	 8	 1.500000	 0.000000	 unflanked_bex_freq_8_amplitude_1.5_rep_9_t_H.png	 H	 t	 b	 n.a.	 5.189855e-01
5	 3	 78	 unflanked	 bex	 16	 1.500000	 0.000000	 unflanked_bex_freq_16_amplitude_1.5_rep_0_b_H.png	 H	 b	 b	 n.a.	 5.319731e-01
5	 3	 79	 unflanked	 bex	 6	 0.500000	 0.000000	 unflanked_bex_freq_6_amplitude_0.5_rep_5_t_N.png	 N	 t	 b	 n.a.	 8.045839e-01
5	 3	 80	 unflanked	 bex	 32	 5.000000	 0.000000	 unflanked_bex_freq_32_amplitude_5_rep_2_r_K.png	 K	 r	 r	 n.a.	 3.067132e-01
5	 3	 81	 unflanked	 bex	 16	 5.000000	 0.000000	 unflanked_bex_freq_16_amplitude_5_rep_7_l_N.png	 N	 l	 l	 n.a.	 3.081290e-01
5	 3	 82	 unflanked	 bex	 2	 2.000000	 0.000000	 unflanked_bex_freq_2_amplitude_2_rep_8_t_D.png	 D	 t	 t	 n.a.	 5.382818e-01
5	 3	 83	 unflanked	 bex	 8	 1.000000	 0.000000	 unflanked_bex_freq_8_amplitude_1_rep_2_l_K.png	 K	 l	 l	 n.a.	 2.875419e-01
5	 3	 84	 unflanked	 bex	 4	 2.500000	 0.000000	 unflanked_bex_freq_4_amplitude_2.5_rep_4_b_D.png	 D	 b	 b	 n.a.	 6.755226e-01
5	 3	 85	 unflanked	 bex	 6	 2.000000	 0.000000	 unflanked_bex_freq_6_amplitude_2_rep_3_t_K.png	 K	 t	 t	 n.a.	 5.290985e-01
5	 3	 86	 unflanked	 bex	 8	 1.000000	 0.000000	 unflanked_bex_freq_8_amplitude_1_rep_1_l_H.png	 H	 l	 t	 n.a.	 6.276417e-01
5	 3	 87	 unflanked	 bex	 2	 5.000000	 0.000000	 unflanked_bex_freq_2_amplitude_5_rep_3_l_N.png	 N	 l	 l	 n.a.	 2.470596e-01
5	 3	 88	 unflanked	 bex	 8	 5.000000	 0.000000	 unflanked_bex_freq_8_amplitude_5_rep_0_l_D.png	 D	 l	 l	 n.a.	 3.626425e-01
5	 3	 89	 unflanked	 bex	 16	 2.000000	 0.000000	 unflanked_bex_freq_16_amplitude_2_rep_7_t_K.png	 K	 t	 t	 n.a.	 6.447037e-01
5	 3	 90	 unflanked	 bex	 32	 2.500000	 0.000000	 unflanked_bex_freq_32_amplitude_2.5_rep_5_r_H.png	 H	 r	 r	 n.a.	 2.815874e-01
5	 3	 91	 unflanked	 bex	 32	 5.000000	 0.000000	 unflanked_bex_freq_32_amplitude_5_rep_0_b_D.png	 D	 b	 b	 n.a.	 6.513135e-01
5	 3	 92	 unflanked	 bex	 32	 2.000000	 0.000000	 unflanked_bex_freq_32_amplitude_2_rep_9_r_K.png	 K	 r	 r	 n.a.	 3.506899e-01
5	 3	 93	 unflanked	 bex	 6	 1.000000	 0.000000	 unflanked_bex_freq_6_amplitude_1_rep_2_b_D.png	 D	 b	 l	 n.a.	 4.249898e-01
5	 3	 94	 unflanked	 bex	 32	 3.000000	 0.000000	 unflanked_bex_freq_32_amplitude_3_rep_3_r_H.png	 H	 r	 r	 n.a.	 2.238695e-01
5	 3	 95	 unflanked	 bex	 16	 1.000000	 0.000000	 unflanked_bex_freq_16_amplitude_1_rep_8_t_H.png	 H	 t	 t	 n.a.	 5.356080e-01
5	 3	 96	 unflanked	 bex	 16	 1.500000	 0.000000	 unflanked_bex_freq_16_amplitude_1.5_rep_3_t_D.png	 D	 t	 l	 n.a.	 8.193486e-01
5	 3	 97	 unflanked	 bex	 32	 0.500000	 0.000000	 unflanked_bex_freq_32_amplitude_0.5_rep_6_t_N.png	 N	 t	 b	 n.a.	 8.491967e-01
5	 3	 98	 unflanked	 bex	 4	 5.000000	 0.000000	 unflanked_bex_freq_4_amplitude_5_rep_6_b_D.png	 D	 b	 b	 n.a.	 3.165945e-01
5	 3	 99	 unflanked	 bex	 8	 3.000000	 0.000000	 unflanked_bex_freq_8_amplitude_3_rep_9_b_N.png	 N	 b	 b	 n.a.	 2.965432e-01
5	 3	 100	 unflanked	 bex	 4	 2.500000	 0.000000	 unflanked_bex_freq_4_amplitude_2.5_rep_6_l_K.png	 K	 l	 l	 n.a.	 2.935440e-01
5	 3	 101	 unflanked	 bex	 16	 1.000000	 0.000000	 unflanked_bex_freq_16_amplitude_1_rep_7_l_H.png	 H	 l	 t	 n.a.	 1.321940e+00
5	 3	 102	 unflanked	 bex	 2	 1.500000	 0.000000	 unflanked_bex_freq_2_amplitude_1.5_rep_8_l_K.png	 K	 l	 l	 n.a.	 3.435510e-01
5	 3	 103	 unflanked	 bex	 4	 2.000000	 0.000000	 unflanked_bex_freq_4_amplitude_2_rep_1_r_D.png	 D	 r	 r	 n.a.	 4.140310e-01
5	 3	 104	 unflanked	 bex	 32	 2.500000	 0.000000	 unflanked_bex_freq_32_amplitude_2.5_rep_3_b_N.png	 N	 b	 b	 n.a.	 6.005142e-01
5	 3	 105	 unflanked	 bex	 6	 3.000000	 0.000000	 unflanked_bex_freq_6_amplitude_3_rep_6_l_K.png	 K	 l	 l	 n.a.	 4.336691e-01
5	 3	 106	 unflanked	 bex	 8	 5.000000	 0.000000	 unflanked_bex_freq_8_amplitude_5_rep_7_r_K.png	 K	 r	 r	 n.a.	 3.565138e-01
5	 3	 107	 unflanked	 bex	 8	 1.000000	 0.000000	 unflanked_bex_freq_8_amplitude_1_rep_8_b_D.png	 D	 b	 b	 n.a.	 5.568586e-01
5	 3	 108	 unflanked	 bex	 16	 3.000000	 0.000000	 unflanked_bex_freq_16_amplitude_3_rep_0_b_K.png	 K	 b	 b	 n.a.	 3.772746e-01
5	 3	 109	 unflanked	 bex	 2	 3.000000	 0.000000	 unflanked_bex_freq_2_amplitude_3_rep_4_r_H.png	 H	 r	 r	 n.a.	 3.726796e-01
5	 3	 110	 unflanked	 bex	 32	 1.500000	 0.000000	 unflanked_bex_freq_32_amplitude_1.5_rep_4_t_D.png	 D	 t	 r	 n.a.	 8.197031e-01
5	 3	 111	 unflanked	 bex	 32	 1.000000	 0.000000	 unflanked_bex_freq_32_amplitude_1_rep_8_l_H.png	 H	 l	 r	 n.a.	 1.037080e+00
5	 3	 112	 unflanked	 bex	 32	 2.500000	 0.000000	 unflanked_bex_freq_32_amplitude_2.5_rep_6_b_H.png	 H	 b	 b	 n.a.	 5.186088e-01
5	 3	 113	 unflanked	 bex	 6	 1.500000	 0.000000	 unflanked_bex_freq_6_amplitude_1.5_rep_5_b_N.png	 N	 b	 b	 n.a.	 8.956712e-01
5	 3	 114	 unflanked	 bex	 6	 1.000000	 0.000000	 unflanked_bex_freq_6_amplitude_1_rep_4_l_K.png	 K	 l	 b	 n.a.	 4.007284e-01
5	 3	 115	 unflanked	 bex	 2	 1.500000	 0.000000	 unflanked_bex_freq_2_amplitude_1.5_rep_4_r_H.png	 H	 r	 r	 n.a.	 4.451697e-01
5	 3	 116	 unflanked	 bex	 32	 1.000000	 0.000000	 unflanked_bex_freq_32_amplitude_1_rep_0_t_D.png	 D	 t	 t	 n.a.	 7.647850e-01
5	 3	 117	 unflanked	 bex	 32	 1.000000	 0.000000	 unflanked_bex_freq_32_amplitude_1_rep_5_l_D.png	 D	 l	 b	 n.a.	 5.590629e-01
5	 3	 118	 unflanked	 bex	 8	 0.500000	 0.000000	 unflanked_bex_freq_8_amplitude_0.5_rep_9_t_N.png	 N	 t	 r	 n.a.	 4.025874e-01
5	 3	 119	 unflanked	 bex	 4	 0.500000	 0.000000	 unflanked_bex_freq_4_amplitude_0.5_rep_1_t_N.png	 N	 t	 l	 n.a.	 5.427107e-01
5	 3	 120	 unflanked	 bex	 6	 2.000000	 0.000000	 unflanked_bex_freq_6_amplitude_2_rep_4_b_K.png	 K	 b	 l	 n.a.	 7.692050e-01
5	 3	 121	 unflanked	 bex	 6	 1.500000	 0.000000	 unflanked_bex_freq_6_amplitude_1.5_rep_3_t_N.png	 N	 t	 t	 n.a.	 4.976327e-01
5	 3	 122	 unflanked	 bex	 2	 2.500000	 0.000000	 unflanked_bex_freq_2_amplitude_2.5_rep_7_t_K.png	 K	 t	 t	 n.a.	 3.885858e-01
5	 3	 123	 unflanked	 bex	 8	 1.500000	 0.000000	 unflanked_bex_freq_8_amplitude_1.5_rep_7_r_K.png	 K	 r	 r	 n.a.	 4.259077e-01
5	 3	 124	 unflanked	 bex	 4	 1.500000	 0.000000	 unflanked_bex_freq_4_amplitude_1.5_rep_9_r_K.png	 K	 r	 r	 n.a.	 4.108717e-01
5	 3	 125	 unflanked	 bex	 2	 0.500000	 0.000000	 unflanked_bex_freq_2_amplitude_0.5_rep_5_t_N.png	 N	 t	 b	 n.a.	 5.685684e-01
5	 3	 126	 unflanked	 bex	 6	 5.000000	 0.000000	 unflanked_bex_freq_6_amplitude_5_rep_1_r_D.png	 D	 r	 r	 n.a.	 2.704278e-01
5	 3	 127	 unflanked	 bex	 4	 2.000000	 0.000000	 unflanked_bex_freq_4_amplitude_2_rep_6_l_D.png	 D	 l	 l	 n.a.	 3.325842e-01
5	 3	 128	 unflanked	 bex	 2	 2.500000	 0.000000	 unflanked_bex_freq_2_amplitude_2.5_rep_8_b_N.png	 N	 b	 b	 n.a.	 5.737981e-01
5	 3	 129	 unflanked	 bex	 2	 0.500000	 0.000000	 unflanked_bex_freq_2_amplitude_0.5_rep_8_t_D.png	 D	 t	 r	 n.a.	 6.923919e-01
5	 3	 130	 unflanked	 bex	 2	 1.000000	 0.000000	 unflanked_bex_freq_2_amplitude_1_rep_7_t_K.png	 K	 t	 r	 n.a.	 3.169688e-01
5	 3	 131	 unflanked	 bex	 6	 2.000000	 0.000000	 unflanked_bex_freq_6_amplitude_2_rep_2_l_K.png	 K	 l	 l	 n.a.	 2.398732e-01
5	 3	 132	 unflanked	 bex	 4	 5.000000	 0.000000	 unflanked_bex_freq_4_amplitude_5_rep_3_t_N.png	 N	 t	 t	 n.a.	 5.668326e-01
5	 3	 133	 unflanked	 bex	 16	 2.000000	 0.000000	 unflanked_bex_freq_16_amplitude_2_rep_8_b_D.png	 D	 b	 b	 n.a.	 6.441063e-01
5	 3	 134	 unflanked	 bex	 2	 0.500000	 0.000000	 unflanked_bex_freq_2_amplitude_0.5_rep_9_t_H.png	 H	 t	 r	 n.a.	 3.567415e-01
5	 3	 135	 unflanked	 bex	 2	 1.000000	 0.000000	 unflanked_bex_freq_2_amplitude_1_rep_6_t_N.png	 N	 t	 b	 n.a.	 9.757019e-01
5	 3	 136	 unflanked	 bex	 6	 1.000000	 0.000000	 unflanked_bex_freq_6_amplitude_1_rep_1_l_N.png	 N	 l	 l	 n.a.	 3.601780e-01
5	 3	 137	 unflanked	 bex	 32	 1.500000	 0.000000	 unflanked_bex_freq_32_amplitude_1.5_rep_8_l_H.png	 H	 l	 r	 n.a.	 4.656011e-01
5	 3	 138	 unflanked	 bex	 6	 1.000000	 0.000000	 unflanked_bex_freq_6_amplitude_1_rep_0_r_H.png	 H	 r	 r	 n.a.	 6.599727e-01
5	 3	 139	 unflanked	 bex	 16	 0.500000	 0.000000	 unflanked_bex_freq_16_amplitude_0.5_rep_7_t_D.png	 D	 t	 t	 n.a.	 5.521091e-01
5	 3	 140	 unflanked	 bex	 2	 2.000000	 0.000000	 unflanked_bex_freq_2_amplitude_2_rep_7_b_H.png	 H	 b	 b	 n.a.	 5.098652e-01
5	 3	 141	 unflanked	 bex	 32	 5.000000	 0.000000	 unflanked_bex_freq_32_amplitude_5_rep_3_t_D.png	 D	 t	 t	 n.a.	 4.845490e-01
5	 3	 142	 unflanked	 bex	 6	 1.000000	 0.000000	 unflanked_bex_freq_6_amplitude_1_rep_6_r_N.png	 N	 r	 t	 n.a.	 9.797445e-01
5	 3	 143	 unflanked	 bex	 32	 1.500000	 0.000000	 unflanked_bex_freq_32_amplitude_1.5_rep_5_t_H.png	 H	 t	 l	 n.a.	 5.689256e-01
5	 3	 144	 unflanked	 bex	 4	 3.000000	 0.000000	 unflanked_bex_freq_4_amplitude_3_rep_6_b_N.png	 N	 b	 b	 n.a.	 4.381963e-01
5	 3	 145	 unflanked	 bex	 4	 3.000000	 0.000000	 unflanked_bex_freq_4_amplitude_3_rep_8_l_N.png	 N	 l	 l	 n.a.	 3.308341e-01
5	 3	 146	 unflanked	 bex	 6	 1.500000	 0.000000	 unflanked_bex_freq_6_amplitude_1.5_rep_1_b_N.png	 N	 b	 b	 n.a.	 4.491546e-01
5	 3	 147	 unflanked	 bex	 2	 2.500000	 0.000000	 unflanked_bex_freq_2_amplitude_2.5_rep_3_b_K.png	 K	 b	 b	 n.a.	 3.768237e-01
5	 3	 148	 unflanked	 bex	 2	 0.500000	 0.000000	 unflanked_bex_freq_2_amplitude_0.5_rep_7_r_K.png	 K	 r	 r	 n.a.	 3.906454e-01
5	 3	 149	 unflanked	 bex	 8	 3.000000	 0.000000	 unflanked_bex_freq_8_amplitude_3_rep_8_l_H.png	 H	 l	 l	 n.a.	 2.865696e-01
5	 3	 150	 unflanked	 bex	 8	 3.000000	 0.000000	 unflanked_bex_freq_8_amplitude_3_rep_6_b_H.png	 H	 b	 b	 n.a.	 5.680356e-01
5	 3	 151	 unflanked	 bex	 4	 3.000000	 0.000000	 unflanked_bex_freq_4_amplitude_3_rep_4_b_H.png	 H	 b	 b	 n.a.	 3.306577e-01
5	 3	 152	 unflanked	 bex	 2	 2.000000	 0.000000	 unflanked_bex_freq_2_amplitude_2_rep_5_r_K.png	 K	 r	 r	 n.a.	 3.733498e-01
5	 3	 153	 unflanked	 bex	 16	 3.000000	 0.000000	 unflanked_bex_freq_16_amplitude_3_rep_6_l_K.png	 K	 l	 l	 n.a.	 2.830891e-01
5	 3	 154	 unflanked	 bex	 16	 5.000000	 0.000000	 unflanked_bex_freq_16_amplitude_5_rep_9_b_N.png	 N	 b	 b	 n.a.	 4.371795e-01
5	 3	 155	 unflanked	 bex	 16	 0.500000	 0.000000	 unflanked_bex_freq_16_amplitude_0.5_rep_2_r_N.png	 N	 r	 l	 n.a.	 3.431292e-01
5	 3	 156	 unflanked	 bex	 32	 2.000000	 0.000000	 unflanked_bex_freq_32_amplitude_2_rep_8_b_H.png	 H	 b	 r	 n.a.	 3.238792e-01
5	 3	 157	 unflanked	 bex	 6	 1.500000	 0.000000	 unflanked_bex_freq_6_amplitude_1.5_rep_7_b_K.png	 K	 b	 b	 n.a.	 5.587100e-01
5	 3	 158	 unflanked	 bex	 2	 2.500000	 0.000000	 unflanked_bex_freq_2_amplitude_2.5_rep_1_b_K.png	 K	 b	 b	 n.a.	 3.878223e-01
5	 3	 159	 unflanked	 bex	 16	 2.500000	 0.000000	 unflanked_bex_freq_16_amplitude_2.5_rep_2_r_N.png	 N	 r	 r	 n.a.	 3.586840e-01
5	 3	 160	 unflanked	 bex	 4	 2.500000	 0.000000	 unflanked_bex_freq_4_amplitude_2.5_rep_5_b_N.png	 N	 b	 l	 n.a.	 5.595343e-01
5	 3	 161	 unflanked	 bex	 8	 1.500000	 0.000000	 unflanked_bex_freq_8_amplitude_1.5_rep_3_l_N.png	 N	 l	 l	 n.a.	 4.427233e-01
5	 3	 162	 unflanked	 bex	 32	 3.000000	 0.000000	 unflanked_bex_freq_32_amplitude_3_rep_1_l_K.png	 K	 l	 t	 n.a.	 7.664812e-01
5	 3	 163	 unflanked	 bex	 32	 0.500000	 0.000000	 unflanked_bex_freq_32_amplitude_0.5_rep_4_b_H.png	 H	 b	 b	 n.a.	 5.061519e-01
5	 3	 164	 unflanked	 bex	 16	 2.500000	 0.000000	 unflanked_bex_freq_16_amplitude_2.5_rep_6_r_K.png	 K	 r	 r	 n.a.	 2.569328e-01
5	 3	 165	 unflanked	 bex	 4	 1.000000	 0.000000	 unflanked_bex_freq_4_amplitude_1_rep_5_l_D.png	 D	 l	 t	 n.a.	 6.575925e-01
5	 3	 166	 unflanked	 bex	 32	 1.000000	 0.000000	 unflanked_bex_freq_32_amplitude_1_rep_4_r_D.png	 D	 r	 r	 n.a.	 2.930774e-01
5	 3	 167	 unflanked	 bex	 2	 5.000000	 0.000000	 unflanked_bex_freq_2_amplitude_5_rep_2_r_D.png	 D	 r	 r	 n.a.	 3.241250e-01
5	 3	 168	 unflanked	 bex	 4	 3.000000	 0.000000	 unflanked_bex_freq_4_amplitude_3_rep_7_t_D.png	 D	 t	 t	 n.a.	 5.235384e-01
5	 3	 169	 unflanked	 bex	 8	 1.500000	 0.000000	 unflanked_bex_freq_8_amplitude_1.5_rep_0_r_K.png	 K	 r	 r	 n.a.	 2.873204e-01
5	 3	 170	 unflanked	 bex	 16	 5.000000	 0.000000	 unflanked_bex_freq_16_amplitude_5_rep_3_l_H.png	 H	 l	 l	 n.a.	 4.021788e-01
5	 3	 171	 unflanked	 bex	 2	 2.000000	 0.000000	 unflanked_bex_freq_2_amplitude_2_rep_1_t_N.png	 N	 t	 r	 n.a.	 2.777499e-01
5	 3	 172	 unflanked	 bex	 8	 5.000000	 0.000000	 unflanked_bex_freq_8_amplitude_5_rep_3_l_N.png	 N	 l	 l	 n.a.	 3.100987e-01
5	 3	 173	 unflanked	 bex	 16	 5.000000	 0.000000	 unflanked_bex_freq_16_amplitude_5_rep_2_t_D.png	 D	 t	 t	 n.a.	 4.431893e-01
5	 3	 174	 unflanked	 bex	 8	 2.500000	 0.000000	 unflanked_bex_freq_8_amplitude_2.5_rep_4_l_K.png	 K	 l	 l	 n.a.	 2.691280e-01
5	 3	 175	 unflanked	 bex	 2	 0.500000	 0.000000	 unflanked_bex_freq_2_amplitude_0.5_rep_3_r_H.png	 H	 r	 r	 n.a.	 3.843143e-01
5	 3	 176	 unflanked	 bex	 6	 0.500000	 0.000000	 unflanked_bex_freq_6_amplitude_0.5_rep_0_t_N.png	 N	 t	 b	 n.a.	 1.020710e+00
5	 3	 177	 unflanked	 bex	 6	 2.500000	 0.000000	 unflanked_bex_freq_6_amplitude_2.5_rep_6_b_D.png	 D	 b	 b	 n.a.	 3.816181e-01
5	 3	 178	 unflanked	 bex	 8	 0.500000	 0.000000	 unflanked_bex_freq_8_amplitude_0.5_rep_0_b_N.png	 N	 b	 r	 n.a.	 3.476161e-01
5	 3	 179	 unflanked	 bex	 6	 0.500000	 0.000000	 unflanked_bex_freq_6_amplitude_0.5_rep_7_l_D.png	 D	 l	 b	 n.a.	 5.478781e-01
5	 3	 180	 unflanked	 bex	 32	 1.000000	 0.000000	 unflanked_bex_freq_32_amplitude_1_rep_7_l_K.png	 K	 l	 l	 n.a.	 5.096639e-01
5	 3	 181	 unflanked	 bex	 4	 2.000000	 0.000000	 unflanked_bex_freq_4_amplitude_2_rep_9_l_K.png	 K	 l	 l	 n.a.	 6.094918e-01
5	 3	 182	 unflanked	 bex	 8	 1.000000	 0.000000	 unflanked_bex_freq_8_amplitude_1_rep_3_r_N.png	 N	 r	 r	 n.a.	 3.682960e-01
5	 3	 183	 unflanked	 bex	 4	 3.000000	 0.000000	 unflanked_bex_freq_4_amplitude_3_rep_9_t_H.png	 H	 t	 t	 n.a.	 6.018218e-01
5	 3	 184	 unflanked	 bex	 4	 0.500000	 0.000000	 unflanked_bex_freq_4_amplitude_0.5_rep_0_r_D.png	 D	 r	 r	 n.a.	 4.342354e-01
5	 3	 185	 unflanked	 bex	 32	 2.500000	 0.000000	 unflanked_bex_freq_32_amplitude_2.5_rep_1_l_H.png	 H	 l	 l	 n.a.	 4.397942e-01
5	 3	 186	 unflanked	 bex	 32	 5.000000	 0.000000	 unflanked_bex_freq_32_amplitude_5_rep_9_l_H.png	 H	 l	 l	 n.a.	 3.075766e-01
5	 3	 187	 unflanked	 bex	 8	 0.500000	 0.000000	 unflanked_bex_freq_8_amplitude_0.5_rep_5_b_N.png	 N	 b	 r	 n.a.	 4.119191e-01
5	 3	 188	 unflanked	 bex	 4	 1.500000	 0.000000	 unflanked_bex_freq_4_amplitude_1.5_rep_7_b_N.png	 N	 b	 r	 n.a.	 4.759308e-01
5	 3	 189	 unflanked	 bex	 16	 1.000000	 0.000000	 unflanked_bex_freq_16_amplitude_1_rep_6_t_D.png	 D	 t	 r	 n.a.	 2.978179e-01
5	 3	 190	 unflanked	 bex	 6	 3.000000	 0.000000	 unflanked_bex_freq_6_amplitude_3_rep_7_l_H.png	 H	 l	 l	 n.a.	 3.279438e-01
5	 3	 191	 unflanked	 bex	 16	 1.000000	 0.000000	 unflanked_bex_freq_16_amplitude_1_rep_9_t_H.png	 H	 t	 r	 n.a.	 3.937814e-01
5	 3	 192	 unflanked	 bex	 8	 2.000000	 0.000000	 unflanked_bex_freq_8_amplitude_2_rep_1_l_D.png	 D	 l	 l	 n.a.	 2.624837e-01
5	 3	 193	 unflanked	 bex	 4	 5.000000	 0.000000	 unflanked_bex_freq_4_amplitude_5_rep_5_r_K.png	 K	 r	 r	 n.a.	 2.483030e-01
5	 3	 194	 unflanked	 bex	 8	 3.000000	 0.000000	 unflanked_bex_freq_8_amplitude_3_rep_2_l_D.png	 D	 l	 l	 n.a.	 2.803623e-01
5	 3	 195	 unflanked	 bex	 8	 2.500000	 0.000000	 unflanked_bex_freq_8_amplitude_2.5_rep_5_b_D.png	 D	 b	 b	 n.a.	 4.112086e-01
5	 3	 196	 unflanked	 bex	 32	 0.500000	 0.000000	 unflanked_bex_freq_32_amplitude_0.5_rep_3_t_N.png	 N	 t	 l	 n.a.	 3.740031e-01
5	 3	 197	 unflanked	 bex	 8	 1.500000	 0.000000	 unflanked_bex_freq_8_amplitude_1.5_rep_8_l_D.png	 D	 l	 l	 n.a.	 3.167064e-01
5	 3	 198	 unflanked	 bex	 2	 1.500000	 0.000000	 unflanked_bex_freq_2_amplitude_1.5_rep_5_l_H.png	 H	 l	 l	 n.a.	 3.279370e-01
5	 3	 199	 unflanked	 bex	 4	 0.500000	 0.000000	 unflanked_bex_freq_4_amplitude_0.5_rep_9_r_K.png	 K	 r	 b	 n.a.	 5.129299e-01
5	 3	 200	 unflanked	 bex	 32	 0.500000	 0.000000	 unflanked_bex_freq_32_amplitude_0.5_rep_0_b_H.png	 H	 b	 t	 n.a.	 6.169342e-01
5	 3	 201	 unflanked	 bex	 2	 1.500000	 0.000000	 unflanked_bex_freq_2_amplitude_1.5_rep_7_b_N.png	 N	 b	 b	 n.a.	 6.726732e-01
5	 3	 202	 unflanked	 bex	 4	 5.000000	 0.000000	 unflanked_bex_freq_4_amplitude_5_rep_0_t_D.png	 D	 t	 t	 n.a.	 5.523162e-01
5	 3	 203	 unflanked	 bex	 16	 3.000000	 0.000000	 unflanked_bex_freq_16_amplitude_3_rep_3_b_N.png	 N	 b	 r	 n.a.	 7.721176e-01
5	 3	 204	 unflanked	 bex	 8	 0.500000	 0.000000	 unflanked_bex_freq_8_amplitude_0.5_rep_8_r_K.png	 K	 r	 b	 n.a.	 7.841529e-01
5	 3	 205	 unflanked	 bex	 2	 2.000000	 0.000000	 unflanked_bex_freq_2_amplitude_2_rep_4_l_N.png	 N	 l	 t	 n.a.	 6.388162e-01
5	 3	 206	 unflanked	 bex	 16	 2.500000	 0.000000	 unflanked_bex_freq_16_amplitude_2.5_rep_0_t_H.png	 H	 t	 t	 n.a.	 3.389925e-01
5	 3	 207	 unflanked	 bex	 4	 1.500000	 0.000000	 unflanked_bex_freq_4_amplitude_1.5_rep_5_r_K.png	 K	 r	 r	 n.a.	 4.226113e-01
5	 3	 208	 unflanked	 bex	 6	 2.500000	 0.000000	 unflanked_bex_freq_6_amplitude_2.5_rep_7_r_N.png	 N	 r	 r	 n.a.	 2.823793e-01
5	 3	 209	 unflanked	 bex	 2	 3.000000	 0.000000	 unflanked_bex_freq_2_amplitude_3_rep_7_r_D.png	 D	 r	 r	 n.a.	 2.604522e-01
5	 3	 210	 unflanked	 bex	 32	 2.500000	 0.000000	 unflanked_bex_freq_32_amplitude_2.5_rep_4_r_N.png	 N	 r	 r	 n.a.	 4.178633e-01
5	 3	 211	 unflanked	 bex	 2	 5.000000	 0.000000	 unflanked_bex_freq_2_amplitude_5_rep_4_b_N.png	 N	 b	 r	 n.a.	 6.238857e-01
5	 3	 212	 unflanked	 bex	 2	 1.000000	 0.000000	 unflanked_bex_freq_2_amplitude_1_rep_2_r_K.png	 K	 r	 r	 n.a.	 2.457323e-01
5	 3	 213	 unflanked	 bex	 8	 5.000000	 0.000000	 unflanked_bex_freq_8_amplitude_5_rep_2_b_N.png	 N	 b	 b	 n.a.	 3.878677e-01
5	 3	 214	 unflanked	 bex	 2	 0.500000	 0.000000	 unflanked_bex_freq_2_amplitude_0.5_rep_2_t_D.png	 D	 t	 r	 n.a.	 3.300568e-01
5	 3	 215	 unflanked	 bex	 6	 2.500000	 0.000000	 unflanked_bex_freq_6_amplitude_2.5_rep_8_r_N.png	 N	 r	 r	 n.a.	 2.284379e-01
5	 3	 216	 unflanked	 bex	 32	 1.000000	 0.000000	 unflanked_bex_freq_32_amplitude_1_rep_1_l_K.png	 K	 l	 b	 n.a.	 5.552247e-01
5	 3	 217	 unflanked	 bex	 6	 3.000000	 0.000000	 unflanked_bex_freq_6_amplitude_3_rep_2_l_H.png	 H	 l	 l	 n.a.	 2.222136e-01
5	 3	 218	 unflanked	 bex	 2	 1.000000	 0.000000	 unflanked_bex_freq_2_amplitude_1_rep_1_l_D.png	 D	 l	 l	 n.a.	 6.241738e-01
5	 3	 219	 unflanked	 bex	 2	 1.500000	 0.000000	 unflanked_bex_freq_2_amplitude_1.5_rep_9_t_H.png	 H	 t	 t	 n.a.	 6.035984e-01
5	 3	 220	 unflanked	 bex	 4	 2.000000	 0.000000	 unflanked_bex_freq_4_amplitude_2_rep_8_b_K.png	 K	 b	 b	 n.a.	 5.125631e-01
5	 3	 221	 unflanked	 bex	 6	 0.500000	 0.000000	 unflanked_bex_freq_6_amplitude_0.5_rep_3_b_D.png	 D	 b	 r	 n.a.	 7.999317e-01
5	 3	 222	 unflanked	 bex	 8	 2.000000	 0.000000	 unflanked_bex_freq_8_amplitude_2_rep_2_t_N.png	 N	 t	 t	 n.a.	 4.427365e-01
5	 3	 223	 unflanked	 bex	 6	 3.000000	 0.000000	 unflanked_bex_freq_6_amplitude_3_rep_5_b_K.png	 K	 b	 b	 n.a.	 4.510047e-01
5	 3	 224	 unflanked	 bex	 32	 3.000000	 0.000000	 unflanked_bex_freq_32_amplitude_3_rep_9_r_H.png	 H	 r	 r	 n.a.	 3.379193e-01
5	 3	 225	 unflanked	 bex	 4	 1.000000	 0.000000	 unflanked_bex_freq_4_amplitude_1_rep_4_b_N.png	 N	 b	 t	 n.a.	 5.472823e-01
5	 3	 226	 unflanked	 bex	 6	 2.000000	 0.000000	 unflanked_bex_freq_6_amplitude_2_rep_6_l_N.png	 N	 l	 l	 n.a.	 2.717564e-01
5	 3	 227	 unflanked	 bex	 8	 3.000000	 0.000000	 unflanked_bex_freq_8_amplitude_3_rep_0_b_D.png	 D	 b	 b	 n.a.	 3.620732e-01
5	 3	 228	 unflanked	 bex	 6	 0.500000	 0.000000	 unflanked_bex_freq_6_amplitude_0.5_rep_2_t_K.png	 K	 t	 t	 n.a.	 5.108116e-01
5	 3	 229	 unflanked	 bex	 4	 1.500000	 0.000000	 unflanked_bex_freq_4_amplitude_1.5_rep_0_l_H.png	 H	 l	 l	 n.a.	 4.991923e-01
5	 3	 230	 unflanked	 bex	 4	 3.000000	 0.000000	 unflanked_bex_freq_4_amplitude_3_rep_3_b_D.png	 D	 b	 b	 n.a.	 4.655248e-01
5	 3	 231	 unflanked	 bex	 32	 0.500000	 0.000000	 unflanked_bex_freq_32_amplitude_0.5_rep_1_b_K.png	 K	 b	 b	 n.a.	 5.280459e-01
5	 3	 232	 unflanked	 bex	 8	 1.500000	 0.000000	 unflanked_bex_freq_8_amplitude_1.5_rep_5_t_K.png	 K	 t	 t	 n.a.	 5.157904e-01
5	 3	 233	 unflanked	 bex	 4	 5.000000	 0.000000	 unflanked_bex_freq_4_amplitude_5_rep_4_l_H.png	 H	 l	 l	 n.a.	 3.218281e-01
5	 3	 234	 unflanked	 bex	 2	 2.000000	 0.000000	 unflanked_bex_freq_2_amplitude_2_rep_0_r_N.png	 N	 r	 l	 n.a.	 8.266524e-01
5	 3	 235	 unflanked	 bex	 2	 1.000000	 0.000000	 unflanked_bex_freq_2_amplitude_1_rep_8_l_D.png	 D	 l	 r	 n.a.	 7.014682e-01
5	 3	 236	 unflanked	 bex	 16	 1.000000	 0.000000	 unflanked_bex_freq_16_amplitude_1_rep_2_l_K.png	 K	 l	 t	 n.a.	 4.840959e-01
5	 3	 237	 unflanked	 bex	 4	 1.500000	 0.000000	 unflanked_bex_freq_4_amplitude_1.5_rep_2_t_H.png	 H	 t	 t	 n.a.	 4.944735e-01
5	 3	 238	 unflanked	 bex	 4	 5.000000	 0.000000	 unflanked_bex_freq_4_amplitude_5_rep_7_r_K.png	 K	 r	 r	 n.a.	 2.577450e-01
5	 3	 239	 unflanked	 bex	 32	 1.500000	 0.000000	 unflanked_bex_freq_32_amplitude_1.5_rep_3_l_N.png	 N	 l	 r	 n.a.	 5.278586e-01
5	 3	 240	 unflanked	 bex	 32	 1.500000	 0.000000	 unflanked_bex_freq_32_amplitude_1.5_rep_0_l_D.png	 D	 l	 t	 n.a.	 5.362346e-01
5	 3	 241	 unflanked	 bex	 16	 0.500000	 0.000000	 unflanked_bex_freq_16_amplitude_0.5_rep_9_b_K.png	 K	 b	 t	 n.a.	 6.875374e-01
5	 3	 242	 unflanked	 bex	 8	 2.500000	 0.000000	 unflanked_bex_freq_8_amplitude_2.5_rep_6_l_K.png	 K	 l	 l	 n.a.	 2.728717e-01
5	 3	 243	 unflanked	 bex	 16	 2.500000	 0.000000	 unflanked_bex_freq_16_amplitude_2.5_rep_3_l_N.png	 N	 l	 l	 n.a.	 3.939331e-01
5	 3	 244	 unflanked	 bex	 16	 1.000000	 0.000000	 unflanked_bex_freq_16_amplitude_1_rep_0_r_N.png	 N	 r	 r	 n.a.	 4.853567e-01
5	 3	 245	 unflanked	 bex	 6	 0.500000	 0.000000	 unflanked_bex_freq_6_amplitude_0.5_rep_6_t_N.png	 N	 t	 t	 n.a.	 5.542093e-01
5	 3	 246	 unflanked	 bex	 4	 0.500000	 0.000000	 unflanked_bex_freq_4_amplitude_0.5_rep_7_r_D.png	 D	 r	 r	 n.a.	 8.760306e-01
5	 3	 247	 unflanked	 bex	 6	 1.500000	 0.000000	 unflanked_bex_freq_6_amplitude_1.5_rep_4_b_N.png	 N	 b	 b	 n.a.	 4.411644e-01
5	 3	 248	 unflanked	 bex	 32	 2.000000	 0.000000	 unflanked_bex_freq_32_amplitude_2_rep_5_b_K.png	 K	 b	 r	 n.a.	 4.556610e-01
5	 3	 249	 unflanked	 bex	 16	 1.500000	 0.000000	 unflanked_bex_freq_16_amplitude_1.5_rep_5_t_H.png	 H	 t	 b	 n.a.	 6.325809e-01
5	 3	 250	 unflanked	 bex	 16	 2.500000	 0.000000	 unflanked_bex_freq_16_amplitude_2.5_rep_4_r_H.png	 H	 r	 r	 n.a.	 2.563063e-01
5	 3	 251	 unflanked	 bex	 6	 5.000000	 0.000000	 unflanked_bex_freq_6_amplitude_5_rep_0_t_K.png	 K	 t	 t	 n.a.	 4.559813e-01
5	 3	 252	 unflanked	 bex	 16	 1.000000	 0.000000	 unflanked_bex_freq_16_amplitude_1_rep_5_r_D.png	 D	 r	 r	 n.a.	 6.943323e-01
5	 3	 253	 unflanked	 bex	 16	 3.000000	 0.000000	 unflanked_bex_freq_16_amplitude_3_rep_4_l_N.png	 N	 l	 l	 n.a.	 2.885391e-01
5	 3	 254	 unflanked	 bex	 4	 1.000000	 0.000000	 unflanked_bex_freq_4_amplitude_1_rep_8_t_H.png	 H	 t	 r	 n.a.	 2.977056e-01
5	 3	 255	 unflanked	 bex	 8	 1.000000	 0.000000	 unflanked_bex_freq_8_amplitude_1_rep_5_b_K.png	 K	 b	 b	 n.a.	 6.415055e-01
5	 3	 256	 unflanked	 bex	 8	 5.000000	 0.000000	 unflanked_bex_freq_8_amplitude_5_rep_8_b_D.png	 D	 b	 b	 n.a.	 2.987008e-01
5	 3	 257	 unflanked	 bex	 32	 2.000000	 0.000000	 unflanked_bex_freq_32_amplitude_2_rep_3_l_N.png	 N	 l	 r	 n.a.	 5.367554e-01
5	 3	 258	 unflanked	 bex	 8	 3.000000	 0.000000	 unflanked_bex_freq_8_amplitude_3_rep_3_l_H.png	 H	 l	 l	 n.a.	 2.900540e-01
5	 3	 259	 unflanked	 bex	 32	 3.000000	 0.000000	 unflanked_bex_freq_32_amplitude_3_rep_5_r_N.png	 N	 r	 r	 n.a.	 2.830621e-01
5	 3	 260	 unflanked	 bex	 8	 1.000000	 0.000000	 unflanked_bex_freq_8_amplitude_1_rep_4_b_H.png	 H	 b	 r	 n.a.	 4.304906e-01
5	 3	 261	 unflanked	 bex	 8	 5.000000	 0.000000	 unflanked_bex_freq_8_amplitude_5_rep_1_l_D.png	 D	 l	 l	 n.a.	 2.335933e-01
5	 3	 262	 unflanked	 bex	 2	 1.000000	 0.000000	 unflanked_bex_freq_2_amplitude_1_rep_5_l_D.png	 D	 l	 b	 n.a.	 7.615796e-01
5	 3	 263	 unflanked	 bex	 32	 5.000000	 0.000000	 unflanked_bex_freq_32_amplitude_5_rep_4_t_D.png	 D	 t	 t	 n.a.	 5.583153e-01
5	 3	 264	 unflanked	 bex	 4	 3.000000	 0.000000	 unflanked_bex_freq_4_amplitude_3_rep_5_r_K.png	 K	 r	 r	 n.a.	 2.276367e-01
5	 3	 265	 unflanked	 bex	 32	 2.500000	 0.000000	 unflanked_bex_freq_32_amplitude_2.5_rep_2_t_N.png	 N	 t	 t	 n.a.	 5.340281e-01
5	 3	 266	 unflanked	 bex	 8	 3.000000	 0.000000	 unflanked_bex_freq_8_amplitude_3_rep_5_b_N.png	 N	 b	 r	 n.a.	 3.622018e-01
5	 3	 267	 unflanked	 bex	 4	 2.500000	 0.000000	 unflanked_bex_freq_4_amplitude_2.5_rep_9_l_H.png	 H	 l	 l	 n.a.	 5.268718e-01
5	 3	 268	 unflanked	 bex	 32	 2.500000	 0.000000	 unflanked_bex_freq_32_amplitude_2.5_rep_7_l_H.png	 H	 l	 t	 n.a.	 5.279161e-01
5	 3	 269	 unflanked	 bex	 16	 2.000000	 0.000000	 unflanked_bex_freq_16_amplitude_2_rep_5_l_D.png	 D	 l	 l	 n.a.	 3.420167e-01
5	 3	 270	 unflanked	 bex	 32	 3.000000	 0.000000	 unflanked_bex_freq_32_amplitude_3_rep_8_t_K.png	 K	 t	 t	 n.a.	 8.431241e-01
5	 3	 271	 unflanked	 bex	 8	 2.500000	 0.000000	 unflanked_bex_freq_8_amplitude_2.5_rep_1_t_H.png	 H	 t	 t	 n.a.	 4.292130e-01
5	 3	 272	 unflanked	 bex	 8	 2.500000	 0.000000	 unflanked_bex_freq_8_amplitude_2.5_rep_8_r_K.png	 K	 r	 r	 n.a.	 2.738239e-01
5	 3	 273	 unflanked	 bex	 6	 0.500000	 0.000000	 unflanked_bex_freq_6_amplitude_0.5_rep_9_t_H.png	 H	 t	 t	 n.a.	 4.889999e-01
5	 3	 274	 unflanked	 bex	 2	 5.000000	 0.000000	 unflanked_bex_freq_2_amplitude_5_rep_7_r_H.png	 H	 r	 r	 n.a.	 2.868492e-01
5	 3	 275	 unflanked	 bex	 32	 0.500000	 0.000000	 unflanked_bex_freq_32_amplitude_0.5_rep_7_l_N.png	 N	 l	 r	 n.a.	 3.429839e-01
5	 3	 276	 unflanked	 bex	 8	 0.500000	 0.000000	 unflanked_bex_freq_8_amplitude_0.5_rep_1_r_D.png	 D	 r	 r	 n.a.	 4.868292e-01
5	 3	 277	 unflanked	 bex	 32	 0.500000	 0.000000	 unflanked_bex_freq_32_amplitude_0.5_rep_9_t_N.png	 N	 t	 r	 n.a.	 4.807202e-01
5	 3	 278	 unflanked	 bex	 2	 1.500000	 0.000000	 unflanked_bex_freq_2_amplitude_1.5_rep_1_t_N.png	 N	 t	 r	 n.a.	 6.412622e-01
5	 3	 279	 unflanked	 bex	 6	 3.000000	 0.000000	 unflanked_bex_freq_6_amplitude_3_rep_0_b_K.png	 K	 b	 b	 n.a.	 3.834058e-01
5	 3	 280	 unflanked	 bex	 8	 2.500000	 0.000000	 unflanked_bex_freq_8_amplitude_2.5_rep_0_t_N.png	 N	 t	 t	 n.a.	 5.344241e-01
5	 3	 281	 unflanked	 bex	 6	 3.000000	 0.000000	 unflanked_bex_freq_6_amplitude_3_rep_8_l_N.png	 N	 l	 l	 n.a.	 3.008436e-01
5	 3	 282	 unflanked	 bex	 2	 3.000000	 0.000000	 unflanked_bex_freq_2_amplitude_3_rep_5_r_K.png	 K	 r	 r	 n.a.	 2.602946e-01
5	 3	 283	 unflanked	 bex	 4	 0.500000	 0.000000	 unflanked_bex_freq_4_amplitude_0.5_rep_2_r_D.png	 D	 r	 t	 n.a.	 4.537797e-01
5	 3	 284	 unflanked	 bex	 4	 3.000000	 0.000000	 unflanked_bex_freq_4_amplitude_3_rep_2_t_D.png	 D	 t	 t	 n.a.	 3.678790e-01
5	 3	 285	 unflanked	 bex	 6	 1.000000	 0.000000	 unflanked_bex_freq_6_amplitude_1_rep_9_r_N.png	 N	 r	 l	 n.a.	 5.519015e-01
5	 3	 286	 unflanked	 bex	 32	 2.000000	 0.000000	 unflanked_bex_freq_32_amplitude_2_rep_6_r_K.png	 K	 r	 r	 n.a.	 2.201754e-01
5	 3	 287	 unflanked	 bex	 2	 2.000000	 0.000000	 unflanked_bex_freq_2_amplitude_2_rep_3_l_D.png	 D	 l	 l	 n.a.	 2.897578e-01
5	 3	 288	 unflanked	 bex	 16	 3.000000	 0.000000	 unflanked_bex_freq_16_amplitude_3_rep_5_r_H.png	 H	 r	 r	 n.a.	 2.766621e-01
5	 3	 289	 unflanked	 bex	 4	 3.000000	 0.000000	 unflanked_bex_freq_4_amplitude_3_rep_0_r_H.png	 H	 r	 r	 n.a.	 2.835755e-01
5	 3	 290	 unflanked	 bex	 6	 1.000000	 0.000000	 unflanked_bex_freq_6_amplitude_1_rep_8_r_K.png	 K	 r	 r	 n.a.	 3.872787e-01
5	 3	 291	 unflanked	 bex	 4	 0.500000	 0.000000	 unflanked_bex_freq_4_amplitude_0.5_rep_6_b_H.png	 H	 b	 b	 n.a.	 7.243136e-01
5	 3	 292	 unflanked	 bex	 16	 1.500000	 0.000000	 unflanked_bex_freq_16_amplitude_1.5_rep_9_t_H.png	 H	 t	 r	 n.a.	 4.660751e-01
5	 3	 293	 unflanked	 bex	 8	 0.500000	 0.000000	 unflanked_bex_freq_8_amplitude_0.5_rep_6_l_D.png	 D	 l	 b	 n.a.	 5.944104e-01
5	 3	 294	 unflanked	 bex	 4	 2.500000	 0.000000	 unflanked_bex_freq_4_amplitude_2.5_rep_3_r_H.png	 H	 r	 r	 n.a.	 2.849377e-01
5	 3	 295	 unflanked	 bex	 8	 3.000000	 0.000000	 unflanked_bex_freq_8_amplitude_3_rep_1_r_K.png	 K	 r	 r	 n.a.	 2.162049e-01
5	 3	 296	 unflanked	 bex	 8	 0.500000	 0.000000	 unflanked_bex_freq_8_amplitude_0.5_rep_4_r_D.png	 D	 r	 b	 n.a.	 4.457440e-01
5	 3	 297	 unflanked	 bex	 16	 2.500000	 0.000000	 unflanked_bex_freq_16_amplitude_2.5_rep_5_l_N.png	 N	 l	 l	 n.a.	 2.716052e-01
5	 3	 298	 unflanked	 bex	 6	 2.500000	 0.000000	 unflanked_bex_freq_6_amplitude_2.5_rep_4_t_K.png	 K	 t	 t	 n.a.	 4.626965e-01
5	 3	 299	 unflanked	 bex	 2	 3.000000	 0.000000	 unflanked_bex_freq_2_amplitude_3_rep_8_t_K.png	 K	 t	 t	 n.a.	 3.946547e-01
5	 3	 300	 unflanked	 bex	 4	 1.000000	 0.000000	 unflanked_bex_freq_4_amplitude_1_rep_7_l_K.png	 K	 l	 l	 n.a.	 2.891817e-01
5	 3	 301	 unflanked	 bex	 32	 1.500000	 0.000000	 unflanked_bex_freq_32_amplitude_1.5_rep_6_l_D.png	 D	 l	 l	 n.a.	 3.217635e-01
5	 3	 302	 unflanked	 bex	 16	 3.000000	 0.000000	 unflanked_bex_freq_16_amplitude_3_rep_7_l_H.png	 H	 l	 l	 n.a.	 2.730884e-01
5	 3	 303	 unflanked	 bex	 6	 2.500000	 0.000000	 unflanked_bex_freq_6_amplitude_2.5_rep_3_b_K.png	 K	 b	 b	 n.a.	 4.463482e-01
5	 3	 304	 unflanked	 bex	 2	 5.000000	 0.000000	 unflanked_bex_freq_2_amplitude_5_rep_0_l_H.png	 H	 l	 l	 n.a.	 3.422479e-01
5	 3	 305	 unflanked	 bex	 8	 1.000000	 0.000000	 unflanked_bex_freq_8_amplitude_1_rep_9_b_K.png	 K	 b	 l	 n.a.	 8.219268e-01
5	 3	 306	 unflanked	 bex	 2	 0.500000	 0.000000	 unflanked_bex_freq_2_amplitude_0.5_rep_0_l_N.png	 N	 l	 b	 n.a.	 3.150504e-01
5	 3	 307	 unflanked	 bex	 6	 1.000000	 0.000000	 unflanked_bex_freq_6_amplitude_1_rep_7_t_H.png	 H	 t	 r	 n.a.	 5.593819e-01
5	 3	 308	 unflanked	 bex	 32	 2.000000	 0.000000	 unflanked_bex_freq_32_amplitude_2_rep_7_b_H.png	 H	 b	 r	 n.a.	 7.173812e-01
5	 3	 309	 unflanked	 bex	 6	 2.500000	 0.000000	 unflanked_bex_freq_6_amplitude_2.5_rep_2_b_K.png	 K	 b	 b	 n.a.	 4.929515e-01
5	 3	 310	 unflanked	 bex	 8	 1.500000	 0.000000	 unflanked_bex_freq_8_amplitude_1.5_rep_6_r_D.png	 D	 r	 t	 n.a.	 9.335430e-01
5	 3	 311	 unflanked	 bex	 6	 2.000000	 0.000000	 unflanked_bex_freq_6_amplitude_2_rep_7_t_N.png	 N	 t	 t	 n.a.	 5.103805e-01
5	 3	 312	 unflanked	 bex	 2	 5.000000	 0.000000	 unflanked_bex_freq_2_amplitude_5_rep_1_r_K.png	 K	 r	 r	 n.a.	 3.041169e-01
5	 3	 313	 unflanked	 bex	 16	 5.000000	 0.000000	 unflanked_bex_freq_16_amplitude_5_rep_5_r_N.png	 N	 r	 r	 n.a.	 2.552953e-01
5	 3	 314	 unflanked	 bex	 16	 2.500000	 0.000000	 unflanked_bex_freq_16_amplitude_2.5_rep_9_l_D.png	 D	 l	 l	 n.a.	 2.833593e-01
5	 3	 315	 unflanked	 bex	 4	 2.000000	 0.000000	 unflanked_bex_freq_4_amplitude_2_rep_3_r_H.png	 H	 r	 r	 n.a.	 3.374470e-01
5	 3	 316	 unflanked	 bex	 4	 0.500000	 0.000000	 unflanked_bex_freq_4_amplitude_0.5_rep_8_r_H.png	 H	 r	 l	 n.a.	 8.753794e-01
5	 3	 317	 unflanked	 bex	 32	 5.000000	 0.000000	 unflanked_bex_freq_32_amplitude_5_rep_7_r_D.png	 D	 r	 r	 n.a.	 3.212673e-01
5	 3	 318	 unflanked	 bex	 2	 3.000000	 0.000000	 unflanked_bex_freq_2_amplitude_3_rep_0_t_H.png	 H	 t	 l	 n.a.	 6.614021e-01
5	 3	 319	 unflanked	 bex	 6	 0.500000	 0.000000	 unflanked_bex_freq_6_amplitude_0.5_rep_4_t_K.png	 K	 t	 r	 n.a.	 3.350768e-01
5	 3	 320	 unflanked	 bex	 32	 2.000000	 0.000000	 unflanked_bex_freq_32_amplitude_2_rep_2_t_H.png	 H	 t	 r	 n.a.	 3.879201e-01
5	 3	 321	 unflanked	 bex	 4	 0.500000	 0.000000	 unflanked_bex_freq_4_amplitude_0.5_rep_4_l_K.png	 K	 l	 r	 n.a.	 5.145055e-01
5	 3	 322	 unflanked	 bex	 8	 2.000000	 0.000000	 unflanked_bex_freq_8_amplitude_2_rep_7_r_N.png	 N	 r	 r	 n.a.	 3.795862e-01
5	 3	 323	 unflanked	 bex	 2	 1.000000	 0.000000	 unflanked_bex_freq_2_amplitude_1_rep_3_l_K.png	 K	 l	 l	 n.a.	 8.835021e-01
5	 3	 324	 unflanked	 bex	 2	 2.500000	 0.000000	 unflanked_bex_freq_2_amplitude_2.5_rep_4_l_D.png	 D	 l	 l	 n.a.	 7.010469e-01
5	 3	 325	 unflanked	 bex	 8	 5.000000	 0.000000	 unflanked_bex_freq_8_amplitude_5_rep_9_b_H.png	 H	 b	 b	 n.a.	 5.490816e-01
5	 3	 326	 unflanked	 bex	 16	 2.000000	 0.000000	 unflanked_bex_freq_16_amplitude_2_rep_1_b_K.png	 K	 b	 r	 n.a.	 5.765174e-01
5	 3	 327	 unflanked	 bex	 4	 1.000000	 0.000000	 unflanked_bex_freq_4_amplitude_1_rep_9_t_K.png	 K	 t	 r	 n.a.	 6.370021e-01
5	 3	 328	 unflanked	 bex	 4	 1.500000	 0.000000	 unflanked_bex_freq_4_amplitude_1.5_rep_6_t_N.png	 N	 t	 t	 n.a.	 5.573347e-01
5	 3	 329	 unflanked	 bex	 8	 1.000000	 0.000000	 unflanked_bex_freq_8_amplitude_1_rep_0_b_N.png	 N	 b	 b	 n.a.	 7.446385e-01
5	 3	 330	 unflanked	 bex	 8	 0.500000	 0.000000	 unflanked_bex_freq_8_amplitude_0.5_rep_3_t_N.png	 N	 t	 r	 n.a.	 5.082227e-01
5	 3	 331	 unflanked	 bex	 2	 5.000000	 0.000000	 unflanked_bex_freq_2_amplitude_5_rep_9_r_N.png	 N	 r	 r	 n.a.	 3.224557e-01
5	 3	 332	 unflanked	 bex	 16	 0.500000	 0.000000	 unflanked_bex_freq_16_amplitude_0.5_rep_4_l_K.png	 K	 l	 l	 n.a.	 6.590584e-01
5	 3	 333	 unflanked	 bex	 16	 3.000000	 0.000000	 unflanked_bex_freq_16_amplitude_3_rep_1_r_K.png	 K	 r	 r	 n.a.	 2.883907e-01
5	 3	 334	 unflanked	 bex	 16	 1.500000	 0.000000	 unflanked_bex_freq_16_amplitude_1.5_rep_8_r_D.png	 D	 r	 r	 n.a.	 3.742933e-01
5	 3	 335	 unflanked	 bex	 4	 2.000000	 0.000000	 unflanked_bex_freq_4_amplitude_2_rep_7_l_N.png	 N	 l	 l	 n.a.	 4.237341e-01
5	 3	 336	 unflanked	 bex	 6	 3.000000	 0.000000	 unflanked_bex_freq_6_amplitude_3_rep_1_t_H.png	 H	 t	 t	 n.a.	 4.864764e-01
5	 3	 337	 unflanked	 bex	 16	 1.000000	 0.000000	 unflanked_bex_freq_16_amplitude_1_rep_4_t_K.png	 K	 t	 l	 n.a.	 3.585612e-01
5	 3	 338	 unflanked	 bex	 16	 1.500000	 0.000000	 unflanked_bex_freq_16_amplitude_1.5_rep_7_r_K.png	 K	 r	 r	 n.a.	 2.481501e-01
5	 3	 339	 unflanked	 bex	 4	 1.500000	 0.000000	 unflanked_bex_freq_4_amplitude_1.5_rep_1_b_D.png	 D	 b	 r	 n.a.	 9.276163e-01
5	 3	 340	 unflanked	 bex	 2	 2.500000	 0.000000	 unflanked_bex_freq_2_amplitude_2.5_rep_0_r_H.png	 H	 r	 r	 n.a.	 2.719450e-01
5	 3	 341	 unflanked	 bex	 2	 5.000000	 0.000000	 unflanked_bex_freq_2_amplitude_5_rep_8_t_D.png	 D	 t	 t	 n.a.	 7.573316e-01
5	 3	 342	 unflanked	 bex	 2	 1.000000	 0.000000	 unflanked_bex_freq_2_amplitude_1_rep_0_r_D.png	 D	 r	 b	 n.a.	 7.489880e-01
5	 3	 343	 unflanked	 bex	 6	 1.500000	 0.000000	 unflanked_bex_freq_6_amplitude_1.5_rep_8_l_H.png	 H	 l	 t	 n.a.	 6.978699e-01
5	 3	 344	 unflanked	 bex	 8	 2.000000	 0.000000	 unflanked_bex_freq_8_amplitude_2_rep_6_r_K.png	 K	 r	 r	 n.a.	 3.142347e-01
5	 3	 345	 unflanked	 bex	 4	 2.500000	 0.000000	 unflanked_bex_freq_4_amplitude_2.5_rep_0_b_K.png	 K	 b	 t	 n.a.	 5.976027e-01
5	 3	 346	 unflanked	 bex	 16	 1.500000	 0.000000	 unflanked_bex_freq_16_amplitude_1.5_rep_6_t_N.png	 N	 t	 r	 n.a.	 4.229677e-01
5	 3	 347	 unflanked	 bex	 32	 3.000000	 0.000000	 unflanked_bex_freq_32_amplitude_3_rep_7_b_N.png	 N	 b	 t	 n.a.	 6.191147e-01
5	 3	 348	 unflanked	 bex	 4	 1.500000	 0.000000	 unflanked_bex_freq_4_amplitude_1.5_rep_8_t_K.png	 K	 t	 t	 n.a.	 1.033763e+00
5	 3	 349	 unflanked	 bex	 8	 1.500000	 0.000000	 unflanked_bex_freq_8_amplitude_1.5_rep_1_b_K.png	 K	 b	 b	 n.a.	 4.757592e-01
5	 3	 350	 unflanked	 bex	 4	 0.500000	 0.000000	 unflanked_bex_freq_4_amplitude_0.5_rep_5_r_K.png	 K	 r	 r	 n.a.	 5.814605e-01
5	 3	 351	 unflanked	 bex	 4	 2.000000	 0.000000	 unflanked_bex_freq_4_amplitude_2_rep_4_l_K.png	 K	 l	 r	 n.a.	 2.575115e-01
5	 3	 352	 unflanked	 bex	 8	 0.500000	 0.000000	 unflanked_bex_freq_8_amplitude_0.5_rep_2_b_K.png	 K	 b	 b	 n.a.	 5.980402e-01
5	 3	 353	 unflanked	 bex	 4	 2.500000	 0.000000	 unflanked_bex_freq_4_amplitude_2.5_rep_7_t_K.png	 K	 t	 t	 n.a.	 4.718991e-01
5	 3	 354	 unflanked	 bex	 6	 2.000000	 0.000000	 unflanked_bex_freq_6_amplitude_2_rep_8_b_N.png	 N	 b	 b	 n.a.	 4.820692e-01
5	 3	 355	 unflanked	 bex	 2	 5.000000	 0.000000	 unflanked_bex_freq_2_amplitude_5_rep_6_b_D.png	 D	 b	 b	 n.a.	 3.336934e-01
5	 3	 356	 unflanked	 bex	 16	 0.500000	 0.000000	 unflanked_bex_freq_16_amplitude_0.5_rep_8_l_D.png	 D	 l	 b	 n.a.	 3.365111e-01
5	 3	 357	 unflanked	 bex	 32	 1.500000	 0.000000	 unflanked_bex_freq_32_amplitude_1.5_rep_7_t_H.png	 H	 t	 l	 n.a.	 4.292040e-01
5	 3	 358	 unflanked	 bex	 8	 5.000000	 0.000000	 unflanked_bex_freq_8_amplitude_5_rep_5_r_D.png	 D	 r	 r	 n.a.	 2.651917e-01
5	 3	 359	 unflanked	 bex	 16	 2.500000	 0.000000	 unflanked_bex_freq_16_amplitude_2.5_rep_7_b_K.png	 K	 b	 b	 n.a.	 7.131499e-01
5	 3	 360	 unflanked	 bex	 16	 2.000000	 0.000000	 unflanked_bex_freq_16_amplitude_2_rep_0_l_K.png	 K	 l	 l	 n.a.	 3.373230e-01
5	 3	 361	 unflanked	 bex	 6	 2.500000	 0.000000	 unflanked_bex_freq_6_amplitude_2.5_rep_9_r_H.png	 H	 r	 r	 n.a.	 3.247341e-01
5	 3	 362	 unflanked	 bex	 6	 0.500000	 0.000000	 unflanked_bex_freq_6_amplitude_0.5_rep_8_r_K.png	 K	 r	 t	 n.a.	 6.718078e-01
5	 3	 363	 unflanked	 bex	 8	 5.000000	 0.000000	 unflanked_bex_freq_8_amplitude_5_rep_6_t_N.png	 N	 t	 t	 n.a.	 4.047634e-01
5	 3	 364	 unflanked	 bex	 32	 2.500000	 0.000000	 unflanked_bex_freq_32_amplitude_2.5_rep_9_l_K.png	 K	 l	 l	 n.a.	 2.968507e-01
5	 3	 365	 unflanked	 bex	 6	 2.000000	 0.000000	 unflanked_bex_freq_6_amplitude_2_rep_0_r_H.png	 H	 r	 r	 n.a.	 2.429009e-01
5	 3	 366	 unflanked	 bex	 16	 5.000000	 0.000000	 unflanked_bex_freq_16_amplitude_5_rep_1_l_H.png	 H	 l	 l	 n.a.	 2.015512e-01
5	 3	 367	 unflanked	 bex	 2	 1.000000	 0.000000	 unflanked_bex_freq_2_amplitude_1_rep_9_t_N.png	 N	 t	 r	 n.a.	 4.168395e-01
5	 3	 368	 unflanked	 bex	 4	 1.000000	 0.000000	 unflanked_bex_freq_4_amplitude_1_rep_0_b_H.png	 H	 b	 l	 n.a.	 3.479063e-01
5	 3	 369	 unflanked	 bex	 4	 1.500000	 0.000000	 unflanked_bex_freq_4_amplitude_1.5_rep_4_l_H.png	 H	 l	 l	 n.a.	 5.970795e-01
5	 3	 370	 unflanked	 bex	 4	 5.000000	 0.000000	 unflanked_bex_freq_4_amplitude_5_rep_8_b_D.png	 D	 b	 b	 n.a.	 4.884721e-01
5	 3	 371	 unflanked	 bex	 6	 5.000000	 0.000000	 unflanked_bex_freq_6_amplitude_5_rep_2_t_K.png	 K	 t	 t	 n.a.	 4.661518e-01
5	 3	 372	 unflanked	 bex	 32	 1.000000	 0.000000	 unflanked_bex_freq_32_amplitude_1_rep_3_l_H.png	 H	 l	 b	 n.a.	 8.064114e-01
5	 3	 373	 unflanked	 bex	 32	 5.000000	 0.000000	 unflanked_bex_freq_32_amplitude_5_rep_8_l_N.png	 N	 l	 l	 n.a.	 2.787974e-01
5	 3	 374	 unflanked	 bex	 16	 3.000000	 0.000000	 unflanked_bex_freq_16_amplitude_3_rep_8_b_N.png	 N	 b	 l	 n.a.	 5.866404e-01
5	 3	 375	 unflanked	 bex	 32	 3.000000	 0.000000	 unflanked_bex_freq_32_amplitude_3_rep_2_l_N.png	 N	 l	 l	 n.a.	 2.552255e-01
5	 3	 376	 unflanked	 bex	 2	 1.500000	 0.000000	 unflanked_bex_freq_2_amplitude_1.5_rep_6_t_H.png	 H	 t	 t	 n.a.	 6.660290e-01
5	 3	 377	 unflanked	 bex	 32	 2.500000	 0.000000	 unflanked_bex_freq_32_amplitude_2.5_rep_8_b_N.png	 N	 b	 l	 n.a.	 7.492458e-01
5	 3	 378	 unflanked	 bex	 8	 2.000000	 0.000000	 unflanked_bex_freq_8_amplitude_2_rep_9_r_N.png	 N	 r	 r	 n.a.	 2.156090e-01
5	 3	 379	 unflanked	 bex	 6	 1.500000	 0.000000	 unflanked_bex_freq_6_amplitude_1.5_rep_2_b_D.png	 D	 b	 b	 n.a.	 5.530637e-01
5	 3	 380	 unflanked	 bex	 2	 1.500000	 0.000000	 unflanked_bex_freq_2_amplitude_1.5_rep_2_r_K.png	 K	 r	 r	 n.a.	 3.066540e-01
5	 3	 381	 unflanked	 bex	 6	 2.500000	 0.000000	 unflanked_bex_freq_6_amplitude_2.5_rep_0_t_K.png	 K	 t	 t	 n.a.	 5.383575e-01
5	 3	 382	 unflanked	 bex	 4	 5.000000	 0.000000	 unflanked_bex_freq_4_amplitude_5_rep_1_l_N.png	 N	 l	 l	 n.a.	 2.754676e-01
5	 3	 383	 unflanked	 bex	 2	 2.500000	 0.000000	 unflanked_bex_freq_2_amplitude_2.5_rep_6_l_H.png	 H	 l	 l	 n.a.	 3.338226e-01
5	 3	 384	 unflanked	 bex	 32	 2.000000	 0.000000	 unflanked_bex_freq_32_amplitude_2_rep_4_t_H.png	 H	 t	 t	 n.a.	 4.855414e-01
5	 3	 385	 unflanked	 bex	 16	 0.500000	 0.000000	 unflanked_bex_freq_16_amplitude_0.5_rep_1_r_H.png	 H	 r	 l	 n.a.	 2.619752e-01
5	 3	 386	 unflanked	 bex	 16	 2.500000	 0.000000	 unflanked_bex_freq_16_amplitude_2.5_rep_8_t_K.png	 K	 t	 r	 n.a.	 6.383848e-01
5	 3	 387	 unflanked	 bex	 4	 2.000000	 0.000000	 unflanked_bex_freq_4_amplitude_2_rep_5_t_H.png	 H	 t	 t	 n.a.	 5.301654e-01
5	 3	 388	 unflanked	 bex	 16	 1.000000	 0.000000	 unflanked_bex_freq_16_amplitude_1_rep_1_l_K.png	 K	 l	 l	 n.a.	 4.352131e-01
5	 3	 389	 unflanked	 bex	 2	 3.000000	 0.000000	 unflanked_bex_freq_2_amplitude_3_rep_9_l_H.png	 H	 l	 l	 n.a.	 3.489628e-01
5	 3	 390	 unflanked	 bex	 4	 3.000000	 0.000000	 unflanked_bex_freq_4_amplitude_3_rep_1_r_K.png	 K	 r	 r	 n.a.	 3.206994e-01
5	 3	 391	 unflanked	 bex	 8	 1.500000	 0.000000	 unflanked_bex_freq_8_amplitude_1.5_rep_2_l_H.png	 H	 l	 l	 n.a.	 5.801930e-01
5	 3	 392	 unflanked	 bex	 8	 2.000000	 0.000000	 unflanked_bex_freq_8_amplitude_2_rep_0_r_N.png	 N	 r	 r	 n.a.	 3.670649e-01
5	 3	 393	 unflanked	 bex	 4	 1.500000	 0.000000	 unflanked_bex_freq_4_amplitude_1.5_rep_3_b_K.png	 K	 b	 r	 n.a.	 5.634157e-01
5	 3	 394	 unflanked	 bex	 2	 3.000000	 0.000000	 unflanked_bex_freq_2_amplitude_3_rep_2_r_K.png	 K	 r	 r	 n.a.	 2.793527e-01
5	 3	 395	 unflanked	 bex	 32	 1.000000	 0.000000	 unflanked_bex_freq_32_amplitude_1_rep_6_b_K.png	 K	 b	 r	 n.a.	 1.038122e+00
5	 3	 396	 unflanked	 bex	 16	 2.500000	 0.000000	 unflanked_bex_freq_16_amplitude_2.5_rep_1_t_N.png	 N	 t	 t	 n.a.	 4.722579e-01
5	 3	 397	 unflanked	 bex	 4	 2.500000	 0.000000	 unflanked_bex_freq_4_amplitude_2.5_rep_1_r_H.png	 H	 r	 r	 n.a.	 3.851831e-01
5	 3	 398	 unflanked	 bex	 6	 1.000000	 0.000000	 unflanked_bex_freq_6_amplitude_1_rep_3_b_K.png	 K	 b	 r	 n.a.	 8.243204e-01
5	 3	 399	 unflanked	 bex	 32	 2.000000	 0.000000	 unflanked_bex_freq_32_amplitude_2_rep_0_r_N.png	 N	 r	 l	 n.a.	 3.780767e-01
5	 3	 400	 unflanked	 bex	 16	 0.500000	 0.000000	 unflanked_bex_freq_16_amplitude_0.5_rep_0_r_N.png	 N	 r	 t	 n.a.	 5.951168e-01
5	 3	 401	 unflanked	 bex	 6	 3.000000	 0.000000	 unflanked_bex_freq_6_amplitude_3_rep_3_t_D.png	 D	 t	 t	 n.a.	 4.984101e-01
5	 3	 402	 unflanked	 bex	 8	 0.500000	 0.000000	 unflanked_bex_freq_8_amplitude_0.5_rep_7_l_K.png	 K	 l	 l	 n.a.	 5.140909e-01
5	 3	 403	 unflanked	 bex	 6	 5.000000	 0.000000	 unflanked_bex_freq_6_amplitude_5_rep_5_l_N.png	 N	 l	 l	 n.a.	 2.228786e-01
5	 3	 404	 unflanked	 bex	 16	 5.000000	 0.000000	 unflanked_bex_freq_16_amplitude_5_rep_4_t_K.png	 K	 t	 t	 n.a.	 4.190124e-01
5	 3	 405	 unflanked	 bex	 32	 1.500000	 0.000000	 unflanked_bex_freq_32_amplitude_1.5_rep_9_b_H.png	 H	 b	 b	 n.a.	 4.559144e-01
5	 3	 406	 unflanked	 bex	 32	 0.500000	 0.000000	 unflanked_bex_freq_32_amplitude_0.5_rep_8_l_D.png	 D	 l	 l	 n.a.	 3.718822e-01
5	 3	 407	 unflanked	 bex	 32	 3.000000	 0.000000	 unflanked_bex_freq_32_amplitude_3_rep_4_t_D.png	 D	 t	 t	 n.a.	 5.816678e-01
5	 3	 408	 unflanked	 bex	 4	 1.000000	 0.000000	 unflanked_bex_freq_4_amplitude_1_rep_2_r_H.png	 H	 r	 t	 n.a.	 4.692713e-01
5	 3	 409	 unflanked	 bex	 4	 2.000000	 0.000000	 unflanked_bex_freq_4_amplitude_2_rep_0_r_K.png	 K	 r	 r	 n.a.	 3.283390e-01
5	 3	 410	 unflanked	 bex	 2	 0.500000	 0.000000	 unflanked_bex_freq_2_amplitude_0.5_rep_1_r_H.png	 H	 r	 b	 n.a.	 3.402710e-01
5	 3	 411	 unflanked	 bex	 32	 0.500000	 0.000000	 unflanked_bex_freq_32_amplitude_0.5_rep_2_r_D.png	 D	 r	 r	 n.a.	 3.940471e-01
5	 3	 412	 unflanked	 bex	 16	 5.000000	 0.000000	 unflanked_bex_freq_16_amplitude_5_rep_6_l_N.png	 N	 l	 l	 n.a.	 2.684349e-01
5	 3	 413	 unflanked	 bex	 6	 1.500000	 0.000000	 unflanked_bex_freq_6_amplitude_1.5_rep_9_r_K.png	 K	 r	 r	 n.a.	 2.301450e-01
5	 3	 414	 unflanked	 bex	 6	 2.000000	 0.000000	 unflanked_bex_freq_6_amplitude_2_rep_5_l_N.png	 N	 l	 l	 n.a.	 2.689813e-01
5	 3	 415	 unflanked	 bex	 32	 5.000000	 0.000000	 unflanked_bex_freq_32_amplitude_5_rep_5_b_K.png	 K	 b	 b	 n.a.	 4.791891e-01
5	 3	 416	 unflanked	 bex	 4	 0.500000	 0.000000	 unflanked_bex_freq_4_amplitude_0.5_rep_3_b_H.png	 H	 b	 r	 n.a.	 5.680823e-01
5	 3	 417	 unflanked	 bex	 8	 2.500000	 0.000000	 unflanked_bex_freq_8_amplitude_2.5_rep_2_b_D.png	 D	 b	 b	 n.a.	 4.365508e-01
5	 3	 418	 unflanked	 bex	 16	 2.000000	 0.000000	 unflanked_bex_freq_16_amplitude_2_rep_3_l_K.png	 K	 l	 l	 n.a.	 5.460200e-01
5	 3	 419	 unflanked	 bex	 32	 0.500000	 0.000000	 unflanked_bex_freq_32_amplitude_0.5_rep_5_l_D.png	 D	 l	 r	 n.a.	 4.150158e-01
5	 3	 420	 unflanked	 bex	 4	 2.500000	 0.000000	 unflanked_bex_freq_4_amplitude_2.5_rep_8_b_K.png	 K	 b	 b	 n.a.	 5.393998e-01
