subject	 session	 trial	 flanked	 distortion	 freq	 amplitude	 spacing	 im_name	 targ_letter	 targ_pos	 response	 eyemovement	 RT
5	 5	 1	 unflanked	 rf	 3	 0.320000	 0.000000	 unflanked_rf_freq_3_amplitude_0.32_rep_7_t_H.png	 H	 t	 t	 n.a.	 3.764431e-01
5	 5	 2	 unflanked	 rf	 3	 0.010000	 0.000000	 unflanked_rf_freq_3_amplitude_0.01_rep_2_r_H.png	 H	 r	 r	 n.a.	 6.305788e-01
5	 5	 3	 unflanked	 rf	 12	 0.216700	 0.000000	 unflanked_rf_freq_12_amplitude_0.2167_rep_1_l_D.png	 D	 l	 l	 n.a.	 2.209547e-01
5	 5	 4	 unflanked	 rf	 3	 0.010000	 0.000000	 unflanked_rf_freq_3_amplitude_0.01_rep_0_t_D.png	 D	 t	 t	 n.a.	 5.469164e-01
5	 5	 5	 unflanked	 rf	 2	 0.061700	 0.000000	 unflanked_rf_freq_2_amplitude_0.0617_rep_8_t_K.png	 K	 t	 b	 n.a.	 5.141431e-01
5	 5	 6	 unflanked	 rf	 3	 0.113300	 0.000000	 unflanked_rf_freq_3_amplitude_0.1133_rep_4_l_D.png	 D	 l	 l	 n.a.	 2.970675e-01
5	 5	 7	 unflanked	 rf	 12	 0.216700	 0.000000	 unflanked_rf_freq_12_amplitude_0.2167_rep_6_b_D.png	 D	 b	 b	 n.a.	 3.502040e-01
5	 5	 8	 unflanked	 rf	 12	 0.165000	 0.000000	 unflanked_rf_freq_12_amplitude_0.165_rep_8_t_N.png	 N	 t	 t	 n.a.	 3.995988e-01
5	 5	 9	 unflanked	 rf	 4	 0.113300	 0.000000	 unflanked_rf_freq_4_amplitude_0.1133_rep_0_t_K.png	 K	 t	 t	 n.a.	 5.735283e-01
5	 5	 10	 unflanked	 rf	 4	 0.268300	 0.000000	 unflanked_rf_freq_4_amplitude_0.2683_rep_8_t_H.png	 H	 t	 t	 n.a.	 3.924402e-01
5	 5	 11	 unflanked	 rf	 8	 0.320000	 0.000000	 unflanked_rf_freq_8_amplitude_0.32_rep_7_r_H.png	 H	 r	 r	 n.a.	 2.806437e-01
5	 5	 12	 unflanked	 rf	 2	 0.010000	 0.000000	 unflanked_rf_freq_2_amplitude_0.01_rep_6_t_H.png	 H	 t	 t	 n.a.	 4.893311e-01
5	 5	 13	 unflanked	 rf	 4	 0.113300	 0.000000	 unflanked_rf_freq_4_amplitude_0.1133_rep_6_t_N.png	 N	 t	 t	 n.a.	 5.816260e-01
5	 5	 14	 unflanked	 rf	 3	 0.061700	 0.000000	 unflanked_rf_freq_3_amplitude_0.0617_rep_9_l_H.png	 H	 l	 l	 n.a.	 4.568254e-01
5	 5	 15	 unflanked	 rf	 12	 0.216700	 0.000000	 unflanked_rf_freq_12_amplitude_0.2167_rep_2_t_N.png	 N	 t	 t	 n.a.	 3.820247e-01
5	 5	 16	 unflanked	 rf	 5	 0.320000	 0.000000	 unflanked_rf_freq_5_amplitude_0.32_rep_8_r_N.png	 N	 r	 r	 n.a.	 2.328071e-01
5	 5	 17	 unflanked	 rf	 3	 0.216700	 0.000000	 unflanked_rf_freq_3_amplitude_0.2167_rep_5_b_D.png	 D	 b	 b	 n.a.	 4.339003e-01
5	 5	 18	 unflanked	 rf	 8	 0.165000	 0.000000	 unflanked_rf_freq_8_amplitude_0.165_rep_4_r_H.png	 H	 r	 r	 n.a.	 2.505916e-01
5	 5	 19	 unflanked	 rf	 3	 0.268300	 0.000000	 unflanked_rf_freq_3_amplitude_0.2683_rep_4_b_N.png	 N	 b	 b	 n.a.	 4.266690e-01
5	 5	 20	 unflanked	 rf	 12	 0.268300	 0.000000	 unflanked_rf_freq_12_amplitude_0.2683_rep_2_l_H.png	 H	 l	 l	 n.a.	 2.538021e-01
5	 5	 21	 unflanked	 rf	 12	 0.268300	 0.000000	 unflanked_rf_freq_12_amplitude_0.2683_rep_3_l_K.png	 K	 l	 l	 n.a.	 2.427790e-01
5	 5	 22	 unflanked	 rf	 8	 0.268300	 0.000000	 unflanked_rf_freq_8_amplitude_0.2683_rep_8_l_K.png	 K	 l	 l	 n.a.	 2.415364e-01
5	 5	 23	 unflanked	 rf	 5	 0.320000	 0.000000	 unflanked_rf_freq_5_amplitude_0.32_rep_9_t_D.png	 D	 t	 t	 n.a.	 4.539682e-01
5	 5	 24	 unflanked	 rf	 2	 0.010000	 0.000000	 unflanked_rf_freq_2_amplitude_0.01_rep_3_t_N.png	 N	 t	 b	 n.a.	 5.923488e-01
5	 5	 25	 unflanked	 rf	 2	 0.010000	 0.000000	 unflanked_rf_freq_2_amplitude_0.01_rep_4_t_D.png	 D	 t	 l	 n.a.	 5.499453e-01
5	 5	 26	 unflanked	 rf	 4	 0.165000	 0.000000	 unflanked_rf_freq_4_amplitude_0.165_rep_0_r_K.png	 K	 r	 r	 n.a.	 3.187153e-01
5	 5	 27	 unflanked	 rf	 4	 0.216700	 0.000000	 unflanked_rf_freq_4_amplitude_0.2167_rep_0_b_N.png	 N	 b	 b	 n.a.	 4.621960e-01
5	 5	 28	 unflanked	 rf	 5	 0.113300	 0.000000	 unflanked_rf_freq_5_amplitude_0.1133_rep_3_t_K.png	 K	 t	 t	 n.a.	 5.144202e-01
5	 5	 29	 unflanked	 rf	 5	 0.216700	 0.000000	 unflanked_rf_freq_5_amplitude_0.2167_rep_9_t_K.png	 K	 t	 t	 n.a.	 3.711149e-01
5	 5	 30	 unflanked	 rf	 4	 0.320000	 0.000000	 unflanked_rf_freq_4_amplitude_0.32_rep_4_l_H.png	 H	 l	 l	 n.a.	 2.924840e-01
5	 5	 31	 unflanked	 rf	 3	 0.061700	 0.000000	 unflanked_rf_freq_3_amplitude_0.0617_rep_6_t_D.png	 D	 t	 t	 n.a.	 5.503581e-01
5	 5	 32	 unflanked	 rf	 12	 0.165000	 0.000000	 unflanked_rf_freq_12_amplitude_0.165_rep_4_b_H.png	 H	 b	 b	 n.a.	 4.149351e-01
5	 5	 33	 unflanked	 rf	 8	 0.113300	 0.000000	 unflanked_rf_freq_8_amplitude_0.1133_rep_8_t_H.png	 H	 t	 t	 n.a.	 4.369412e-01
5	 5	 34	 unflanked	 rf	 2	 0.320000	 0.000000	 unflanked_rf_freq_2_amplitude_0.32_rep_8_t_K.png	 K	 t	 t	 n.a.	 5.423308e-01
5	 5	 35	 unflanked	 rf	 8	 0.061700	 0.000000	 unflanked_rf_freq_8_amplitude_0.0617_rep_1_l_H.png	 H	 l	 r	 n.a.	 8.526831e-01
5	 5	 36	 unflanked	 rf	 2	 0.113300	 0.000000	 unflanked_rf_freq_2_amplitude_0.1133_rep_9_t_D.png	 D	 t	 t	 n.a.	 4.874691e-01
5	 5	 37	 unflanked	 rf	 2	 0.268300	 0.000000	 unflanked_rf_freq_2_amplitude_0.2683_rep_8_r_H.png	 H	 r	 r	 n.a.	 3.459006e-01
5	 5	 38	 unflanked	 rf	 5	 0.216700	 0.000000	 unflanked_rf_freq_5_amplitude_0.2167_rep_5_t_N.png	 N	 t	 t	 n.a.	 4.161540e-01
5	 5	 39	 unflanked	 rf	 5	 0.113300	 0.000000	 unflanked_rf_freq_5_amplitude_0.1133_rep_0_t_H.png	 H	 t	 t	 n.a.	 6.504238e-01
5	 5	 40	 unflanked	 rf	 5	 0.010000	 0.000000	 unflanked_rf_freq_5_amplitude_0.01_rep_9_b_K.png	 K	 b	 b	 n.a.	 5.671574e-01
5	 5	 41	 unflanked	 rf	 12	 0.268300	 0.000000	 unflanked_rf_freq_12_amplitude_0.2683_rep_4_r_D.png	 D	 r	 r	 n.a.	 2.822062e-01
5	 5	 42	 unflanked	 rf	 4	 0.268300	 0.000000	 unflanked_rf_freq_4_amplitude_0.2683_rep_6_b_H.png	 H	 b	 b	 n.a.	 4.063198e-01
5	 5	 43	 unflanked	 rf	 4	 0.061700	 0.000000	 unflanked_rf_freq_4_amplitude_0.0617_rep_3_b_D.png	 D	 b	 r	 n.a.	 5.963443e-01
5	 5	 44	 unflanked	 rf	 12	 0.165000	 0.000000	 unflanked_rf_freq_12_amplitude_0.165_rep_6_b_K.png	 K	 b	 b	 n.a.	 3.713891e-01
5	 5	 45	 unflanked	 rf	 2	 0.061700	 0.000000	 unflanked_rf_freq_2_amplitude_0.0617_rep_2_r_D.png	 D	 r	 t	 n.a.	 6.855479e-01
5	 5	 46	 unflanked	 rf	 2	 0.113300	 0.000000	 unflanked_rf_freq_2_amplitude_0.1133_rep_5_l_N.png	 N	 l	 t	 n.a.	 4.142954e-01
5	 5	 47	 unflanked	 rf	 2	 0.061700	 0.000000	 unflanked_rf_freq_2_amplitude_0.0617_rep_4_r_K.png	 K	 r	 r	 n.a.	 4.197519e-01
5	 5	 48	 unflanked	 rf	 5	 0.165000	 0.000000	 unflanked_rf_freq_5_amplitude_0.165_rep_4_l_N.png	 N	 l	 l	 n.a.	 3.003426e-01
5	 5	 49	 unflanked	 rf	 5	 0.165000	 0.000000	 unflanked_rf_freq_5_amplitude_0.165_rep_3_b_N.png	 N	 b	 r	 n.a.	 7.279867e-01
5	 5	 50	 unflanked	 rf	 2	 0.216700	 0.000000	 unflanked_rf_freq_2_amplitude_0.2167_rep_8_t_D.png	 D	 t	 t	 n.a.	 4.039317e-01
5	 5	 51	 unflanked	 rf	 8	 0.268300	 0.000000	 unflanked_rf_freq_8_amplitude_0.2683_rep_7_r_H.png	 H	 r	 r	 n.a.	 2.646790e-01
5	 5	 52	 unflanked	 rf	 4	 0.165000	 0.000000	 unflanked_rf_freq_4_amplitude_0.165_rep_9_t_N.png	 N	 t	 t	 n.a.	 5.277143e-01
5	 5	 53	 unflanked	 rf	 2	 0.320000	 0.000000	 unflanked_rf_freq_2_amplitude_0.32_rep_3_l_N.png	 N	 l	 l	 n.a.	 2.745020e-01
5	 5	 54	 unflanked	 rf	 2	 0.010000	 0.000000	 unflanked_rf_freq_2_amplitude_0.01_rep_0_r_H.png	 H	 r	 r	 n.a.	 4.489397e-01
5	 5	 55	 unflanked	 rf	 4	 0.061700	 0.000000	 unflanked_rf_freq_4_amplitude_0.0617_rep_0_r_D.png	 D	 r	 b	 n.a.	 7.872298e-01
5	 5	 56	 unflanked	 rf	 12	 0.216700	 0.000000	 unflanked_rf_freq_12_amplitude_0.2167_rep_5_l_K.png	 K	 l	 l	 n.a.	 2.441104e-01
5	 5	 57	 unflanked	 rf	 4	 0.268300	 0.000000	 unflanked_rf_freq_4_amplitude_0.2683_rep_4_l_N.png	 N	 l	 l	 n.a.	 2.844696e-01
5	 5	 58	 unflanked	 rf	 5	 0.320000	 0.000000	 unflanked_rf_freq_5_amplitude_0.32_rep_0_b_N.png	 N	 b	 t	 n.a.	 5.381408e-01
5	 5	 59	 unflanked	 rf	 3	 0.010000	 0.000000	 unflanked_rf_freq_3_amplitude_0.01_rep_7_b_K.png	 K	 b	 b	 n.a.	 7.687027e-01
5	 5	 60	 unflanked	 rf	 2	 0.268300	 0.000000	 unflanked_rf_freq_2_amplitude_0.2683_rep_6_t_D.png	 D	 t	 t	 n.a.	 5.297908e-01
5	 5	 61	 unflanked	 rf	 3	 0.010000	 0.000000	 unflanked_rf_freq_3_amplitude_0.01_rep_4_b_K.png	 K	 b	 t	 n.a.	 4.823061e-01
5	 5	 62	 unflanked	 rf	 8	 0.320000	 0.000000	 unflanked_rf_freq_8_amplitude_0.32_rep_9_r_N.png	 N	 r	 r	 n.a.	 2.238928e-01
5	 5	 63	 unflanked	 rf	 2	 0.061700	 0.000000	 unflanked_rf_freq_2_amplitude_0.0617_rep_6_l_D.png	 D	 l	 b	 n.a.	 6.370869e-01
5	 5	 64	 unflanked	 rf	 5	 0.320000	 0.000000	 unflanked_rf_freq_5_amplitude_0.32_rep_4_r_D.png	 D	 r	 r	 n.a.	 2.378962e-01
5	 5	 65	 unflanked	 rf	 4	 0.061700	 0.000000	 unflanked_rf_freq_4_amplitude_0.0617_rep_4_b_H.png	 H	 b	 r	 n.a.	 4.382495e-01
5	 5	 66	 unflanked	 rf	 4	 0.268300	 0.000000	 unflanked_rf_freq_4_amplitude_0.2683_rep_1_l_N.png	 N	 l	 l	 n.a.	 2.714720e-01
5	 5	 67	 unflanked	 rf	 2	 0.010000	 0.000000	 unflanked_rf_freq_2_amplitude_0.01_rep_5_l_H.png	 H	 l	 b	 n.a.	 5.653895e-01
5	 5	 68	 unflanked	 rf	 3	 0.268300	 0.000000	 unflanked_rf_freq_3_amplitude_0.2683_rep_9_l_H.png	 H	 l	 l	 n.a.	 2.771093e-01
5	 5	 69	 unflanked	 rf	 12	 0.320000	 0.000000	 unflanked_rf_freq_12_amplitude_0.32_rep_9_t_N.png	 N	 t	 t	 n.a.	 5.128829e-01
5	 5	 70	 unflanked	 rf	 12	 0.010000	 0.000000	 unflanked_rf_freq_12_amplitude_0.01_rep_4_t_D.png	 D	 t	 r	 n.a.	 7.952492e-01
5	 5	 71	 unflanked	 rf	 5	 0.320000	 0.000000	 unflanked_rf_freq_5_amplitude_0.32_rep_3_l_N.png	 N	 l	 l	 n.a.	 2.649054e-01
5	 5	 72	 unflanked	 rf	 2	 0.165000	 0.000000	 unflanked_rf_freq_2_amplitude_0.165_rep_2_r_H.png	 H	 r	 r	 n.a.	 2.017899e-01
5	 5	 73	 unflanked	 rf	 5	 0.010000	 0.000000	 unflanked_rf_freq_5_amplitude_0.01_rep_8_r_K.png	 K	 r	 b	 n.a.	 5.341135e-01
5	 5	 74	 unflanked	 rf	 3	 0.061700	 0.000000	 unflanked_rf_freq_3_amplitude_0.0617_rep_8_t_D.png	 D	 t	 t	 n.a.	 4.355135e-01
5	 5	 75	 unflanked	 rf	 3	 0.010000	 0.000000	 unflanked_rf_freq_3_amplitude_0.01_rep_6_r_K.png	 K	 r	 t	 n.a.	 5.080009e-01
5	 5	 76	 unflanked	 rf	 3	 0.320000	 0.000000	 unflanked_rf_freq_3_amplitude_0.32_rep_4_r_N.png	 N	 r	 r	 n.a.	 1.874473e-01
5	 5	 77	 unflanked	 rf	 12	 0.061700	 0.000000	 unflanked_rf_freq_12_amplitude_0.0617_rep_2_b_H.png	 H	 b	 t	 n.a.	 5.620555e-01
5	 5	 78	 unflanked	 rf	 3	 0.216700	 0.000000	 unflanked_rf_freq_3_amplitude_0.2167_rep_8_l_K.png	 K	 l	 l	 n.a.	 3.693959e-01
5	 5	 79	 unflanked	 rf	 12	 0.165000	 0.000000	 unflanked_rf_freq_12_amplitude_0.165_rep_5_t_N.png	 N	 t	 t	 n.a.	 4.256459e-01
5	 5	 80	 unflanked	 rf	 8	 0.165000	 0.000000	 unflanked_rf_freq_8_amplitude_0.165_rep_8_r_D.png	 D	 r	 r	 n.a.	 2.683117e-01
5	 5	 81	 unflanked	 rf	 4	 0.216700	 0.000000	 unflanked_rf_freq_4_amplitude_0.2167_rep_5_l_N.png	 N	 l	 l	 n.a.	 2.966696e-01
5	 5	 82	 unflanked	 rf	 8	 0.061700	 0.000000	 unflanked_rf_freq_8_amplitude_0.0617_rep_8_b_N.png	 N	 b	 r	 n.a.	 5.217046e-01
5	 5	 83	 unflanked	 rf	 3	 0.268300	 0.000000	 unflanked_rf_freq_3_amplitude_0.2683_rep_0_r_D.png	 D	 r	 r	 n.a.	 3.711877e-01
5	 5	 84	 unflanked	 rf	 3	 0.320000	 0.000000	 unflanked_rf_freq_3_amplitude_0.32_rep_6_l_N.png	 N	 l	 l	 n.a.	 2.936207e-01
5	 5	 85	 unflanked	 rf	 3	 0.010000	 0.000000	 unflanked_rf_freq_3_amplitude_0.01_rep_3_t_N.png	 N	 t	 b	 n.a.	 5.234910e-01
5	 5	 86	 unflanked	 rf	 5	 0.268300	 0.000000	 unflanked_rf_freq_5_amplitude_0.2683_rep_3_r_K.png	 K	 r	 r	 n.a.	 2.459415e-01
5	 5	 87	 unflanked	 rf	 4	 0.216700	 0.000000	 unflanked_rf_freq_4_amplitude_0.2167_rep_6_b_D.png	 D	 b	 b	 n.a.	 3.789485e-01
5	 5	 88	 unflanked	 rf	 8	 0.165000	 0.000000	 unflanked_rf_freq_8_amplitude_0.165_rep_1_b_N.png	 N	 b	 b	 n.a.	 2.286670e-01
5	 5	 89	 unflanked	 rf	 12	 0.010000	 0.000000	 unflanked_rf_freq_12_amplitude_0.01_rep_7_l_K.png	 K	 l	 l	 n.a.	 3.861772e-01
5	 5	 90	 unflanked	 rf	 8	 0.113300	 0.000000	 unflanked_rf_freq_8_amplitude_0.1133_rep_0_r_H.png	 H	 r	 r	 n.a.	 3.115773e-01
5	 5	 91	 unflanked	 rf	 4	 0.061700	 0.000000	 unflanked_rf_freq_4_amplitude_0.0617_rep_5_l_N.png	 N	 l	 l	 n.a.	 3.552113e-01
5	 5	 92	 unflanked	 rf	 12	 0.010000	 0.000000	 unflanked_rf_freq_12_amplitude_0.01_rep_6_r_K.png	 K	 r	 r	 n.a.	 2.156009e-01
5	 5	 93	 unflanked	 rf	 5	 0.268300	 0.000000	 unflanked_rf_freq_5_amplitude_0.2683_rep_8_b_N.png	 N	 b	 b	 n.a.	 3.588487e-01
5	 5	 94	 unflanked	 rf	 12	 0.216700	 0.000000	 unflanked_rf_freq_12_amplitude_0.2167_rep_3_r_N.png	 N	 r	 r	 n.a.	 2.609157e-01
5	 5	 95	 unflanked	 rf	 3	 0.113300	 0.000000	 unflanked_rf_freq_3_amplitude_0.1133_rep_9_l_K.png	 K	 l	 l	 n.a.	 4.733077e-01
5	 5	 96	 unflanked	 rf	 12	 0.320000	 0.000000	 unflanked_rf_freq_12_amplitude_0.32_rep_1_r_N.png	 N	 r	 r	 n.a.	 2.064443e-01
5	 5	 97	 unflanked	 rf	 3	 0.010000	 0.000000	 unflanked_rf_freq_3_amplitude_0.01_rep_1_r_N.png	 N	 r	 l	 n.a.	 5.676427e-01
5	 5	 98	 unflanked	 rf	 3	 0.061700	 0.000000	 unflanked_rf_freq_3_amplitude_0.0617_rep_1_t_K.png	 K	 t	 t	 n.a.	 4.028130e-01
5	 5	 99	 unflanked	 rf	 4	 0.320000	 0.000000	 unflanked_rf_freq_4_amplitude_0.32_rep_7_r_H.png	 H	 r	 r	 n.a.	 2.789692e-01
5	 5	 100	 unflanked	 rf	 12	 0.320000	 0.000000	 unflanked_rf_freq_12_amplitude_0.32_rep_2_t_N.png	 N	 t	 t	 n.a.	 4.614110e-01
5	 5	 101	 unflanked	 rf	 3	 0.165000	 0.000000	 unflanked_rf_freq_3_amplitude_0.165_rep_1_b_H.png	 H	 b	 b	 n.a.	 4.276073e-01
5	 5	 102	 unflanked	 rf	 5	 0.061700	 0.000000	 unflanked_rf_freq_5_amplitude_0.0617_rep_5_t_D.png	 D	 t	 t	 n.a.	 5.021196e-01
5	 5	 103	 unflanked	 rf	 8	 0.216700	 0.000000	 unflanked_rf_freq_8_amplitude_0.2167_rep_8_t_D.png	 D	 t	 t	 n.a.	 3.084329e-01
5	 5	 104	 unflanked	 rf	 4	 0.320000	 0.000000	 unflanked_rf_freq_4_amplitude_0.32_rep_1_t_H.png	 H	 t	 t	 n.a.	 3.112721e-01
5	 5	 105	 unflanked	 rf	 5	 0.010000	 0.000000	 unflanked_rf_freq_5_amplitude_0.01_rep_4_r_K.png	 K	 r	 b	 n.a.	 5.587048e-01
5	 5	 106	 unflanked	 rf	 2	 0.216700	 0.000000	 unflanked_rf_freq_2_amplitude_0.2167_rep_4_l_N.png	 N	 l	 l	 n.a.	 3.172662e-01
5	 5	 107	 unflanked	 rf	 12	 0.268300	 0.000000	 unflanked_rf_freq_12_amplitude_0.2683_rep_6_l_K.png	 K	 l	 l	 n.a.	 2.311830e-01
5	 5	 108	 unflanked	 rf	 3	 0.268300	 0.000000	 unflanked_rf_freq_3_amplitude_0.2683_rep_7_r_K.png	 K	 r	 r	 n.a.	 2.402334e-01
5	 5	 109	 unflanked	 rf	 3	 0.268300	 0.000000	 unflanked_rf_freq_3_amplitude_0.2683_rep_8_r_H.png	 H	 r	 r	 n.a.	 2.545884e-01
5	 5	 110	 unflanked	 rf	 2	 0.320000	 0.000000	 unflanked_rf_freq_2_amplitude_0.32_rep_6_l_H.png	 H	 l	 l	 n.a.	 3.081257e-01
5	 5	 111	 unflanked	 rf	 5	 0.061700	 0.000000	 unflanked_rf_freq_5_amplitude_0.0617_rep_0_r_H.png	 H	 r	 r	 n.a.	 2.360371e-01
5	 5	 112	 unflanked	 rf	 5	 0.216700	 0.000000	 unflanked_rf_freq_5_amplitude_0.2167_rep_4_t_D.png	 D	 t	 t	 n.a.	 4.413956e-01
5	 5	 113	 unflanked	 rf	 4	 0.061700	 0.000000	 unflanked_rf_freq_4_amplitude_0.0617_rep_9_b_D.png	 D	 b	 r	 n.a.	 2.649663e-01
5	 5	 114	 unflanked	 rf	 12	 0.010000	 0.000000	 unflanked_rf_freq_12_amplitude_0.01_rep_1_r_D.png	 D	 r	 r	 n.a.	 4.151481e-01
5	 5	 115	 unflanked	 rf	 2	 0.320000	 0.000000	 unflanked_rf_freq_2_amplitude_0.32_rep_0_l_D.png	 D	 l	 l	 n.a.	 2.371995e-01
5	 5	 116	 unflanked	 rf	 2	 0.268300	 0.000000	 unflanked_rf_freq_2_amplitude_0.2683_rep_7_t_N.png	 N	 t	 t	 n.a.	 6.144974e-01
5	 5	 117	 unflanked	 rf	 8	 0.061700	 0.000000	 unflanked_rf_freq_8_amplitude_0.0617_rep_5_t_K.png	 K	 t	 t	 n.a.	 3.902814e-01
5	 5	 118	 unflanked	 rf	 3	 0.061700	 0.000000	 unflanked_rf_freq_3_amplitude_0.0617_rep_5_b_H.png	 H	 b	 r	 n.a.	 3.699940e-01
5	 5	 119	 unflanked	 rf	 3	 0.010000	 0.000000	 unflanked_rf_freq_3_amplitude_0.01_rep_5_t_K.png	 K	 t	 t	 n.a.	 4.237091e-01
5	 5	 120	 unflanked	 rf	 5	 0.165000	 0.000000	 unflanked_rf_freq_5_amplitude_0.165_rep_5_r_N.png	 N	 r	 r	 n.a.	 3.147183e-01
5	 5	 121	 unflanked	 rf	 2	 0.113300	 0.000000	 unflanked_rf_freq_2_amplitude_0.1133_rep_4_t_N.png	 N	 t	 b	 n.a.	 6.182151e-01
5	 5	 122	 unflanked	 rf	 4	 0.268300	 0.000000	 unflanked_rf_freq_4_amplitude_0.2683_rep_0_r_K.png	 K	 r	 r	 n.a.	 2.611576e-01
5	 5	 123	 unflanked	 rf	 3	 0.268300	 0.000000	 unflanked_rf_freq_3_amplitude_0.2683_rep_6_r_H.png	 H	 r	 r	 n.a.	 2.591360e-01
5	 5	 124	 unflanked	 rf	 12	 0.010000	 0.000000	 unflanked_rf_freq_12_amplitude_0.01_rep_5_t_H.png	 H	 t	 l	 n.a.	 5.784346e-01
5	 5	 125	 unflanked	 rf	 5	 0.010000	 0.000000	 unflanked_rf_freq_5_amplitude_0.01_rep_2_b_K.png	 K	 b	 r	 n.a.	 6.255949e-01
5	 5	 126	 unflanked	 rf	 4	 0.113300	 0.000000	 unflanked_rf_freq_4_amplitude_0.1133_rep_2_b_H.png	 H	 b	 b	 n.a.	 3.097985e-01
5	 5	 127	 unflanked	 rf	 4	 0.216700	 0.000000	 unflanked_rf_freq_4_amplitude_0.2167_rep_2_b_D.png	 D	 b	 b	 n.a.	 3.627044e-01
5	 5	 128	 unflanked	 rf	 5	 0.268300	 0.000000	 unflanked_rf_freq_5_amplitude_0.2683_rep_1_l_N.png	 N	 l	 l	 n.a.	 2.181369e-01
5	 5	 129	 unflanked	 rf	 4	 0.010000	 0.000000	 unflanked_rf_freq_4_amplitude_0.01_rep_3_t_D.png	 D	 t	 r	 n.a.	 3.648310e-01
5	 5	 130	 unflanked	 rf	 5	 0.216700	 0.000000	 unflanked_rf_freq_5_amplitude_0.2167_rep_0_r_H.png	 H	 r	 r	 n.a.	 2.307023e-01
5	 5	 131	 unflanked	 rf	 2	 0.320000	 0.000000	 unflanked_rf_freq_2_amplitude_0.32_rep_1_r_N.png	 N	 r	 r	 n.a.	 3.046015e-01
5	 5	 132	 unflanked	 rf	 2	 0.268300	 0.000000	 unflanked_rf_freq_2_amplitude_0.2683_rep_0_r_H.png	 H	 r	 r	 n.a.	 3.064230e-01
5	 5	 133	 unflanked	 rf	 8	 0.268300	 0.000000	 unflanked_rf_freq_8_amplitude_0.2683_rep_9_t_K.png	 K	 t	 t	 n.a.	 5.081019e-01
5	 5	 134	 unflanked	 rf	 8	 0.061700	 0.000000	 unflanked_rf_freq_8_amplitude_0.0617_rep_4_r_N.png	 N	 r	 b	 n.a.	 9.070982e-01
5	 5	 135	 unflanked	 rf	 12	 0.165000	 0.000000	 unflanked_rf_freq_12_amplitude_0.165_rep_3_r_H.png	 H	 r	 r	 n.a.	 2.562600e-01
5	 5	 136	 unflanked	 rf	 5	 0.165000	 0.000000	 unflanked_rf_freq_5_amplitude_0.165_rep_9_t_H.png	 H	 t	 t	 n.a.	 4.835957e-01
5	 5	 137	 unflanked	 rf	 3	 0.320000	 0.000000	 unflanked_rf_freq_3_amplitude_0.32_rep_8_r_K.png	 K	 r	 r	 n.a.	 3.193444e-01
5	 5	 138	 unflanked	 rf	 5	 0.165000	 0.000000	 unflanked_rf_freq_5_amplitude_0.165_rep_0_t_D.png	 D	 t	 r	 n.a.	 5.134279e-01
5	 5	 139	 unflanked	 rf	 3	 0.165000	 0.000000	 unflanked_rf_freq_3_amplitude_0.165_rep_6_b_N.png	 N	 b	 b	 n.a.	 4.484597e-01
5	 5	 140	 unflanked	 rf	 5	 0.268300	 0.000000	 unflanked_rf_freq_5_amplitude_0.2683_rep_9_l_K.png	 K	 l	 l	 n.a.	 2.942109e-01
5	 5	 141	 unflanked	 rf	 5	 0.113300	 0.000000	 unflanked_rf_freq_5_amplitude_0.1133_rep_1_l_K.png	 K	 l	 b	 n.a.	 4.487135e-01
5	 5	 142	 unflanked	 rf	 3	 0.268300	 0.000000	 unflanked_rf_freq_3_amplitude_0.2683_rep_1_b_H.png	 H	 b	 b	 n.a.	 4.324416e-01
5	 5	 143	 unflanked	 rf	 12	 0.010000	 0.000000	 unflanked_rf_freq_12_amplitude_0.01_rep_8_b_D.png	 D	 b	 t	 n.a.	 9.562804e-01
5	 5	 144	 unflanked	 rf	 8	 0.010000	 0.000000	 unflanked_rf_freq_8_amplitude_0.01_rep_8_b_D.png	 D	 b	 t	 n.a.	 5.185167e-01
5	 5	 145	 unflanked	 rf	 3	 0.216700	 0.000000	 unflanked_rf_freq_3_amplitude_0.2167_rep_1_r_H.png	 H	 r	 r	 n.a.	 3.398054e-01
5	 5	 146	 unflanked	 rf	 12	 0.113300	 0.000000	 unflanked_rf_freq_12_amplitude_0.1133_rep_4_b_D.png	 D	 b	 b	 n.a.	 3.838601e-01
5	 5	 147	 unflanked	 rf	 3	 0.216700	 0.000000	 unflanked_rf_freq_3_amplitude_0.2167_rep_9_b_N.png	 N	 b	 b	 n.a.	 2.873575e-01
5	 5	 148	 unflanked	 rf	 4	 0.216700	 0.000000	 unflanked_rf_freq_4_amplitude_0.2167_rep_7_t_N.png	 N	 t	 t	 n.a.	 4.175053e-01
5	 5	 149	 unflanked	 rf	 4	 0.061700	 0.000000	 unflanked_rf_freq_4_amplitude_0.0617_rep_2_l_D.png	 D	 l	 t	 n.a.	 5.706258e-01
5	 5	 150	 unflanked	 rf	 12	 0.320000	 0.000000	 unflanked_rf_freq_12_amplitude_0.32_rep_5_r_K.png	 K	 r	 r	 n.a.	 2.801944e-01
5	 5	 151	 unflanked	 rf	 12	 0.216700	 0.000000	 unflanked_rf_freq_12_amplitude_0.2167_rep_8_b_N.png	 N	 b	 b	 n.a.	 3.350209e-01
5	 5	 152	 unflanked	 rf	 8	 0.113300	 0.000000	 unflanked_rf_freq_8_amplitude_0.1133_rep_7_r_K.png	 K	 r	 r	 n.a.	 2.439733e-01
5	 5	 153	 unflanked	 rf	 3	 0.320000	 0.000000	 unflanked_rf_freq_3_amplitude_0.32_rep_5_b_H.png	 H	 b	 b	 n.a.	 3.289207e-01
5	 5	 154	 unflanked	 rf	 2	 0.268300	 0.000000	 unflanked_rf_freq_2_amplitude_0.2683_rep_5_l_K.png	 K	 l	 l	 n.a.	 2.703284e-01
5	 5	 155	 unflanked	 rf	 8	 0.010000	 0.000000	 unflanked_rf_freq_8_amplitude_0.01_rep_4_r_H.png	 H	 r	 t	 n.a.	 6.331426e-01
5	 5	 156	 unflanked	 rf	 2	 0.216700	 0.000000	 unflanked_rf_freq_2_amplitude_0.2167_rep_3_r_D.png	 D	 r	 r	 n.a.	 5.761805e-01
5	 5	 157	 unflanked	 rf	 12	 0.010000	 0.000000	 unflanked_rf_freq_12_amplitude_0.01_rep_2_r_N.png	 N	 r	 r	 n.a.	 9.155542e-01
5	 5	 158	 unflanked	 rf	 3	 0.165000	 0.000000	 unflanked_rf_freq_3_amplitude_0.165_rep_2_l_D.png	 D	 l	 b	 n.a.	 8.808805e-01
5	 5	 159	 unflanked	 rf	 4	 0.165000	 0.000000	 unflanked_rf_freq_4_amplitude_0.165_rep_7_b_D.png	 D	 b	 b	 n.a.	 3.654303e-01
5	 5	 160	 unflanked	 rf	 4	 0.268300	 0.000000	 unflanked_rf_freq_4_amplitude_0.2683_rep_3_r_D.png	 D	 r	 r	 n.a.	 3.200796e-01
5	 5	 161	 unflanked	 rf	 3	 0.061700	 0.000000	 unflanked_rf_freq_3_amplitude_0.0617_rep_3_b_N.png	 N	 b	 t	 n.a.	 5.697215e-01
5	 5	 162	 unflanked	 rf	 12	 0.061700	 0.000000	 unflanked_rf_freq_12_amplitude_0.0617_rep_7_b_D.png	 D	 b	 r	 n.a.	 5.132635e-01
5	 5	 163	 unflanked	 rf	 12	 0.113300	 0.000000	 unflanked_rf_freq_12_amplitude_0.1133_rep_8_r_H.png	 H	 r	 r	 n.a.	 2.670976e-01
5	 5	 164	 unflanked	 rf	 8	 0.010000	 0.000000	 unflanked_rf_freq_8_amplitude_0.01_rep_2_r_N.png	 N	 r	 l	 n.a.	 7.268156e-01
5	 5	 165	 unflanked	 rf	 2	 0.268300	 0.000000	 unflanked_rf_freq_2_amplitude_0.2683_rep_4_t_D.png	 D	 t	 t	 n.a.	 5.985784e-01
5	 5	 166	 unflanked	 rf	 4	 0.216700	 0.000000	 unflanked_rf_freq_4_amplitude_0.2167_rep_9_l_N.png	 N	 l	 l	 n.a.	 5.154985e-01
5	 5	 167	 unflanked	 rf	 4	 0.113300	 0.000000	 unflanked_rf_freq_4_amplitude_0.1133_rep_5_t_K.png	 K	 t	 t	 n.a.	 4.660521e-01
5	 5	 168	 unflanked	 rf	 5	 0.268300	 0.000000	 unflanked_rf_freq_5_amplitude_0.2683_rep_5_l_N.png	 N	 l	 l	 n.a.	 2.806068e-01
5	 5	 169	 unflanked	 rf	 2	 0.320000	 0.000000	 unflanked_rf_freq_2_amplitude_0.32_rep_9_b_K.png	 K	 b	 b	 n.a.	 4.269552e-01
5	 5	 170	 unflanked	 rf	 8	 0.216700	 0.000000	 unflanked_rf_freq_8_amplitude_0.2167_rep_9_r_N.png	 N	 r	 r	 n.a.	 2.650765e-01
5	 5	 171	 unflanked	 rf	 4	 0.268300	 0.000000	 unflanked_rf_freq_4_amplitude_0.2683_rep_2_l_N.png	 N	 l	 l	 n.a.	 2.788788e-01
5	 5	 172	 unflanked	 rf	 2	 0.268300	 0.000000	 unflanked_rf_freq_2_amplitude_0.2683_rep_1_l_N.png	 N	 l	 l	 n.a.	 3.019347e-01
5	 5	 173	 unflanked	 rf	 3	 0.165000	 0.000000	 unflanked_rf_freq_3_amplitude_0.165_rep_5_b_D.png	 D	 b	 b	 n.a.	 3.428660e-01
5	 5	 174	 unflanked	 rf	 8	 0.216700	 0.000000	 unflanked_rf_freq_8_amplitude_0.2167_rep_5_t_N.png	 N	 t	 t	 n.a.	 4.466928e-01
5	 5	 175	 unflanked	 rf	 2	 0.268300	 0.000000	 unflanked_rf_freq_2_amplitude_0.2683_rep_3_r_H.png	 H	 r	 r	 n.a.	 2.916731e-01
5	 5	 176	 unflanked	 rf	 5	 0.061700	 0.000000	 unflanked_rf_freq_5_amplitude_0.0617_rep_8_t_N.png	 N	 t	 t	 n.a.	 4.605063e-01
5	 5	 177	 unflanked	 rf	 3	 0.268300	 0.000000	 unflanked_rf_freq_3_amplitude_0.2683_rep_2_r_N.png	 N	 r	 r	 n.a.	 1.883859e-01
5	 5	 178	 unflanked	 rf	 12	 0.061700	 0.000000	 unflanked_rf_freq_12_amplitude_0.0617_rep_1_t_N.png	 N	 t	 b	 n.a.	 4.539608e-01
5	 5	 179	 unflanked	 rf	 2	 0.216700	 0.000000	 unflanked_rf_freq_2_amplitude_0.2167_rep_7_t_H.png	 H	 t	 r	 n.a.	 2.520924e-01
5	 5	 180	 unflanked	 rf	 12	 0.061700	 0.000000	 unflanked_rf_freq_12_amplitude_0.0617_rep_4_t_K.png	 K	 t	 t	 n.a.	 3.321058e-01
5	 5	 181	 unflanked	 rf	 8	 0.061700	 0.000000	 unflanked_rf_freq_8_amplitude_0.0617_rep_3_l_D.png	 D	 l	 l	 n.a.	 3.670358e-01
5	 5	 182	 unflanked	 rf	 8	 0.113300	 0.000000	 unflanked_rf_freq_8_amplitude_0.1133_rep_3_r_H.png	 H	 r	 r	 n.a.	 2.532130e-01
5	 5	 183	 unflanked	 rf	 2	 0.320000	 0.000000	 unflanked_rf_freq_2_amplitude_0.32_rep_2_b_K.png	 K	 b	 t	 n.a.	 4.636455e-01
5	 5	 184	 unflanked	 rf	 12	 0.113300	 0.000000	 unflanked_rf_freq_12_amplitude_0.1133_rep_3_r_H.png	 H	 r	 r	 n.a.	 2.496210e-01
5	 5	 185	 unflanked	 rf	 2	 0.268300	 0.000000	 unflanked_rf_freq_2_amplitude_0.2683_rep_9_t_H.png	 H	 t	 t	 n.a.	 4.686757e-01
5	 5	 186	 unflanked	 rf	 3	 0.113300	 0.000000	 unflanked_rf_freq_3_amplitude_0.1133_rep_1_t_N.png	 N	 t	 t	 n.a.	 1.001982e+00
5	 5	 187	 unflanked	 rf	 4	 0.061700	 0.000000	 unflanked_rf_freq_4_amplitude_0.0617_rep_7_r_D.png	 D	 r	 r	 n.a.	 3.622597e-01
5	 5	 188	 unflanked	 rf	 8	 0.320000	 0.000000	 unflanked_rf_freq_8_amplitude_0.32_rep_4_l_D.png	 D	 l	 l	 n.a.	 2.278922e-01
5	 5	 189	 unflanked	 rf	 8	 0.165000	 0.000000	 unflanked_rf_freq_8_amplitude_0.165_rep_2_r_D.png	 D	 r	 r	 n.a.	 2.544691e-01
5	 5	 190	 unflanked	 rf	 4	 0.268300	 0.000000	 unflanked_rf_freq_4_amplitude_0.2683_rep_5_t_N.png	 N	 t	 t	 n.a.	 4.599314e-01
5	 5	 191	 unflanked	 rf	 2	 0.010000	 0.000000	 unflanked_rf_freq_2_amplitude_0.01_rep_7_l_H.png	 H	 l	 r	 n.a.	 9.335694e-01
5	 5	 192	 unflanked	 rf	 3	 0.061700	 0.000000	 unflanked_rf_freq_3_amplitude_0.0617_rep_7_b_K.png	 K	 b	 r	 n.a.	 8.848995e-01
5	 5	 193	 unflanked	 rf	 12	 0.268300	 0.000000	 unflanked_rf_freq_12_amplitude_0.2683_rep_1_b_N.png	 N	 b	 b	 n.a.	 3.556638e-01
5	 5	 194	 unflanked	 rf	 12	 0.268300	 0.000000	 unflanked_rf_freq_12_amplitude_0.2683_rep_0_b_K.png	 K	 b	 b	 n.a.	 4.216619e-01
5	 5	 195	 unflanked	 rf	 4	 0.010000	 0.000000	 unflanked_rf_freq_4_amplitude_0.01_rep_2_l_K.png	 K	 l	 t	 n.a.	 8.704138e-01
5	 5	 196	 unflanked	 rf	 2	 0.165000	 0.000000	 unflanked_rf_freq_2_amplitude_0.165_rep_5_r_K.png	 K	 r	 r	 n.a.	 2.599585e-01
5	 5	 197	 unflanked	 rf	 3	 0.216700	 0.000000	 unflanked_rf_freq_3_amplitude_0.2167_rep_3_r_K.png	 K	 r	 r	 n.a.	 2.874416e-01
5	 5	 198	 unflanked	 rf	 5	 0.268300	 0.000000	 unflanked_rf_freq_5_amplitude_0.2683_rep_4_l_D.png	 D	 l	 l	 n.a.	 2.636913e-01
5	 5	 199	 unflanked	 rf	 2	 0.216700	 0.000000	 unflanked_rf_freq_2_amplitude_0.2167_rep_9_b_D.png	 D	 b	 b	 n.a.	 5.799718e-01
5	 5	 200	 unflanked	 rf	 4	 0.320000	 0.000000	 unflanked_rf_freq_4_amplitude_0.32_rep_2_l_H.png	 H	 l	 l	 n.a.	 2.823132e-01
5	 5	 201	 unflanked	 rf	 4	 0.165000	 0.000000	 unflanked_rf_freq_4_amplitude_0.165_rep_1_b_H.png	 H	 b	 b	 n.a.	 4.732784e-01
5	 5	 202	 unflanked	 rf	 8	 0.010000	 0.000000	 unflanked_rf_freq_8_amplitude_0.01_rep_1_r_H.png	 H	 r	 r	 n.a.	 4.539229e-01
5	 5	 203	 unflanked	 rf	 2	 0.165000	 0.000000	 unflanked_rf_freq_2_amplitude_0.165_rep_8_r_K.png	 K	 r	 r	 n.a.	 3.635212e-01
5	 5	 204	 unflanked	 rf	 5	 0.165000	 0.000000	 unflanked_rf_freq_5_amplitude_0.165_rep_1_b_N.png	 N	 b	 b	 n.a.	 7.830292e-01
5	 5	 205	 unflanked	 rf	 12	 0.216700	 0.000000	 unflanked_rf_freq_12_amplitude_0.2167_rep_4_t_H.png	 H	 t	 t	 n.a.	 4.737638e-01
5	 5	 206	 unflanked	 rf	 12	 0.320000	 0.000000	 unflanked_rf_freq_12_amplitude_0.32_rep_6_t_N.png	 N	 t	 t	 n.a.	 2.646863e-01
5	 5	 207	 unflanked	 rf	 12	 0.165000	 0.000000	 unflanked_rf_freq_12_amplitude_0.165_rep_7_b_K.png	 K	 b	 b	 n.a.	 4.471090e-01
5	 5	 208	 unflanked	 rf	 12	 0.113300	 0.000000	 unflanked_rf_freq_12_amplitude_0.1133_rep_0_l_K.png	 K	 l	 l	 n.a.	 3.638005e-01
5	 5	 209	 unflanked	 rf	 12	 0.061700	 0.000000	 unflanked_rf_freq_12_amplitude_0.0617_rep_0_r_N.png	 N	 r	 r	 n.a.	 2.784664e-01
5	 5	 210	 unflanked	 rf	 5	 0.320000	 0.000000	 unflanked_rf_freq_5_amplitude_0.32_rep_5_r_K.png	 K	 r	 r	 n.a.	 2.966663e-01
5	 5	 211	 unflanked	 rf	 12	 0.010000	 0.000000	 unflanked_rf_freq_12_amplitude_0.01_rep_0_b_K.png	 K	 b	 r	 n.a.	 5.773401e-01
5	 5	 212	 unflanked	 rf	 8	 0.216700	 0.000000	 unflanked_rf_freq_8_amplitude_0.2167_rep_7_l_N.png	 N	 l	 l	 n.a.	 3.086979e-01
5	 5	 213	 unflanked	 rf	 3	 0.061700	 0.000000	 unflanked_rf_freq_3_amplitude_0.0617_rep_2_r_N.png	 N	 r	 b	 n.a.	 4.150799e-01
5	 5	 214	 unflanked	 rf	 12	 0.320000	 0.000000	 unflanked_rf_freq_12_amplitude_0.32_rep_0_l_N.png	 N	 l	 l	 n.a.	 2.364044e-01
5	 5	 215	 unflanked	 rf	 2	 0.320000	 0.000000	 unflanked_rf_freq_2_amplitude_0.32_rep_4_t_H.png	 H	 t	 t	 n.a.	 5.966085e-01
5	 5	 216	 unflanked	 rf	 4	 0.320000	 0.000000	 unflanked_rf_freq_4_amplitude_0.32_rep_5_r_D.png	 D	 r	 r	 n.a.	 2.989208e-01
5	 5	 217	 unflanked	 rf	 8	 0.165000	 0.000000	 unflanked_rf_freq_8_amplitude_0.165_rep_9_b_D.png	 D	 b	 b	 n.a.	 5.403884e-01
5	 5	 218	 unflanked	 rf	 8	 0.113300	 0.000000	 unflanked_rf_freq_8_amplitude_0.1133_rep_5_l_H.png	 H	 l	 l	 n.a.	 2.658874e-01
5	 5	 219	 unflanked	 rf	 4	 0.010000	 0.000000	 unflanked_rf_freq_4_amplitude_0.01_rep_4_b_D.png	 D	 b	 r	 n.a.	 3.572627e-01
5	 5	 220	 unflanked	 rf	 4	 0.061700	 0.000000	 unflanked_rf_freq_4_amplitude_0.0617_rep_1_l_H.png	 H	 l	 l	 n.a.	 5.126483e-01
5	 5	 221	 unflanked	 rf	 2	 0.113300	 0.000000	 unflanked_rf_freq_2_amplitude_0.1133_rep_3_b_K.png	 K	 b	 t	 n.a.	 9.207692e-01
5	 5	 222	 unflanked	 rf	 5	 0.010000	 0.000000	 unflanked_rf_freq_5_amplitude_0.01_rep_1_l_D.png	 D	 l	 r	 n.a.	 5.050477e-01
5	 5	 223	 unflanked	 rf	 2	 0.113300	 0.000000	 unflanked_rf_freq_2_amplitude_0.1133_rep_6_l_N.png	 N	 l	 t	 n.a.	 6.498560e-01
5	 5	 224	 unflanked	 rf	 5	 0.113300	 0.000000	 unflanked_rf_freq_5_amplitude_0.1133_rep_2_b_N.png	 N	 b	 b	 n.a.	 4.185941e-01
5	 5	 225	 unflanked	 rf	 2	 0.165000	 0.000000	 unflanked_rf_freq_2_amplitude_0.165_rep_1_r_H.png	 H	 r	 r	 n.a.	 7.045050e-01
5	 5	 226	 unflanked	 rf	 2	 0.061700	 0.000000	 unflanked_rf_freq_2_amplitude_0.0617_rep_5_r_N.png	 N	 r	 t	 n.a.	 6.717158e-01
5	 5	 227	 unflanked	 rf	 8	 0.216700	 0.000000	 unflanked_rf_freq_8_amplitude_0.2167_rep_0_t_K.png	 K	 t	 t	 n.a.	 4.132152e-01
5	 5	 228	 unflanked	 rf	 2	 0.061700	 0.000000	 unflanked_rf_freq_2_amplitude_0.0617_rep_0_r_H.png	 H	 r	 r	 n.a.	 5.509983e-01
5	 5	 229	 unflanked	 rf	 3	 0.061700	 0.000000	 unflanked_rf_freq_3_amplitude_0.0617_rep_4_l_N.png	 N	 l	 l	 n.a.	 4.759066e-01
5	 5	 230	 unflanked	 rf	 5	 0.165000	 0.000000	 unflanked_rf_freq_5_amplitude_0.165_rep_6_t_D.png	 D	 t	 t	 n.a.	 5.751946e-01
5	 5	 231	 unflanked	 rf	 5	 0.113300	 0.000000	 unflanked_rf_freq_5_amplitude_0.1133_rep_6_l_H.png	 H	 l	 l	 n.a.	 3.382260e-01
5	 5	 232	 unflanked	 rf	 8	 0.320000	 0.000000	 unflanked_rf_freq_8_amplitude_0.32_rep_1_r_H.png	 H	 r	 r	 n.a.	 2.775051e-01
5	 5	 233	 unflanked	 rf	 4	 0.113300	 0.000000	 unflanked_rf_freq_4_amplitude_0.1133_rep_1_l_D.png	 D	 l	 r	 n.a.	 5.084890e-01
5	 5	 234	 unflanked	 rf	 8	 0.010000	 0.000000	 unflanked_rf_freq_8_amplitude_0.01_rep_5_r_H.png	 H	 r	 t	 n.a.	 4.322934e-01
5	 5	 235	 unflanked	 rf	 3	 0.216700	 0.000000	 unflanked_rf_freq_3_amplitude_0.2167_rep_6_l_D.png	 D	 l	 l	 n.a.	 2.211848e-01
5	 5	 236	 unflanked	 rf	 2	 0.216700	 0.000000	 unflanked_rf_freq_2_amplitude_0.2167_rep_0_b_N.png	 N	 b	 b	 n.a.	 4.644066e-01
5	 5	 237	 unflanked	 rf	 8	 0.268300	 0.000000	 unflanked_rf_freq_8_amplitude_0.2683_rep_5_b_N.png	 N	 b	 b	 n.a.	 3.304460e-01
5	 5	 238	 unflanked	 rf	 12	 0.320000	 0.000000	 unflanked_rf_freq_12_amplitude_0.32_rep_3_b_K.png	 K	 b	 b	 n.a.	 2.629825e-01
5	 5	 239	 unflanked	 rf	 12	 0.165000	 0.000000	 unflanked_rf_freq_12_amplitude_0.165_rep_2_r_H.png	 H	 r	 r	 n.a.	 2.764910e-01
5	 5	 240	 unflanked	 rf	 8	 0.320000	 0.000000	 unflanked_rf_freq_8_amplitude_0.32_rep_3_b_K.png	 K	 b	 b	 n.a.	 3.754508e-01
5	 5	 241	 unflanked	 rf	 8	 0.320000	 0.000000	 unflanked_rf_freq_8_amplitude_0.32_rep_5_r_D.png	 D	 r	 r	 n.a.	 2.439662e-01
5	 5	 242	 unflanked	 rf	 12	 0.165000	 0.000000	 unflanked_rf_freq_12_amplitude_0.165_rep_1_l_H.png	 H	 l	 l	 n.a.	 2.405054e-01
5	 5	 243	 unflanked	 rf	 4	 0.010000	 0.000000	 unflanked_rf_freq_4_amplitude_0.01_rep_1_r_D.png	 D	 r	 r	 n.a.	 3.675864e-01
5	 5	 244	 unflanked	 rf	 3	 0.268300	 0.000000	 unflanked_rf_freq_3_amplitude_0.2683_rep_3_t_H.png	 H	 t	 t	 n.a.	 6.135453e-01
5	 5	 245	 unflanked	 rf	 5	 0.320000	 0.000000	 unflanked_rf_freq_5_amplitude_0.32_rep_7_t_H.png	 H	 t	 t	 n.a.	 3.615841e-01
5	 5	 246	 unflanked	 rf	 3	 0.113300	 0.000000	 unflanked_rf_freq_3_amplitude_0.1133_rep_8_b_D.png	 D	 b	 r	 n.a.	 4.459880e-01
5	 5	 247	 unflanked	 rf	 3	 0.268300	 0.000000	 unflanked_rf_freq_3_amplitude_0.2683_rep_5_b_D.png	 D	 b	 b	 n.a.	 4.298242e-01
5	 5	 248	 unflanked	 rf	 2	 0.216700	 0.000000	 unflanked_rf_freq_2_amplitude_0.2167_rep_1_l_D.png	 D	 l	 l	 n.a.	 3.329746e-01
5	 5	 249	 unflanked	 rf	 5	 0.113300	 0.000000	 unflanked_rf_freq_5_amplitude_0.1133_rep_5_r_K.png	 K	 r	 r	 n.a.	 3.326338e-01
5	 5	 250	 unflanked	 rf	 8	 0.268300	 0.000000	 unflanked_rf_freq_8_amplitude_0.2683_rep_1_r_H.png	 H	 r	 r	 n.a.	 2.483889e-01
5	 5	 251	 unflanked	 rf	 8	 0.165000	 0.000000	 unflanked_rf_freq_8_amplitude_0.165_rep_7_b_D.png	 D	 b	 b	 n.a.	 3.859586e-01
5	 5	 252	 unflanked	 rf	 2	 0.061700	 0.000000	 unflanked_rf_freq_2_amplitude_0.0617_rep_7_t_H.png	 H	 t	 r	 n.a.	 4.617102e-01
5	 5	 253	 unflanked	 rf	 4	 0.320000	 0.000000	 unflanked_rf_freq_4_amplitude_0.32_rep_3_b_D.png	 D	 b	 b	 n.a.	 4.366748e-01
5	 5	 254	 unflanked	 rf	 5	 0.320000	 0.000000	 unflanked_rf_freq_5_amplitude_0.32_rep_2_l_H.png	 H	 l	 l	 n.a.	 2.901577e-01
5	 5	 255	 unflanked	 rf	 4	 0.268300	 0.000000	 unflanked_rf_freq_4_amplitude_0.2683_rep_9_t_N.png	 N	 t	 t	 n.a.	 5.251455e-01
5	 5	 256	 unflanked	 rf	 5	 0.061700	 0.000000	 unflanked_rf_freq_5_amplitude_0.0617_rep_6_r_D.png	 D	 r	 r	 n.a.	 5.817917e-01
5	 5	 257	 unflanked	 rf	 4	 0.010000	 0.000000	 unflanked_rf_freq_4_amplitude_0.01_rep_7_r_K.png	 K	 r	 r	 n.a.	 3.493835e-01
5	 5	 258	 unflanked	 rf	 2	 0.216700	 0.000000	 unflanked_rf_freq_2_amplitude_0.2167_rep_5_r_H.png	 H	 r	 r	 n.a.	 2.459320e-01
5	 5	 259	 unflanked	 rf	 8	 0.320000	 0.000000	 unflanked_rf_freq_8_amplitude_0.32_rep_0_l_N.png	 N	 l	 l	 n.a.	 2.482154e-01
5	 5	 260	 unflanked	 rf	 4	 0.165000	 0.000000	 unflanked_rf_freq_4_amplitude_0.165_rep_8_l_K.png	 K	 l	 l	 n.a.	 3.372334e-01
5	 5	 261	 unflanked	 rf	 4	 0.165000	 0.000000	 unflanked_rf_freq_4_amplitude_0.165_rep_2_t_K.png	 K	 t	 t	 n.a.	 5.584346e-01
5	 5	 262	 unflanked	 rf	 5	 0.268300	 0.000000	 unflanked_rf_freq_5_amplitude_0.2683_rep_0_r_N.png	 N	 r	 r	 n.a.	 2.566779e-01
5	 5	 263	 unflanked	 rf	 5	 0.216700	 0.000000	 unflanked_rf_freq_5_amplitude_0.2167_rep_7_r_N.png	 N	 r	 r	 n.a.	 2.324626e-01
5	 5	 264	 unflanked	 rf	 2	 0.113300	 0.000000	 unflanked_rf_freq_2_amplitude_0.1133_rep_7_t_D.png	 D	 t	 t	 n.a.	 6.326918e-01
5	 5	 265	 unflanked	 rf	 8	 0.061700	 0.000000	 unflanked_rf_freq_8_amplitude_0.0617_rep_2_r_K.png	 K	 r	 r	 n.a.	 3.502205e-01
5	 5	 266	 unflanked	 rf	 2	 0.165000	 0.000000	 unflanked_rf_freq_2_amplitude_0.165_rep_4_t_D.png	 D	 t	 t	 n.a.	 4.971318e-01
5	 5	 267	 unflanked	 rf	 8	 0.113300	 0.000000	 unflanked_rf_freq_8_amplitude_0.1133_rep_9_r_H.png	 H	 r	 r	 n.a.	 2.758012e-01
5	 5	 268	 unflanked	 rf	 3	 0.216700	 0.000000	 unflanked_rf_freq_3_amplitude_0.2167_rep_0_r_D.png	 D	 r	 r	 n.a.	 2.682279e-01
5	 5	 269	 unflanked	 rf	 12	 0.268300	 0.000000	 unflanked_rf_freq_12_amplitude_0.2683_rep_5_l_D.png	 D	 l	 l	 n.a.	 2.549675e-01
5	 5	 270	 unflanked	 rf	 4	 0.216700	 0.000000	 unflanked_rf_freq_4_amplitude_0.2167_rep_3_l_H.png	 H	 l	 l	 n.a.	 3.266116e-01
5	 5	 271	 unflanked	 rf	 12	 0.113300	 0.000000	 unflanked_rf_freq_12_amplitude_0.1133_rep_5_t_H.png	 H	 t	 t	 n.a.	 4.529651e-01
5	 5	 272	 unflanked	 rf	 3	 0.010000	 0.000000	 unflanked_rf_freq_3_amplitude_0.01_rep_8_l_D.png	 D	 l	 r	 n.a.	 4.420004e-01
5	 5	 273	 unflanked	 rf	 2	 0.010000	 0.000000	 unflanked_rf_freq_2_amplitude_0.01_rep_2_r_D.png	 D	 r	 r	 n.a.	 5.933152e-01
5	 5	 274	 unflanked	 rf	 5	 0.010000	 0.000000	 unflanked_rf_freq_5_amplitude_0.01_rep_7_l_N.png	 N	 l	 t	 n.a.	 1.063791e+00
5	 5	 275	 unflanked	 rf	 3	 0.165000	 0.000000	 unflanked_rf_freq_3_amplitude_0.165_rep_7_r_D.png	 D	 r	 r	 n.a.	 3.779732e-01
5	 5	 276	 unflanked	 rf	 4	 0.268300	 0.000000	 unflanked_rf_freq_4_amplitude_0.2683_rep_7_l_D.png	 D	 l	 l	 n.a.	 3.447424e-01
5	 5	 277	 unflanked	 rf	 12	 0.061700	 0.000000	 unflanked_rf_freq_12_amplitude_0.0617_rep_6_b_N.png	 N	 b	 b	 n.a.	 5.807399e-01
5	 5	 278	 unflanked	 rf	 2	 0.010000	 0.000000	 unflanked_rf_freq_2_amplitude_0.01_rep_9_t_N.png	 N	 t	 l	 n.a.	 4.768117e-01
5	 5	 279	 unflanked	 rf	 5	 0.010000	 0.000000	 unflanked_rf_freq_5_amplitude_0.01_rep_6_t_D.png	 D	 t	 b	 n.a.	 8.851989e-01
5	 5	 280	 unflanked	 rf	 4	 0.010000	 0.000000	 unflanked_rf_freq_4_amplitude_0.01_rep_0_b_N.png	 N	 b	 r	 n.a.	 6.794288e-01
5	 5	 281	 unflanked	 rf	 5	 0.216700	 0.000000	 unflanked_rf_freq_5_amplitude_0.2167_rep_3_b_N.png	 N	 b	 b	 n.a.	 3.457438e-01
5	 5	 282	 unflanked	 rf	 12	 0.320000	 0.000000	 unflanked_rf_freq_12_amplitude_0.32_rep_7_t_K.png	 K	 t	 t	 n.a.	 4.619611e-01
5	 5	 283	 unflanked	 rf	 4	 0.320000	 0.000000	 unflanked_rf_freq_4_amplitude_0.32_rep_6_t_N.png	 N	 t	 t	 n.a.	 2.557821e-01
5	 5	 284	 unflanked	 rf	 12	 0.216700	 0.000000	 unflanked_rf_freq_12_amplitude_0.2167_rep_0_b_N.png	 N	 b	 b	 n.a.	 4.728049e-01
5	 5	 285	 unflanked	 rf	 3	 0.113300	 0.000000	 unflanked_rf_freq_3_amplitude_0.1133_rep_7_b_D.png	 D	 b	 b	 n.a.	 4.840390e-01
5	 5	 286	 unflanked	 rf	 4	 0.010000	 0.000000	 unflanked_rf_freq_4_amplitude_0.01_rep_9_t_K.png	 K	 t	 r	 n.a.	 6.110595e-01
5	 5	 287	 unflanked	 rf	 4	 0.165000	 0.000000	 unflanked_rf_freq_4_amplitude_0.165_rep_5_b_H.png	 H	 b	 b	 n.a.	 3.237715e-01
5	 5	 288	 unflanked	 rf	 8	 0.010000	 0.000000	 unflanked_rf_freq_8_amplitude_0.01_rep_9_l_N.png	 N	 l	 b	 n.a.	 5.297513e-01
5	 5	 289	 unflanked	 rf	 2	 0.165000	 0.000000	 unflanked_rf_freq_2_amplitude_0.165_rep_7_r_K.png	 K	 r	 r	 n.a.	 2.690948e-01
5	 5	 290	 unflanked	 rf	 2	 0.165000	 0.000000	 unflanked_rf_freq_2_amplitude_0.165_rep_0_l_D.png	 D	 l	 b	 n.a.	 6.093126e-01
5	 5	 291	 unflanked	 rf	 12	 0.010000	 0.000000	 unflanked_rf_freq_12_amplitude_0.01_rep_3_l_K.png	 K	 l	 r	 n.a.	 8.478668e-01
5	 5	 292	 unflanked	 rf	 2	 0.010000	 0.000000	 unflanked_rf_freq_2_amplitude_0.01_rep_1_l_N.png	 N	 l	 t	 n.a.	 5.109533e-01
5	 5	 293	 unflanked	 rf	 4	 0.113300	 0.000000	 unflanked_rf_freq_4_amplitude_0.1133_rep_7_t_K.png	 K	 t	 l	 n.a.	 3.531282e-01
5	 5	 294	 unflanked	 rf	 5	 0.320000	 0.000000	 unflanked_rf_freq_5_amplitude_0.32_rep_1_r_D.png	 D	 r	 r	 n.a.	 2.497942e-01
5	 5	 295	 unflanked	 rf	 4	 0.061700	 0.000000	 unflanked_rf_freq_4_amplitude_0.0617_rep_6_b_N.png	 N	 b	 b	 n.a.	 8.650967e-01
5	 5	 296	 unflanked	 rf	 5	 0.268300	 0.000000	 unflanked_rf_freq_5_amplitude_0.2683_rep_7_t_K.png	 K	 t	 t	 n.a.	 5.292783e-01
5	 5	 297	 unflanked	 rf	 8	 0.216700	 0.000000	 unflanked_rf_freq_8_amplitude_0.2167_rep_4_l_K.png	 K	 l	 l	 n.a.	 2.833391e-01
5	 5	 298	 unflanked	 rf	 3	 0.113300	 0.000000	 unflanked_rf_freq_3_amplitude_0.1133_rep_5_t_H.png	 H	 t	 t	 n.a.	 5.096470e-01
5	 5	 299	 unflanked	 rf	 2	 0.216700	 0.000000	 unflanked_rf_freq_2_amplitude_0.2167_rep_2_b_H.png	 H	 b	 b	 n.a.	 4.580767e-01
5	 5	 300	 unflanked	 rf	 4	 0.165000	 0.000000	 unflanked_rf_freq_4_amplitude_0.165_rep_3_b_D.png	 D	 b	 b	 n.a.	 2.805803e-01
5	 5	 301	 unflanked	 rf	 4	 0.061700	 0.000000	 unflanked_rf_freq_4_amplitude_0.0617_rep_8_r_N.png	 N	 r	 b	 n.a.	 7.949258e-01
5	 5	 302	 unflanked	 rf	 3	 0.320000	 0.000000	 unflanked_rf_freq_3_amplitude_0.32_rep_9_l_K.png	 K	 l	 l	 n.a.	 2.766958e-01
5	 5	 303	 unflanked	 rf	 5	 0.061700	 0.000000	 unflanked_rf_freq_5_amplitude_0.0617_rep_3_r_K.png	 K	 r	 r	 n.a.	 3.281683e-01
5	 5	 304	 unflanked	 rf	 12	 0.113300	 0.000000	 unflanked_rf_freq_12_amplitude_0.1133_rep_7_r_K.png	 K	 r	 r	 n.a.	 2.924505e-01
5	 5	 305	 unflanked	 rf	 8	 0.268300	 0.000000	 unflanked_rf_freq_8_amplitude_0.2683_rep_0_t_K.png	 K	 t	 t	 n.a.	 4.399467e-01
5	 5	 306	 unflanked	 rf	 3	 0.113300	 0.000000	 unflanked_rf_freq_3_amplitude_0.1133_rep_6_t_D.png	 D	 t	 t	 n.a.	 4.476273e-01
5	 5	 307	 unflanked	 rf	 2	 0.320000	 0.000000	 unflanked_rf_freq_2_amplitude_0.32_rep_5_b_N.png	 N	 b	 b	 n.a.	 4.171511e-01
5	 5	 308	 unflanked	 rf	 5	 0.165000	 0.000000	 unflanked_rf_freq_5_amplitude_0.165_rep_8_r_K.png	 K	 r	 r	 n.a.	 2.832493e-01
5	 5	 309	 unflanked	 rf	 8	 0.010000	 0.000000	 unflanked_rf_freq_8_amplitude_0.01_rep_6_t_H.png	 H	 t	 r	 n.a.	 6.138222e-01
5	 5	 310	 unflanked	 rf	 8	 0.320000	 0.000000	 unflanked_rf_freq_8_amplitude_0.32_rep_6_r_K.png	 K	 r	 r	 n.a.	 2.450069e-01
5	 5	 311	 unflanked	 rf	 3	 0.216700	 0.000000	 unflanked_rf_freq_3_amplitude_0.2167_rep_7_b_K.png	 K	 b	 b	 n.a.	 4.263426e-01
5	 5	 312	 unflanked	 rf	 4	 0.165000	 0.000000	 unflanked_rf_freq_4_amplitude_0.165_rep_4_l_N.png	 N	 l	 l	 n.a.	 3.676075e-01
5	 5	 313	 unflanked	 rf	 5	 0.061700	 0.000000	 unflanked_rf_freq_5_amplitude_0.0617_rep_4_r_H.png	 H	 r	 r	 n.a.	 3.498456e-01
5	 5	 314	 unflanked	 rf	 5	 0.113300	 0.000000	 unflanked_rf_freq_5_amplitude_0.1133_rep_4_l_K.png	 K	 l	 l	 n.a.	 3.465870e-01
5	 5	 315	 unflanked	 rf	 4	 0.165000	 0.000000	 unflanked_rf_freq_4_amplitude_0.165_rep_6_b_D.png	 D	 b	 b	 n.a.	 4.227349e-01
5	 5	 316	 unflanked	 rf	 12	 0.216700	 0.000000	 unflanked_rf_freq_12_amplitude_0.2167_rep_7_l_K.png	 K	 l	 l	 n.a.	 2.880118e-01
5	 5	 317	 unflanked	 rf	 3	 0.320000	 0.000000	 unflanked_rf_freq_3_amplitude_0.32_rep_3_r_H.png	 H	 r	 r	 n.a.	 2.861003e-01
5	 5	 318	 unflanked	 rf	 8	 0.113300	 0.000000	 unflanked_rf_freq_8_amplitude_0.1133_rep_4_b_N.png	 N	 b	 b	 n.a.	 6.630364e-01
5	 5	 319	 unflanked	 rf	 12	 0.113300	 0.000000	 unflanked_rf_freq_12_amplitude_0.1133_rep_9_l_K.png	 K	 l	 l	 n.a.	 3.078665e-01
5	 5	 320	 unflanked	 rf	 5	 0.010000	 0.000000	 unflanked_rf_freq_5_amplitude_0.01_rep_3_t_K.png	 K	 t	 r	 n.a.	 2.731664e-01
5	 5	 321	 unflanked	 rf	 4	 0.010000	 0.000000	 unflanked_rf_freq_4_amplitude_0.01_rep_8_t_N.png	 N	 t	 r	 n.a.	 3.696676e-01
5	 5	 322	 unflanked	 rf	 8	 0.165000	 0.000000	 unflanked_rf_freq_8_amplitude_0.165_rep_3_t_N.png	 N	 t	 t	 n.a.	 4.375727e-01
5	 5	 323	 unflanked	 rf	 5	 0.165000	 0.000000	 unflanked_rf_freq_5_amplitude_0.165_rep_2_r_D.png	 D	 r	 r	 n.a.	 3.630395e-01
5	 5	 324	 unflanked	 rf	 8	 0.268300	 0.000000	 unflanked_rf_freq_8_amplitude_0.2683_rep_2_l_K.png	 K	 l	 l	 n.a.	 2.965457e-01
5	 5	 325	 unflanked	 rf	 8	 0.061700	 0.000000	 unflanked_rf_freq_8_amplitude_0.0617_rep_6_b_D.png	 D	 b	 r	 n.a.	 3.130237e-01
5	 5	 326	 unflanked	 rf	 4	 0.010000	 0.000000	 unflanked_rf_freq_4_amplitude_0.01_rep_5_r_K.png	 K	 r	 t	 n.a.	 7.963550e-01
5	 5	 327	 unflanked	 rf	 12	 0.320000	 0.000000	 unflanked_rf_freq_12_amplitude_0.32_rep_4_t_N.png	 N	 t	 t	 n.a.	 4.413099e-01
5	 5	 328	 unflanked	 rf	 4	 0.010000	 0.000000	 unflanked_rf_freq_4_amplitude_0.01_rep_6_b_N.png	 N	 b	 r	 n.a.	 7.390527e-01
5	 5	 329	 unflanked	 rf	 3	 0.113300	 0.000000	 unflanked_rf_freq_3_amplitude_0.1133_rep_3_b_N.png	 N	 b	 b	 n.a.	 6.890027e-01
5	 5	 330	 unflanked	 rf	 2	 0.113300	 0.000000	 unflanked_rf_freq_2_amplitude_0.1133_rep_8_l_N.png	 N	 l	 r	 n.a.	 3.308646e-01
5	 5	 331	 unflanked	 rf	 8	 0.165000	 0.000000	 unflanked_rf_freq_8_amplitude_0.165_rep_6_b_H.png	 H	 b	 b	 n.a.	 5.192505e-01
5	 5	 332	 unflanked	 rf	 2	 0.061700	 0.000000	 unflanked_rf_freq_2_amplitude_0.0617_rep_9_b_H.png	 H	 b	 r	 n.a.	 5.386847e-01
5	 5	 333	 unflanked	 rf	 3	 0.165000	 0.000000	 unflanked_rf_freq_3_amplitude_0.165_rep_0_b_H.png	 H	 b	 b	 n.a.	 5.081917e-01
5	 5	 334	 unflanked	 rf	 12	 0.216700	 0.000000	 unflanked_rf_freq_12_amplitude_0.2167_rep_9_t_D.png	 D	 t	 t	 n.a.	 5.017856e-01
5	 5	 335	 unflanked	 rf	 8	 0.061700	 0.000000	 unflanked_rf_freq_8_amplitude_0.0617_rep_9_r_N.png	 N	 r	 l	 n.a.	 6.057735e-01
5	 5	 336	 unflanked	 rf	 12	 0.061700	 0.000000	 unflanked_rf_freq_12_amplitude_0.0617_rep_9_b_K.png	 K	 b	 b	 n.a.	 3.614143e-01
5	 5	 337	 unflanked	 rf	 2	 0.320000	 0.000000	 unflanked_rf_freq_2_amplitude_0.32_rep_7_t_K.png	 K	 t	 t	 n.a.	 5.148461e-01
5	 5	 338	 unflanked	 rf	 5	 0.113300	 0.000000	 unflanked_rf_freq_5_amplitude_0.1133_rep_9_r_D.png	 D	 r	 r	 n.a.	 2.924044e-01
5	 5	 339	 unflanked	 rf	 8	 0.010000	 0.000000	 unflanked_rf_freq_8_amplitude_0.01_rep_3_l_N.png	 N	 l	 r	 n.a.	 2.397211e-01
5	 5	 340	 unflanked	 rf	 4	 0.320000	 0.000000	 unflanked_rf_freq_4_amplitude_0.32_rep_0_t_K.png	 K	 t	 t	 n.a.	 4.659100e-01
5	 5	 341	 unflanked	 rf	 8	 0.320000	 0.000000	 unflanked_rf_freq_8_amplitude_0.32_rep_8_l_N.png	 N	 l	 l	 n.a.	 3.353859e-01
5	 5	 342	 unflanked	 rf	 8	 0.113300	 0.000000	 unflanked_rf_freq_8_amplitude_0.1133_rep_2_r_D.png	 D	 r	 r	 n.a.	 2.010867e-01
5	 5	 343	 unflanked	 rf	 8	 0.010000	 0.000000	 unflanked_rf_freq_8_amplitude_0.01_rep_0_t_D.png	 D	 t	 r	 n.a.	 2.280577e-01
5	 5	 344	 unflanked	 rf	 8	 0.113300	 0.000000	 unflanked_rf_freq_8_amplitude_0.1133_rep_6_l_N.png	 N	 l	 l	 n.a.	 3.196264e-01
5	 5	 345	 unflanked	 rf	 5	 0.061700	 0.000000	 unflanked_rf_freq_5_amplitude_0.0617_rep_7_l_D.png	 D	 l	 t	 n.a.	 4.593955e-01
5	 5	 346	 unflanked	 rf	 12	 0.113300	 0.000000	 unflanked_rf_freq_12_amplitude_0.1133_rep_1_b_D.png	 D	 b	 r	 n.a.	 4.454702e-01
5	 5	 347	 unflanked	 rf	 3	 0.320000	 0.000000	 unflanked_rf_freq_3_amplitude_0.32_rep_2_r_H.png	 H	 r	 r	 n.a.	 2.628760e-01
5	 5	 348	 unflanked	 rf	 5	 0.268300	 0.000000	 unflanked_rf_freq_5_amplitude_0.2683_rep_6_l_D.png	 D	 l	 l	 n.a.	 3.098380e-01
5	 5	 349	 unflanked	 rf	 5	 0.268300	 0.000000	 unflanked_rf_freq_5_amplitude_0.2683_rep_2_t_D.png	 D	 t	 t	 n.a.	 4.427300e-01
5	 5	 350	 unflanked	 rf	 5	 0.113300	 0.000000	 unflanked_rf_freq_5_amplitude_0.1133_rep_7_l_D.png	 D	 l	 l	 n.a.	 3.750691e-01
5	 5	 351	 unflanked	 rf	 2	 0.010000	 0.000000	 unflanked_rf_freq_2_amplitude_0.01_rep_8_b_H.png	 H	 b	 t	 n.a.	 5.138303e-01
5	 5	 352	 unflanked	 rf	 2	 0.268300	 0.000000	 unflanked_rf_freq_2_amplitude_0.2683_rep_2_t_H.png	 H	 t	 t	 n.a.	 2.921164e-01
5	 5	 353	 unflanked	 rf	 4	 0.320000	 0.000000	 unflanked_rf_freq_4_amplitude_0.32_rep_8_l_N.png	 N	 l	 l	 n.a.	 2.694833e-01
5	 5	 354	 unflanked	 rf	 4	 0.113300	 0.000000	 unflanked_rf_freq_4_amplitude_0.1133_rep_8_l_H.png	 H	 l	 l	 n.a.	 4.549658e-01
5	 5	 355	 unflanked	 rf	 5	 0.216700	 0.000000	 unflanked_rf_freq_5_amplitude_0.2167_rep_6_r_H.png	 H	 r	 r	 n.a.	 3.524057e-01
5	 5	 356	 unflanked	 rf	 2	 0.165000	 0.000000	 unflanked_rf_freq_2_amplitude_0.165_rep_9_l_K.png	 K	 l	 l	 n.a.	 2.829485e-01
5	 5	 357	 unflanked	 rf	 12	 0.268300	 0.000000	 unflanked_rf_freq_12_amplitude_0.2683_rep_7_r_H.png	 H	 r	 r	 n.a.	 1.803152e-01
5	 5	 358	 unflanked	 rf	 12	 0.061700	 0.000000	 unflanked_rf_freq_12_amplitude_0.0617_rep_5_r_D.png	 D	 r	 r	 n.a.	 2.531894e-01
5	 5	 359	 unflanked	 rf	 5	 0.010000	 0.000000	 unflanked_rf_freq_5_amplitude_0.01_rep_0_r_N.png	 N	 r	 b	 n.a.	 6.050935e-01
5	 5	 360	 unflanked	 rf	 2	 0.113300	 0.000000	 unflanked_rf_freq_2_amplitude_0.1133_rep_0_t_N.png	 N	 t	 t	 n.a.	 6.282220e-01
5	 5	 361	 unflanked	 rf	 5	 0.216700	 0.000000	 unflanked_rf_freq_5_amplitude_0.2167_rep_1_r_N.png	 N	 r	 r	 n.a.	 2.885875e-01
5	 5	 362	 unflanked	 rf	 3	 0.216700	 0.000000	 unflanked_rf_freq_3_amplitude_0.2167_rep_2_r_N.png	 N	 r	 r	 n.a.	 2.743277e-01
5	 5	 363	 unflanked	 rf	 8	 0.216700	 0.000000	 unflanked_rf_freq_8_amplitude_0.2167_rep_2_l_K.png	 K	 l	 l	 n.a.	 2.258478e-01
5	 5	 364	 unflanked	 rf	 3	 0.165000	 0.000000	 unflanked_rf_freq_3_amplitude_0.165_rep_4_r_N.png	 N	 r	 r	 n.a.	 4.500011e-01
5	 5	 365	 unflanked	 rf	 12	 0.268300	 0.000000	 unflanked_rf_freq_12_amplitude_0.2683_rep_8_r_D.png	 D	 r	 r	 n.a.	 2.473373e-01
5	 5	 366	 unflanked	 rf	 5	 0.061700	 0.000000	 unflanked_rf_freq_5_amplitude_0.0617_rep_1_b_H.png	 H	 b	 t	 n.a.	 5.845666e-01
5	 5	 367	 unflanked	 rf	 5	 0.113300	 0.000000	 unflanked_rf_freq_5_amplitude_0.1133_rep_8_r_K.png	 K	 r	 r	 n.a.	 1.689642e-01
5	 5	 368	 unflanked	 rf	 2	 0.061700	 0.000000	 unflanked_rf_freq_2_amplitude_0.0617_rep_1_r_N.png	 N	 r	 r	 n.a.	 3.018899e-01
5	 5	 369	 unflanked	 rf	 2	 0.216700	 0.000000	 unflanked_rf_freq_2_amplitude_0.2167_rep_6_t_H.png	 H	 t	 t	 n.a.	 5.633435e-01
5	 5	 370	 unflanked	 rf	 8	 0.010000	 0.000000	 unflanked_rf_freq_8_amplitude_0.01_rep_7_t_D.png	 D	 t	 b	 n.a.	 4.317355e-01
5	 5	 371	 unflanked	 rf	 12	 0.061700	 0.000000	 unflanked_rf_freq_12_amplitude_0.0617_rep_8_l_K.png	 K	 l	 l	 n.a.	 6.175310e-01
5	 5	 372	 unflanked	 rf	 12	 0.010000	 0.000000	 unflanked_rf_freq_12_amplitude_0.01_rep_9_t_K.png	 K	 t	 b	 n.a.	 5.921034e-01
5	 5	 373	 unflanked	 rf	 3	 0.165000	 0.000000	 unflanked_rf_freq_3_amplitude_0.165_rep_3_b_H.png	 H	 b	 b	 n.a.	 6.266519e-01
5	 5	 374	 unflanked	 rf	 12	 0.113300	 0.000000	 unflanked_rf_freq_12_amplitude_0.1133_rep_2_b_D.png	 D	 b	 b	 n.a.	 4.494582e-01
5	 5	 375	 unflanked	 rf	 3	 0.010000	 0.000000	 unflanked_rf_freq_3_amplitude_0.01_rep_9_t_N.png	 N	 t	 b	 n.a.	 3.263749e-01
5	 5	 376	 unflanked	 rf	 8	 0.320000	 0.000000	 unflanked_rf_freq_8_amplitude_0.32_rep_2_b_D.png	 D	 b	 b	 n.a.	 4.696705e-01
5	 5	 377	 unflanked	 rf	 12	 0.113300	 0.000000	 unflanked_rf_freq_12_amplitude_0.1133_rep_6_b_D.png	 D	 b	 b	 n.a.	 4.317629e-01
5	 5	 378	 unflanked	 rf	 3	 0.216700	 0.000000	 unflanked_rf_freq_3_amplitude_0.2167_rep_4_t_N.png	 N	 t	 t	 n.a.	 4.291096e-01
5	 5	 379	 unflanked	 rf	 4	 0.113300	 0.000000	 unflanked_rf_freq_4_amplitude_0.1133_rep_4_b_D.png	 D	 b	 r	 n.a.	 5.832813e-01
5	 5	 380	 unflanked	 rf	 2	 0.061700	 0.000000	 unflanked_rf_freq_2_amplitude_0.0617_rep_3_b_N.png	 N	 b	 r	 n.a.	 5.489484e-01
5	 5	 381	 unflanked	 rf	 5	 0.320000	 0.000000	 unflanked_rf_freq_5_amplitude_0.32_rep_6_r_H.png	 H	 r	 r	 n.a.	 2.511486e-01
5	 5	 382	 unflanked	 rf	 3	 0.165000	 0.000000	 unflanked_rf_freq_3_amplitude_0.165_rep_9_l_N.png	 N	 l	 l	 n.a.	 3.554128e-01
5	 5	 383	 unflanked	 rf	 8	 0.165000	 0.000000	 unflanked_rf_freq_8_amplitude_0.165_rep_0_r_N.png	 N	 r	 r	 n.a.	 2.643526e-01
5	 5	 384	 unflanked	 rf	 3	 0.165000	 0.000000	 unflanked_rf_freq_3_amplitude_0.165_rep_8_t_H.png	 H	 t	 b	 n.a.	 6.821694e-01
5	 5	 385	 unflanked	 rf	 5	 0.061700	 0.000000	 unflanked_rf_freq_5_amplitude_0.0617_rep_2_t_D.png	 D	 t	 t	 n.a.	 5.651345e-01
5	 5	 386	 unflanked	 rf	 5	 0.216700	 0.000000	 unflanked_rf_freq_5_amplitude_0.2167_rep_2_l_N.png	 N	 l	 l	 n.a.	 2.936578e-01
5	 5	 387	 unflanked	 rf	 12	 0.165000	 0.000000	 unflanked_rf_freq_12_amplitude_0.165_rep_9_l_K.png	 K	 l	 l	 n.a.	 2.434917e-01
5	 5	 388	 unflanked	 rf	 2	 0.113300	 0.000000	 unflanked_rf_freq_2_amplitude_0.1133_rep_1_b_D.png	 D	 b	 t	 n.a.	 5.742432e-01
5	 5	 389	 unflanked	 rf	 12	 0.320000	 0.000000	 unflanked_rf_freq_12_amplitude_0.32_rep_8_t_K.png	 K	 t	 t	 n.a.	 3.647950e-01
5	 5	 390	 unflanked	 rf	 4	 0.216700	 0.000000	 unflanked_rf_freq_4_amplitude_0.2167_rep_8_t_H.png	 H	 t	 t	 n.a.	 3.814939e-01
5	 5	 391	 unflanked	 rf	 8	 0.216700	 0.000000	 unflanked_rf_freq_8_amplitude_0.2167_rep_6_r_K.png	 K	 r	 r	 n.a.	 2.621761e-01
5	 5	 392	 unflanked	 rf	 3	 0.320000	 0.000000	 unflanked_rf_freq_3_amplitude_0.32_rep_1_b_H.png	 H	 b	 b	 n.a.	 4.597256e-01
5	 5	 393	 unflanked	 rf	 2	 0.165000	 0.000000	 unflanked_rf_freq_2_amplitude_0.165_rep_3_b_H.png	 H	 b	 b	 n.a.	 4.747340e-01
5	 5	 394	 unflanked	 rf	 3	 0.061700	 0.000000	 unflanked_rf_freq_3_amplitude_0.0617_rep_0_l_H.png	 H	 l	 r	 n.a.	 3.243830e-01
5	 5	 395	 unflanked	 rf	 2	 0.165000	 0.000000	 unflanked_rf_freq_2_amplitude_0.165_rep_6_l_K.png	 K	 l	 l	 n.a.	 2.956552e-01
5	 5	 396	 unflanked	 rf	 4	 0.113300	 0.000000	 unflanked_rf_freq_4_amplitude_0.1133_rep_3_b_H.png	 H	 b	 b	 n.a.	 3.834611e-01
5	 5	 397	 unflanked	 rf	 8	 0.165000	 0.000000	 unflanked_rf_freq_8_amplitude_0.165_rep_5_l_N.png	 N	 l	 l	 n.a.	 2.813587e-01
5	 5	 398	 unflanked	 rf	 5	 0.216700	 0.000000	 unflanked_rf_freq_5_amplitude_0.2167_rep_8_b_H.png	 H	 b	 b	 n.a.	 2.694135e-01
5	 5	 399	 unflanked	 rf	 12	 0.165000	 0.000000	 unflanked_rf_freq_12_amplitude_0.165_rep_0_b_N.png	 N	 b	 b	 n.a.	 2.503171e-01
5	 5	 400	 unflanked	 rf	 3	 0.113300	 0.000000	 unflanked_rf_freq_3_amplitude_0.1133_rep_0_t_N.png	 N	 t	 r	 n.a.	 4.328726e-01
5	 5	 401	 unflanked	 rf	 3	 0.320000	 0.000000	 unflanked_rf_freq_3_amplitude_0.32_rep_0_t_N.png	 N	 t	 t	 n.a.	 5.024746e-01
5	 5	 402	 unflanked	 rf	 5	 0.010000	 0.000000	 unflanked_rf_freq_5_amplitude_0.01_rep_5_b_D.png	 D	 b	 l	 n.a.	 7.684295e-01
5	 5	 403	 unflanked	 rf	 3	 0.113300	 0.000000	 unflanked_rf_freq_3_amplitude_0.1133_rep_2_r_H.png	 H	 r	 r	 n.a.	 5.205121e-01
5	 5	 404	 unflanked	 rf	 4	 0.216700	 0.000000	 unflanked_rf_freq_4_amplitude_0.2167_rep_4_b_D.png	 D	 b	 b	 n.a.	 3.552576e-01
5	 5	 405	 unflanked	 rf	 8	 0.216700	 0.000000	 unflanked_rf_freq_8_amplitude_0.2167_rep_3_l_D.png	 D	 l	 l	 n.a.	 2.938326e-01
5	 5	 406	 unflanked	 rf	 8	 0.268300	 0.000000	 unflanked_rf_freq_8_amplitude_0.2683_rep_4_r_H.png	 H	 r	 r	 n.a.	 2.307505e-01
5	 5	 407	 unflanked	 rf	 12	 0.268300	 0.000000	 unflanked_rf_freq_12_amplitude_0.2683_rep_9_l_K.png	 K	 l	 l	 n.a.	 2.386082e-01
5	 5	 408	 unflanked	 rf	 8	 0.268300	 0.000000	 unflanked_rf_freq_8_amplitude_0.2683_rep_6_b_D.png	 D	 b	 b	 n.a.	 4.363436e-01
5	 5	 409	 unflanked	 rf	 12	 0.061700	 0.000000	 unflanked_rf_freq_12_amplitude_0.0617_rep_3_b_H.png	 H	 b	 b	 n.a.	 6.056604e-01
5	 5	 410	 unflanked	 rf	 4	 0.320000	 0.000000	 unflanked_rf_freq_4_amplitude_0.32_rep_9_t_H.png	 H	 t	 t	 n.a.	 4.939780e-01
5	 5	 411	 unflanked	 rf	 4	 0.113300	 0.000000	 unflanked_rf_freq_4_amplitude_0.1133_rep_9_l_D.png	 D	 l	 l	 n.a.	 2.849429e-01
5	 5	 412	 unflanked	 rf	 5	 0.165000	 0.000000	 unflanked_rf_freq_5_amplitude_0.165_rep_7_t_K.png	 K	 t	 t	 n.a.	 4.147549e-01
5	 5	 413	 unflanked	 rf	 8	 0.061700	 0.000000	 unflanked_rf_freq_8_amplitude_0.0617_rep_0_b_H.png	 H	 b	 t	 n.a.	 4.999092e-01
5	 5	 414	 unflanked	 rf	 4	 0.216700	 0.000000	 unflanked_rf_freq_4_amplitude_0.2167_rep_1_r_D.png	 D	 r	 r	 n.a.	 3.031261e-01
5	 5	 415	 unflanked	 rf	 2	 0.113300	 0.000000	 unflanked_rf_freq_2_amplitude_0.1133_rep_2_r_D.png	 D	 r	 r	 n.a.	 5.231650e-01
5	 5	 416	 unflanked	 rf	 5	 0.061700	 0.000000	 unflanked_rf_freq_5_amplitude_0.0617_rep_9_r_H.png	 H	 r	 r	 n.a.	 3.255008e-01
5	 5	 417	 unflanked	 rf	 8	 0.113300	 0.000000	 unflanked_rf_freq_8_amplitude_0.1133_rep_1_t_H.png	 H	 t	 t	 n.a.	 4.530971e-01
5	 5	 418	 unflanked	 rf	 8	 0.216700	 0.000000	 unflanked_rf_freq_8_amplitude_0.2167_rep_1_l_N.png	 N	 l	 l	 n.a.	 3.363497e-01
5	 5	 419	 unflanked	 rf	 8	 0.061700	 0.000000	 unflanked_rf_freq_8_amplitude_0.0617_rep_7_l_D.png	 D	 l	 l	 n.a.	 3.387939e-01
5	 5	 420	 unflanked	 rf	 8	 0.268300	 0.000000	 unflanked_rf_freq_8_amplitude_0.2683_rep_3_b_N.png	 N	 b	 b	 n.a.	 4.722807e-01
