subject	 session	 trial	 flanked	 distortion	 freq	 amplitude	 spacing	 im_name	 targ_letter	 targ_pos	 response	 eyemovement	 RT
2	 3	 1	 unflanked	 rf	 3	 0.216700	 0.000000	 unflanked_rf_freq_3_amplitude_0.2167_rep_1_r_H.png	 H	 r	 l	 n.a.	 6.196760e-01
2	 3	 2	 unflanked	 rf	 2	 0.216700	 0.000000	 unflanked_rf_freq_2_amplitude_0.2167_rep_6_t_H.png	 H	 t	 t	 n.a.	 6.629474e-01
2	 3	 3	 unflanked	 rf	 12	 0.061700	 0.000000	 unflanked_rf_freq_12_amplitude_0.0617_rep_5_r_D.png	 D	 r	 r	 n.a.	 5.392433e-01
2	 3	 4	 unflanked	 rf	 2	 0.216700	 0.000000	 unflanked_rf_freq_2_amplitude_0.2167_rep_4_l_N.png	 N	 l	 l	 n.a.	 3.641115e-01
2	 3	 5	 unflanked	 rf	 2	 0.007500	 0.000000	 unflanked_rf_freq_2_amplitude_0.0075_rep_2_l_H.png	 H	 l	 b	 n.a.	 4.206133e-01
2	 3	 6	 unflanked	 rf	 3	 0.007500	 0.000000	 unflanked_rf_freq_3_amplitude_0.0075_rep_8_r_N.png	 N	 r	 t	 n.a.	 5.150420e-01
2	 3	 7	 unflanked	 rf	 12	 0.113300	 0.000000	 unflanked_rf_freq_12_amplitude_0.1133_rep_0_l_K.png	 K	 l	 r	 n.a.	 2.869494e-01
2	 3	 8	 unflanked	 rf	 12	 0.061700	 0.000000	 unflanked_rf_freq_12_amplitude_0.0617_rep_2_b_H.png	 H	 b	 b	 n.a.	 3.685014e-01
2	 3	 9	 unflanked	 rf	 4	 0.007500	 0.000000	 unflanked_rf_freq_4_amplitude_0.0075_rep_4_b_K.png	 K	 b	 t	 n.a.	 5.386300e-01
2	 3	 10	 unflanked	 rf	 4	 0.165000	 0.000000	 unflanked_rf_freq_4_amplitude_0.165_rep_2_t_K.png	 K	 t	 l	 n.a.	 2.809822e-01
2	 3	 11	 unflanked	 rf	 8	 0.216700	 0.000000	 unflanked_rf_freq_8_amplitude_0.2167_rep_1_l_N.png	 N	 l	 l	 n.a.	 4.162741e-01
2	 3	 12	 unflanked	 rf	 12	 0.268300	 0.000000	 unflanked_rf_freq_12_amplitude_0.2683_rep_8_r_D.png	 D	 r	 r	 n.a.	 2.253575e-01
2	 3	 13	 unflanked	 rf	 4	 0.010000	 0.000000	 unflanked_rf_freq_4_amplitude_0.01_rep_0_b_N.png	 N	 b	 b	 n.a.	 4.833721e-01
2	 3	 14	 unflanked	 rf	 3	 0.007500	 0.000000	 unflanked_rf_freq_3_amplitude_0.0075_rep_3_r_K.png	 K	 r	 l	 n.a.	 3.320957e-01
2	 3	 15	 unflanked	 rf	 12	 0.061700	 0.000000	 unflanked_rf_freq_12_amplitude_0.0617_rep_6_b_N.png	 N	 b	 t	 n.a.	 2.719964e-01
2	 3	 16	 unflanked	 rf	 5	 0.216700	 0.000000	 unflanked_rf_freq_5_amplitude_0.2167_rep_2_l_N.png	 N	 l	 l	 n.a.	 1.721470e-01
2	 3	 17	 unflanked	 rf	 3	 0.061700	 0.000000	 unflanked_rf_freq_3_amplitude_0.0617_rep_9_l_H.png	 H	 l	 l	 n.a.	 2.558888e-01
2	 3	 18	 unflanked	 rf	 8	 0.010000	 0.000000	 unflanked_rf_freq_8_amplitude_0.01_rep_8_b_D.png	 D	 b	 l	 n.a.	 3.845580e-01
2	 3	 19	 unflanked	 rf	 3	 0.113300	 0.000000	 unflanked_rf_freq_3_amplitude_0.1133_rep_8_b_D.png	 D	 b	 b	 n.a.	 3.150950e-01
2	 3	 20	 unflanked	 rf	 12	 0.113300	 0.000000	 unflanked_rf_freq_12_amplitude_0.1133_rep_6_b_D.png	 D	 b	 b	 n.a.	 5.495329e-01
2	 3	 21	 unflanked	 rf	 12	 0.113300	 0.000000	 unflanked_rf_freq_12_amplitude_0.1133_rep_7_r_K.png	 K	 r	 b	 n.a.	 6.016012e-01
2	 3	 22	 unflanked	 rf	 8	 0.165000	 0.000000	 unflanked_rf_freq_8_amplitude_0.165_rep_2_r_D.png	 D	 r	 r	 n.a.	 2.584749e-01
2	 3	 23	 unflanked	 rf	 5	 0.216700	 0.000000	 unflanked_rf_freq_5_amplitude_0.2167_rep_3_b_N.png	 N	 b	 b	 n.a.	 2.881151e-01
2	 3	 24	 unflanked	 rf	 4	 0.010000	 0.000000	 unflanked_rf_freq_4_amplitude_0.01_rep_4_b_D.png	 D	 b	 l	 n.a.	 3.812775e-01
2	 3	 25	 unflanked	 rf	 4	 0.061700	 0.000000	 unflanked_rf_freq_4_amplitude_0.0617_rep_4_b_H.png	 H	 b	 b	 n.a.	 2.060852e-01
2	 3	 26	 unflanked	 rf	 5	 0.007500	 0.000000	 unflanked_rf_freq_5_amplitude_0.0075_rep_7_l_N.png	 N	 l	 l	 n.a.	 4.327662e-01
2	 3	 27	 unflanked	 rf	 5	 0.113300	 0.000000	 unflanked_rf_freq_5_amplitude_0.1133_rep_3_t_K.png	 K	 t	 b	 n.a.	 6.555455e-01
2	 3	 28	 unflanked	 rf	 4	 0.165000	 0.000000	 unflanked_rf_freq_4_amplitude_0.165_rep_8_l_K.png	 K	 l	 l	 n.a.	 3.365974e-01
2	 3	 29	 unflanked	 rf	 3	 0.007500	 0.000000	 unflanked_rf_freq_3_amplitude_0.0075_rep_0_l_D.png	 D	 l	 b	 n.a.	 2.367311e-01
2	 3	 30	 unflanked	 rf	 12	 0.010000	 0.000000	 unflanked_rf_freq_12_amplitude_0.01_rep_8_b_D.png	 D	 b	 b	 n.a.	 5.448288e-01
2	 3	 31	 unflanked	 rf	 8	 0.010000	 0.000000	 unflanked_rf_freq_8_amplitude_0.01_rep_2_r_N.png	 N	 r	 l	 n.a.	 3.624013e-01
2	 3	 32	 unflanked	 rf	 2	 0.216700	 0.000000	 unflanked_rf_freq_2_amplitude_0.2167_rep_2_b_H.png	 H	 b	 b	 n.a.	 2.707511e-01
2	 3	 33	 unflanked	 rf	 5	 0.268300	 0.000000	 unflanked_rf_freq_5_amplitude_0.2683_rep_5_l_N.png	 N	 l	 l	 n.a.	 2.518115e-01
2	 3	 34	 unflanked	 rf	 2	 0.010000	 0.000000	 unflanked_rf_freq_2_amplitude_0.01_rep_3_t_N.png	 N	 t	 b	 n.a.	 5.188820e-01
2	 3	 35	 unflanked	 rf	 2	 0.165000	 0.000000	 unflanked_rf_freq_2_amplitude_0.165_rep_2_r_H.png	 H	 r	 l	 n.a.	 5.196572e-01
2	 3	 36	 unflanked	 rf	 5	 0.061700	 0.000000	 unflanked_rf_freq_5_amplitude_0.0617_rep_9_r_H.png	 H	 r	 t	 n.a.	 2.873391e-01
2	 3	 37	 unflanked	 rf	 5	 0.007500	 0.000000	 unflanked_rf_freq_5_amplitude_0.0075_rep_4_b_D.png	 D	 b	 l	 n.a.	 2.750896e-01
2	 3	 38	 unflanked	 rf	 4	 0.268300	 0.000000	 unflanked_rf_freq_4_amplitude_0.2683_rep_3_r_D.png	 D	 r	 r	 n.a.	 2.732881e-01
2	 3	 39	 unflanked	 rf	 12	 0.113300	 0.000000	 unflanked_rf_freq_12_amplitude_0.1133_rep_8_r_H.png	 H	 r	 r	 n.a.	 2.510508e-01
2	 3	 40	 unflanked	 rf	 4	 0.165000	 0.000000	 unflanked_rf_freq_4_amplitude_0.165_rep_0_r_K.png	 K	 r	 r	 n.a.	 6.105542e-01
2	 3	 41	 unflanked	 rf	 3	 0.268300	 0.000000	 unflanked_rf_freq_3_amplitude_0.2683_rep_7_r_K.png	 K	 r	 r	 n.a.	 3.478191e-01
2	 3	 42	 unflanked	 rf	 12	 0.061700	 0.000000	 unflanked_rf_freq_12_amplitude_0.0617_rep_0_r_N.png	 N	 r	 r	 n.a.	 3.264226e-01
2	 3	 43	 unflanked	 rf	 2	 0.007500	 0.000000	 unflanked_rf_freq_2_amplitude_0.0075_rep_9_t_H.png	 H	 t	 b	 n.a.	 4.031213e-01
2	 3	 44	 unflanked	 rf	 5	 0.010000	 0.000000	 unflanked_rf_freq_5_amplitude_0.01_rep_8_r_K.png	 K	 r	 b	 n.a.	 3.192196e-01
2	 3	 45	 unflanked	 rf	 5	 0.010000	 0.000000	 unflanked_rf_freq_5_amplitude_0.01_rep_7_l_N.png	 N	 l	 l	 n.a.	 3.780170e-01
2	 3	 46	 unflanked	 rf	 2	 0.113300	 0.000000	 unflanked_rf_freq_2_amplitude_0.1133_rep_2_r_D.png	 D	 r	 t	 n.a.	 7.075989e-01
2	 3	 47	 unflanked	 rf	 8	 0.165000	 0.000000	 unflanked_rf_freq_8_amplitude_0.165_rep_1_b_N.png	 N	 b	 b	 n.a.	 2.072954e-01
2	 3	 48	 unflanked	 rf	 4	 0.061700	 0.000000	 unflanked_rf_freq_4_amplitude_0.0617_rep_3_b_D.png	 D	 b	 b	 n.a.	 3.794067e-01
2	 3	 49	 unflanked	 rf	 2	 0.165000	 0.000000	 unflanked_rf_freq_2_amplitude_0.165_rep_7_r_K.png	 K	 r	 l	 n.a.	 6.054743e-01
2	 3	 50	 unflanked	 rf	 3	 0.268300	 0.000000	 unflanked_rf_freq_3_amplitude_0.2683_rep_4_b_N.png	 N	 b	 b	 n.a.	 2.060762e-01
2	 3	 51	 unflanked	 rf	 12	 0.268300	 0.000000	 unflanked_rf_freq_12_amplitude_0.2683_rep_6_l_K.png	 K	 l	 l	 n.a.	 2.875759e-01
2	 3	 52	 unflanked	 rf	 12	 0.061700	 0.000000	 unflanked_rf_freq_12_amplitude_0.0617_rep_9_b_K.png	 K	 b	 b	 n.a.	 2.599344e-01
2	 3	 53	 unflanked	 rf	 4	 0.113300	 0.000000	 unflanked_rf_freq_4_amplitude_0.1133_rep_8_l_H.png	 H	 l	 t	 n.a.	 5.997707e-01
2	 3	 54	 unflanked	 rf	 5	 0.165000	 0.000000	 unflanked_rf_freq_5_amplitude_0.165_rep_4_l_N.png	 N	 l	 l	 n.a.	 3.232720e-01
2	 3	 55	 unflanked	 rf	 2	 0.268300	 0.000000	 unflanked_rf_freq_2_amplitude_0.2683_rep_1_l_N.png	 N	 l	 l	 n.a.	 3.327413e-01
2	 3	 56	 unflanked	 rf	 2	 0.165000	 0.000000	 unflanked_rf_freq_2_amplitude_0.165_rep_0_l_D.png	 D	 l	 b	 n.a.	 6.362795e-01
2	 3	 57	 unflanked	 rf	 2	 0.216700	 0.000000	 unflanked_rf_freq_2_amplitude_0.2167_rep_8_t_D.png	 D	 t	 l	 n.a.	 3.639945e-01
2	 3	 58	 unflanked	 rf	 8	 0.216700	 0.000000	 unflanked_rf_freq_8_amplitude_0.2167_rep_3_l_D.png	 D	 l	 l	 n.a.	 3.441027e-01
2	 3	 59	 unflanked	 rf	 2	 0.007500	 0.000000	 unflanked_rf_freq_2_amplitude_0.0075_rep_0_t_N.png	 N	 t	 t	 n.a.	 4.176484e-01
2	 3	 60	 unflanked	 rf	 5	 0.165000	 0.000000	 unflanked_rf_freq_5_amplitude_0.165_rep_8_r_K.png	 K	 r	 r	 n.a.	 7.216561e-01
2	 3	 61	 unflanked	 rf	 3	 0.268300	 0.000000	 unflanked_rf_freq_3_amplitude_0.2683_rep_8_r_H.png	 H	 r	 r	 n.a.	 2.885639e-01
2	 3	 62	 unflanked	 rf	 4	 0.113300	 0.000000	 unflanked_rf_freq_4_amplitude_0.1133_rep_5_t_K.png	 K	 t	 l	 n.a.	 5.441262e-01
2	 3	 63	 unflanked	 rf	 3	 0.165000	 0.000000	 unflanked_rf_freq_3_amplitude_0.165_rep_3_b_H.png	 H	 b	 b	 n.a.	 2.594778e-01
2	 3	 64	 unflanked	 rf	 12	 0.216700	 0.000000	 unflanked_rf_freq_12_amplitude_0.2167_rep_3_r_N.png	 N	 r	 r	 n.a.	 2.300151e-01
2	 3	 65	 unflanked	 rf	 8	 0.216700	 0.000000	 unflanked_rf_freq_8_amplitude_0.2167_rep_8_t_D.png	 D	 t	 t	 n.a.	 2.690417e-01
2	 3	 66	 unflanked	 rf	 5	 0.165000	 0.000000	 unflanked_rf_freq_5_amplitude_0.165_rep_7_t_K.png	 K	 t	 t	 n.a.	 6.891593e-01
2	 3	 67	 unflanked	 rf	 2	 0.010000	 0.000000	 unflanked_rf_freq_2_amplitude_0.01_rep_6_t_H.png	 H	 t	 l	 n.a.	 4.936576e-01
2	 3	 68	 unflanked	 rf	 4	 0.268300	 0.000000	 unflanked_rf_freq_4_amplitude_0.2683_rep_2_l_N.png	 N	 l	 l	 n.a.	 3.037721e-01
2	 3	 69	 unflanked	 rf	 3	 0.007500	 0.000000	 unflanked_rf_freq_3_amplitude_0.0075_rep_2_r_N.png	 N	 r	 b	 n.a.	 5.906936e-01
2	 3	 70	 unflanked	 rf	 2	 0.268300	 0.000000	 unflanked_rf_freq_2_amplitude_0.2683_rep_0_r_H.png	 H	 r	 r	 n.a.	 2.740550e-01
2	 3	 71	 unflanked	 rf	 3	 0.165000	 0.000000	 unflanked_rf_freq_3_amplitude_0.165_rep_8_t_H.png	 H	 t	 l	 n.a.	 5.449737e-01
2	 3	 72	 unflanked	 rf	 12	 0.216700	 0.000000	 unflanked_rf_freq_12_amplitude_0.2167_rep_9_t_D.png	 D	 t	 t	 n.a.	 2.791808e-01
2	 3	 73	 unflanked	 rf	 8	 0.268300	 0.000000	 unflanked_rf_freq_8_amplitude_0.2683_rep_6_b_D.png	 D	 b	 b	 n.a.	 2.346695e-01
2	 3	 74	 unflanked	 rf	 3	 0.113300	 0.000000	 unflanked_rf_freq_3_amplitude_0.1133_rep_2_r_H.png	 H	 r	 r	 n.a.	 5.619449e-01
2	 3	 75	 unflanked	 rf	 12	 0.010000	 0.000000	 unflanked_rf_freq_12_amplitude_0.01_rep_9_t_K.png	 K	 t	 l	 n.a.	 4.348861e-01
2	 3	 76	 unflanked	 rf	 8	 0.061700	 0.000000	 unflanked_rf_freq_8_amplitude_0.0617_rep_2_r_K.png	 K	 r	 b	 n.a.	 1.865802e-01
2	 3	 77	 unflanked	 rf	 4	 0.061700	 0.000000	 unflanked_rf_freq_4_amplitude_0.0617_rep_9_b_D.png	 D	 b	 l	 n.a.	 3.542084e-01
2	 3	 78	 unflanked	 rf	 8	 0.007500	 0.000000	 unflanked_rf_freq_8_amplitude_0.0075_rep_2_r_N.png	 N	 r	 l	 n.a.	 4.074912e-01
2	 3	 79	 unflanked	 rf	 3	 0.113300	 0.000000	 unflanked_rf_freq_3_amplitude_0.1133_rep_4_l_D.png	 D	 l	 l	 n.a.	 4.332764e-01
2	 3	 80	 unflanked	 rf	 3	 0.216700	 0.000000	 unflanked_rf_freq_3_amplitude_0.2167_rep_0_r_D.png	 D	 r	 r	 n.a.	 3.891684e-01
2	 3	 81	 unflanked	 rf	 2	 0.216700	 0.000000	 unflanked_rf_freq_2_amplitude_0.2167_rep_7_t_H.png	 H	 t	 l	 n.a.	 5.300625e-01
2	 3	 82	 unflanked	 rf	 5	 0.113300	 0.000000	 unflanked_rf_freq_5_amplitude_0.1133_rep_7_l_D.png	 D	 l	 l	 n.a.	 3.433506e-01
2	 3	 83	 unflanked	 rf	 4	 0.113300	 0.000000	 unflanked_rf_freq_4_amplitude_0.1133_rep_0_t_K.png	 K	 t	 l	 n.a.	 7.092088e-01
2	 3	 84	 unflanked	 rf	 8	 0.010000	 0.000000	 unflanked_rf_freq_8_amplitude_0.01_rep_5_r_H.png	 H	 r	 b	 n.a.	 4.192396e-01
2	 3	 85	 unflanked	 rf	 8	 0.268300	 0.000000	 unflanked_rf_freq_8_amplitude_0.2683_rep_1_r_H.png	 H	 r	 r	 n.a.	 2.465787e-01
2	 3	 86	 unflanked	 rf	 8	 0.007500	 0.000000	 unflanked_rf_freq_8_amplitude_0.0075_rep_4_l_H.png	 H	 l	 t	 n.a.	 8.465150e-01
2	 3	 87	 unflanked	 rf	 3	 0.268300	 0.000000	 unflanked_rf_freq_3_amplitude_0.2683_rep_9_l_H.png	 H	 l	 l	 n.a.	 2.846217e-01
2	 3	 88	 unflanked	 rf	 8	 0.268300	 0.000000	 unflanked_rf_freq_8_amplitude_0.2683_rep_0_t_K.png	 K	 t	 t	 n.a.	 3.023205e-01
2	 3	 89	 unflanked	 rf	 5	 0.165000	 0.000000	 unflanked_rf_freq_5_amplitude_0.165_rep_2_r_D.png	 D	 r	 r	 n.a.	 2.999688e-01
2	 3	 90	 unflanked	 rf	 12	 0.061700	 0.000000	 unflanked_rf_freq_12_amplitude_0.0617_rep_7_b_D.png	 D	 b	 l	 n.a.	 6.492770e-01
2	 3	 91	 unflanked	 rf	 3	 0.010000	 0.000000	 unflanked_rf_freq_3_amplitude_0.01_rep_3_t_N.png	 N	 t	 b	 n.a.	 2.048042e-01
2	 3	 92	 unflanked	 rf	 12	 0.165000	 0.000000	 unflanked_rf_freq_12_amplitude_0.165_rep_5_t_N.png	 N	 t	 t	 n.a.	 3.198048e-01
2	 3	 93	 unflanked	 rf	 2	 0.216700	 0.000000	 unflanked_rf_freq_2_amplitude_0.2167_rep_5_r_H.png	 H	 r	 r	 n.a.	 2.868835e-01
2	 3	 94	 unflanked	 rf	 2	 0.268300	 0.000000	 unflanked_rf_freq_2_amplitude_0.2683_rep_5_l_K.png	 K	 l	 l	 n.a.	 3.328919e-01
2	 3	 95	 unflanked	 rf	 4	 0.216700	 0.000000	 unflanked_rf_freq_4_amplitude_0.2167_rep_1_r_D.png	 D	 r	 r	 n.a.	 2.242397e-01
2	 3	 96	 unflanked	 rf	 12	 0.165000	 0.000000	 unflanked_rf_freq_12_amplitude_0.165_rep_6_b_K.png	 K	 b	 b	 n.a.	 2.585765e-01
2	 3	 97	 unflanked	 rf	 3	 0.010000	 0.000000	 unflanked_rf_freq_3_amplitude_0.01_rep_5_t_K.png	 K	 t	 l	 n.a.	 4.635010e-01
2	 3	 98	 unflanked	 rf	 4	 0.268300	 0.000000	 unflanked_rf_freq_4_amplitude_0.2683_rep_9_t_N.png	 N	 t	 b	 n.a.	 4.237146e-01
2	 3	 99	 unflanked	 rf	 8	 0.113300	 0.000000	 unflanked_rf_freq_8_amplitude_0.1133_rep_2_r_D.png	 D	 r	 r	 n.a.	 2.993538e-01
2	 3	 100	 unflanked	 rf	 12	 0.268300	 0.000000	 unflanked_rf_freq_12_amplitude_0.2683_rep_7_r_H.png	 H	 r	 r	 n.a.	 2.579603e-01
2	 3	 101	 unflanked	 rf	 4	 0.165000	 0.000000	 unflanked_rf_freq_4_amplitude_0.165_rep_5_b_H.png	 H	 b	 b	 n.a.	 2.879720e-01
2	 3	 102	 unflanked	 rf	 4	 0.216700	 0.000000	 unflanked_rf_freq_4_amplitude_0.2167_rep_8_t_H.png	 H	 t	 t	 n.a.	 4.294210e-01
2	 3	 103	 unflanked	 rf	 2	 0.061700	 0.000000	 unflanked_rf_freq_2_amplitude_0.0617_rep_8_t_K.png	 K	 t	 b	 n.a.	 3.553904e-01
2	 3	 104	 unflanked	 rf	 12	 0.165000	 0.000000	 unflanked_rf_freq_12_amplitude_0.165_rep_0_b_N.png	 N	 b	 b	 n.a.	 2.192335e-01
2	 3	 105	 unflanked	 rf	 3	 0.165000	 0.000000	 unflanked_rf_freq_3_amplitude_0.165_rep_1_b_H.png	 H	 b	 b	 n.a.	 2.958567e-01
2	 3	 106	 unflanked	 rf	 3	 0.165000	 0.000000	 unflanked_rf_freq_3_amplitude_0.165_rep_2_l_D.png	 D	 l	 l	 n.a.	 6.970704e-01
2	 3	 107	 unflanked	 rf	 2	 0.216700	 0.000000	 unflanked_rf_freq_2_amplitude_0.2167_rep_0_b_N.png	 N	 b	 b	 n.a.	 3.745356e-01
2	 3	 108	 unflanked	 rf	 4	 0.268300	 0.000000	 unflanked_rf_freq_4_amplitude_0.2683_rep_4_l_N.png	 N	 l	 l	 n.a.	 3.082227e-01
2	 3	 109	 unflanked	 rf	 5	 0.061700	 0.000000	 unflanked_rf_freq_5_amplitude_0.0617_rep_8_t_N.png	 N	 t	 l	 n.a.	 5.047053e-01
2	 3	 110	 unflanked	 rf	 4	 0.007500	 0.000000	 unflanked_rf_freq_4_amplitude_0.0075_rep_3_b_K.png	 K	 b	 l	 n.a.	 9.502047e-01
2	 3	 111	 unflanked	 rf	 8	 0.216700	 0.000000	 unflanked_rf_freq_8_amplitude_0.2167_rep_5_t_N.png	 N	 t	 t	 n.a.	 3.688513e-01
2	 3	 112	 unflanked	 rf	 2	 0.165000	 0.000000	 unflanked_rf_freq_2_amplitude_0.165_rep_4_t_D.png	 D	 t	 t	 n.a.	 5.848057e-01
2	 3	 113	 unflanked	 rf	 2	 0.165000	 0.000000	 unflanked_rf_freq_2_amplitude_0.165_rep_1_r_H.png	 H	 r	 l	 n.a.	 5.340933e-01
2	 3	 114	 unflanked	 rf	 5	 0.268300	 0.000000	 unflanked_rf_freq_5_amplitude_0.2683_rep_9_l_K.png	 K	 l	 l	 n.a.	 3.310076e-01
2	 3	 115	 unflanked	 rf	 2	 0.268300	 0.000000	 unflanked_rf_freq_2_amplitude_0.2683_rep_9_t_H.png	 H	 t	 t	 n.a.	 4.008158e-01
2	 3	 116	 unflanked	 rf	 2	 0.216700	 0.000000	 unflanked_rf_freq_2_amplitude_0.2167_rep_9_b_D.png	 D	 b	 b	 n.a.	 3.051270e-01
2	 3	 117	 unflanked	 rf	 5	 0.010000	 0.000000	 unflanked_rf_freq_5_amplitude_0.01_rep_9_b_K.png	 K	 b	 t	 n.a.	 5.795654e-01
2	 3	 118	 unflanked	 rf	 2	 0.007500	 0.000000	 unflanked_rf_freq_2_amplitude_0.0075_rep_8_t_H.png	 H	 t	 b	 n.a.	 3.891318e-01
2	 3	 119	 unflanked	 rf	 4	 0.113300	 0.000000	 unflanked_rf_freq_4_amplitude_0.1133_rep_4_b_D.png	 D	 b	 l	 n.a.	 2.897331e-01
2	 3	 120	 unflanked	 rf	 3	 0.165000	 0.000000	 unflanked_rf_freq_3_amplitude_0.165_rep_0_b_H.png	 H	 b	 b	 n.a.	 2.855973e-01
2	 3	 121	 unflanked	 rf	 8	 0.216700	 0.000000	 unflanked_rf_freq_8_amplitude_0.2167_rep_9_r_N.png	 N	 r	 r	 n.a.	 2.397683e-01
2	 3	 122	 unflanked	 rf	 4	 0.216700	 0.000000	 unflanked_rf_freq_4_amplitude_0.2167_rep_6_b_D.png	 D	 b	 b	 n.a.	 3.151275e-01
2	 3	 123	 unflanked	 rf	 4	 0.007500	 0.000000	 unflanked_rf_freq_4_amplitude_0.0075_rep_6_t_H.png	 H	 t	 l	 n.a.	 5.653827e-01
2	 3	 124	 unflanked	 rf	 4	 0.061700	 0.000000	 unflanked_rf_freq_4_amplitude_0.0617_rep_6_b_N.png	 N	 b	 b	 n.a.	 2.942140e-01
2	 3	 125	 unflanked	 rf	 5	 0.113300	 0.000000	 unflanked_rf_freq_5_amplitude_0.1133_rep_5_r_K.png	 K	 r	 r	 n.a.	 4.209603e-01
2	 3	 126	 unflanked	 rf	 3	 0.216700	 0.000000	 unflanked_rf_freq_3_amplitude_0.2167_rep_7_b_K.png	 K	 b	 b	 n.a.	 2.823475e-01
2	 3	 127	 unflanked	 rf	 5	 0.061700	 0.000000	 unflanked_rf_freq_5_amplitude_0.0617_rep_4_r_H.png	 H	 r	 l	 n.a.	 4.409591e-01
2	 3	 128	 unflanked	 rf	 2	 0.165000	 0.000000	 unflanked_rf_freq_2_amplitude_0.165_rep_5_r_K.png	 K	 r	 r	 n.a.	 3.080905e-01
2	 3	 129	 unflanked	 rf	 2	 0.113300	 0.000000	 unflanked_rf_freq_2_amplitude_0.1133_rep_4_t_N.png	 N	 t	 t	 n.a.	 4.933428e-01
2	 3	 130	 unflanked	 rf	 8	 0.165000	 0.000000	 unflanked_rf_freq_8_amplitude_0.165_rep_3_t_N.png	 N	 t	 t	 n.a.	 3.406571e-01
2	 3	 131	 unflanked	 rf	 5	 0.268300	 0.000000	 unflanked_rf_freq_5_amplitude_0.2683_rep_8_b_N.png	 N	 b	 b	 n.a.	 2.256908e-01
2	 3	 132	 unflanked	 rf	 12	 0.010000	 0.000000	 unflanked_rf_freq_12_amplitude_0.01_rep_7_l_K.png	 K	 l	 l	 n.a.	 3.134633e-01
2	 3	 133	 unflanked	 rf	 5	 0.061700	 0.000000	 unflanked_rf_freq_5_amplitude_0.0617_rep_3_r_K.png	 K	 r	 b	 n.a.	 4.127955e-01
2	 3	 134	 unflanked	 rf	 3	 0.216700	 0.000000	 unflanked_rf_freq_3_amplitude_0.2167_rep_2_r_N.png	 N	 r	 t	 n.a.	 4.980997e-01
2	 3	 135	 unflanked	 rf	 5	 0.010000	 0.000000	 unflanked_rf_freq_5_amplitude_0.01_rep_4_r_K.png	 K	 r	 b	 n.a.	 3.414299e-01
2	 3	 136	 unflanked	 rf	 3	 0.061700	 0.000000	 unflanked_rf_freq_3_amplitude_0.0617_rep_0_l_H.png	 H	 l	 l	 n.a.	 3.005924e-01
2	 3	 137	 unflanked	 rf	 5	 0.165000	 0.000000	 unflanked_rf_freq_5_amplitude_0.165_rep_3_b_N.png	 N	 b	 b	 n.a.	 2.571100e-01
2	 3	 138	 unflanked	 rf	 5	 0.007500	 0.000000	 unflanked_rf_freq_5_amplitude_0.0075_rep_5_t_D.png	 D	 t	 t	 n.a.	 8.808320e-01
2	 3	 139	 unflanked	 rf	 3	 0.113300	 0.000000	 unflanked_rf_freq_3_amplitude_0.1133_rep_5_t_H.png	 H	 t	 l	 n.a.	 7.661975e-01
2	 3	 140	 unflanked	 rf	 8	 0.268300	 0.000000	 unflanked_rf_freq_8_amplitude_0.2683_rep_2_l_K.png	 K	 l	 l	 n.a.	 3.363578e-01
2	 3	 141	 unflanked	 rf	 12	 0.268300	 0.000000	 unflanked_rf_freq_12_amplitude_0.2683_rep_2_l_H.png	 H	 l	 l	 n.a.	 3.223738e-01
2	 3	 142	 unflanked	 rf	 5	 0.268300	 0.000000	 unflanked_rf_freq_5_amplitude_0.2683_rep_2_t_D.png	 D	 t	 t	 n.a.	 3.012402e-01
2	 3	 143	 unflanked	 rf	 3	 0.061700	 0.000000	 unflanked_rf_freq_3_amplitude_0.0617_rep_5_b_H.png	 H	 b	 l	 n.a.	 4.670276e-01
2	 3	 144	 unflanked	 rf	 12	 0.007500	 0.000000	 unflanked_rf_freq_12_amplitude_0.0075_rep_8_b_D.png	 D	 b	 b	 n.a.	 4.622013e-01
2	 3	 145	 unflanked	 rf	 3	 0.113300	 0.000000	 unflanked_rf_freq_3_amplitude_0.1133_rep_3_b_N.png	 N	 b	 b	 n.a.	 4.062889e-01
2	 3	 146	 unflanked	 rf	 4	 0.113300	 0.000000	 unflanked_rf_freq_4_amplitude_0.1133_rep_1_l_D.png	 D	 l	 l	 n.a.	 4.785845e-01
2	 3	 147	 unflanked	 rf	 3	 0.268300	 0.000000	 unflanked_rf_freq_3_amplitude_0.2683_rep_6_r_H.png	 H	 r	 r	 n.a.	 4.434101e-01
2	 3	 148	 unflanked	 rf	 12	 0.165000	 0.000000	 unflanked_rf_freq_12_amplitude_0.165_rep_9_l_K.png	 K	 l	 l	 n.a.	 2.620468e-01
2	 3	 149	 unflanked	 rf	 12	 0.113300	 0.000000	 unflanked_rf_freq_12_amplitude_0.1133_rep_2_b_D.png	 D	 b	 b	 n.a.	 2.108453e-01
2	 3	 150	 unflanked	 rf	 8	 0.010000	 0.000000	 unflanked_rf_freq_8_amplitude_0.01_rep_1_r_H.png	 H	 r	 b	 n.a.	 5.569052e-01
2	 3	 151	 unflanked	 rf	 3	 0.165000	 0.000000	 unflanked_rf_freq_3_amplitude_0.165_rep_9_l_N.png	 N	 l	 l	 n.a.	 5.625879e-01
2	 3	 152	 unflanked	 rf	 2	 0.113300	 0.000000	 unflanked_rf_freq_2_amplitude_0.1133_rep_9_t_D.png	 D	 t	 b	 n.a.	 7.063373e-01
2	 3	 153	 unflanked	 rf	 5	 0.216700	 0.000000	 unflanked_rf_freq_5_amplitude_0.2167_rep_8_b_H.png	 H	 b	 b	 n.a.	 2.998820e-01
2	 3	 154	 unflanked	 rf	 2	 0.061700	 0.000000	 unflanked_rf_freq_2_amplitude_0.0617_rep_7_t_H.png	 H	 t	 b	 n.a.	 4.991629e-01
2	 3	 155	 unflanked	 rf	 8	 0.216700	 0.000000	 unflanked_rf_freq_8_amplitude_0.2167_rep_6_r_K.png	 K	 r	 r	 n.a.	 2.566326e-01
2	 3	 156	 unflanked	 rf	 3	 0.010000	 0.000000	 unflanked_rf_freq_3_amplitude_0.01_rep_6_r_K.png	 K	 r	 l	 n.a.	 8.268582e-01
2	 3	 157	 unflanked	 rf	 4	 0.061700	 0.000000	 unflanked_rf_freq_4_amplitude_0.0617_rep_1_l_H.png	 H	 l	 b	 n.a.	 3.490064e-01
2	 3	 158	 unflanked	 rf	 4	 0.113300	 0.000000	 unflanked_rf_freq_4_amplitude_0.1133_rep_7_t_K.png	 K	 t	 t	 n.a.	 4.109352e-01
2	 3	 159	 unflanked	 rf	 2	 0.268300	 0.000000	 unflanked_rf_freq_2_amplitude_0.2683_rep_7_t_N.png	 N	 t	 t	 n.a.	 3.611900e-01
2	 3	 160	 unflanked	 rf	 12	 0.007500	 0.000000	 unflanked_rf_freq_12_amplitude_0.0075_rep_1_b_N.png	 N	 b	 t	 n.a.	 5.536278e-01
2	 3	 161	 unflanked	 rf	 12	 0.010000	 0.000000	 unflanked_rf_freq_12_amplitude_0.01_rep_2_r_N.png	 N	 r	 t	 n.a.	 7.161233e-01
2	 3	 162	 unflanked	 rf	 5	 0.216700	 0.000000	 unflanked_rf_freq_5_amplitude_0.2167_rep_6_r_H.png	 H	 r	 r	 n.a.	 2.906011e-01
2	 3	 163	 unflanked	 rf	 2	 0.113300	 0.000000	 unflanked_rf_freq_2_amplitude_0.1133_rep_8_l_N.png	 N	 l	 l	 n.a.	 6.260589e-01
2	 3	 164	 unflanked	 rf	 4	 0.113300	 0.000000	 unflanked_rf_freq_4_amplitude_0.1133_rep_3_b_H.png	 H	 b	 b	 n.a.	 3.437130e-01
2	 3	 165	 unflanked	 rf	 4	 0.007500	 0.000000	 unflanked_rf_freq_4_amplitude_0.0075_rep_9_b_N.png	 N	 b	 t	 n.a.	 5.859788e-01
2	 3	 166	 unflanked	 rf	 12	 0.216700	 0.000000	 unflanked_rf_freq_12_amplitude_0.2167_rep_8_b_N.png	 N	 b	 b	 n.a.	 2.415877e-01
2	 3	 167	 unflanked	 rf	 5	 0.113300	 0.000000	 unflanked_rf_freq_5_amplitude_0.1133_rep_9_r_D.png	 D	 r	 t	 n.a.	 5.379970e-01
2	 3	 168	 unflanked	 rf	 2	 0.216700	 0.000000	 unflanked_rf_freq_2_amplitude_0.2167_rep_3_r_D.png	 D	 r	 r	 n.a.	 3.311863e-01
2	 3	 169	 unflanked	 rf	 8	 0.113300	 0.000000	 unflanked_rf_freq_8_amplitude_0.1133_rep_3_r_H.png	 H	 r	 r	 n.a.	 2.824177e-01
2	 3	 170	 unflanked	 rf	 4	 0.113300	 0.000000	 unflanked_rf_freq_4_amplitude_0.1133_rep_6_t_N.png	 N	 t	 r	 n.a.	 5.544084e-01
2	 3	 171	 unflanked	 rf	 2	 0.113300	 0.000000	 unflanked_rf_freq_2_amplitude_0.1133_rep_5_l_N.png	 N	 l	 l	 n.a.	 4.814873e-01
2	 3	 172	 unflanked	 rf	 3	 0.010000	 0.000000	 unflanked_rf_freq_3_amplitude_0.01_rep_9_t_N.png	 N	 t	 b	 n.a.	 2.313361e-01
2	 3	 173	 unflanked	 rf	 8	 0.061700	 0.000000	 unflanked_rf_freq_8_amplitude_0.0617_rep_9_r_N.png	 N	 r	 b	 n.a.	 6.464140e-01
2	 3	 174	 unflanked	 rf	 2	 0.113300	 0.000000	 unflanked_rf_freq_2_amplitude_0.1133_rep_7_t_D.png	 D	 t	 t	 n.a.	 4.544117e-01
2	 3	 175	 unflanked	 rf	 5	 0.007500	 0.000000	 unflanked_rf_freq_5_amplitude_0.0075_rep_2_r_D.png	 D	 r	 b	 n.a.	 7.240840e-01
2	 3	 176	 unflanked	 rf	 3	 0.113300	 0.000000	 unflanked_rf_freq_3_amplitude_0.1133_rep_6_t_D.png	 D	 t	 t	 n.a.	 3.799078e-01
2	 3	 177	 unflanked	 rf	 8	 0.268300	 0.000000	 unflanked_rf_freq_8_amplitude_0.2683_rep_5_b_N.png	 N	 b	 b	 n.a.	 2.511902e-01
2	 3	 178	 unflanked	 rf	 2	 0.113300	 0.000000	 unflanked_rf_freq_2_amplitude_0.1133_rep_1_b_D.png	 D	 b	 b	 n.a.	 4.555715e-01
2	 3	 179	 unflanked	 rf	 8	 0.268300	 0.000000	 unflanked_rf_freq_8_amplitude_0.2683_rep_8_l_K.png	 K	 l	 l	 n.a.	 3.257465e-01
2	 3	 180	 unflanked	 rf	 5	 0.268300	 0.000000	 unflanked_rf_freq_5_amplitude_0.2683_rep_7_t_K.png	 K	 t	 t	 n.a.	 3.475237e-01
2	 3	 181	 unflanked	 rf	 8	 0.007500	 0.000000	 unflanked_rf_freq_8_amplitude_0.0075_rep_7_b_D.png	 D	 b	 t	 n.a.	 6.779062e-01
2	 3	 182	 unflanked	 rf	 2	 0.165000	 0.000000	 unflanked_rf_freq_2_amplitude_0.165_rep_6_l_K.png	 K	 l	 l	 n.a.	 4.880211e-01
2	 3	 183	 unflanked	 rf	 12	 0.007500	 0.000000	 unflanked_rf_freq_12_amplitude_0.0075_rep_7_l_H.png	 H	 l	 b	 n.a.	 3.052593e-01
2	 3	 184	 unflanked	 rf	 2	 0.165000	 0.000000	 unflanked_rf_freq_2_amplitude_0.165_rep_3_b_H.png	 H	 b	 b	 n.a.	 3.182901e-01
2	 3	 185	 unflanked	 rf	 3	 0.007500	 0.000000	 unflanked_rf_freq_3_amplitude_0.0075_rep_5_t_N.png	 N	 t	 l	 n.a.	 4.500489e-01
2	 3	 186	 unflanked	 rf	 4	 0.007500	 0.000000	 unflanked_rf_freq_4_amplitude_0.0075_rep_1_b_D.png	 D	 b	 t	 n.a.	 6.304297e-01
2	 3	 187	 unflanked	 rf	 8	 0.165000	 0.000000	 unflanked_rf_freq_8_amplitude_0.165_rep_8_r_D.png	 D	 r	 r	 n.a.	 2.751286e-01
2	 3	 188	 unflanked	 rf	 8	 0.010000	 0.000000	 unflanked_rf_freq_8_amplitude_0.01_rep_6_t_H.png	 H	 t	 t	 n.a.	 6.685300e-01
2	 3	 189	 unflanked	 rf	 12	 0.216700	 0.000000	 unflanked_rf_freq_12_amplitude_0.2167_rep_6_b_D.png	 D	 b	 b	 n.a.	 2.907208e-01
2	 3	 190	 unflanked	 rf	 4	 0.113300	 0.000000	 unflanked_rf_freq_4_amplitude_0.1133_rep_9_l_D.png	 D	 l	 l	 n.a.	 3.910342e-01
2	 3	 191	 unflanked	 rf	 3	 0.007500	 0.000000	 unflanked_rf_freq_3_amplitude_0.0075_rep_1_t_D.png	 D	 t	 l	 n.a.	 6.813192e-01
2	 3	 192	 unflanked	 rf	 12	 0.113300	 0.000000	 unflanked_rf_freq_12_amplitude_0.1133_rep_5_t_H.png	 H	 t	 t	 n.a.	 4.184724e-01
2	 3	 193	 unflanked	 rf	 12	 0.113300	 0.000000	 unflanked_rf_freq_12_amplitude_0.1133_rep_4_b_D.png	 D	 b	 b	 n.a.	 2.898523e-01
2	 3	 194	 unflanked	 rf	 3	 0.216700	 0.000000	 unflanked_rf_freq_3_amplitude_0.2167_rep_6_l_D.png	 D	 l	 l	 n.a.	 3.395597e-01
2	 3	 195	 unflanked	 rf	 2	 0.010000	 0.000000	 unflanked_rf_freq_2_amplitude_0.01_rep_9_t_N.png	 N	 t	 r	 n.a.	 6.723618e-01
2	 3	 196	 unflanked	 rf	 3	 0.061700	 0.000000	 unflanked_rf_freq_3_amplitude_0.0617_rep_7_b_K.png	 K	 b	 t	 n.a.	 5.779243e-01
2	 3	 197	 unflanked	 rf	 5	 0.113300	 0.000000	 unflanked_rf_freq_5_amplitude_0.1133_rep_8_r_K.png	 K	 r	 l	 n.a.	 4.816093e-01
2	 3	 198	 unflanked	 rf	 2	 0.113300	 0.000000	 unflanked_rf_freq_2_amplitude_0.1133_rep_3_b_K.png	 K	 b	 b	 n.a.	 2.825530e-01
2	 3	 199	 unflanked	 rf	 4	 0.165000	 0.000000	 unflanked_rf_freq_4_amplitude_0.165_rep_6_b_D.png	 D	 b	 b	 n.a.	 2.666620e-01
2	 3	 200	 unflanked	 rf	 4	 0.010000	 0.000000	 unflanked_rf_freq_4_amplitude_0.01_rep_5_r_K.png	 K	 r	 b	 n.a.	 7.120452e-01
2	 3	 201	 unflanked	 rf	 5	 0.216700	 0.000000	 unflanked_rf_freq_5_amplitude_0.2167_rep_5_t_N.png	 N	 t	 t	 n.a.	 3.449864e-01
2	 3	 202	 unflanked	 rf	 2	 0.061700	 0.000000	 unflanked_rf_freq_2_amplitude_0.0617_rep_2_r_D.png	 D	 r	 b	 n.a.	 9.827562e-01
2	 3	 203	 unflanked	 rf	 5	 0.010000	 0.000000	 unflanked_rf_freq_5_amplitude_0.01_rep_5_b_D.png	 D	 b	 l	 n.a.	 5.692498e-01
2	 3	 204	 unflanked	 rf	 12	 0.061700	 0.000000	 unflanked_rf_freq_12_amplitude_0.0617_rep_8_l_K.png	 K	 l	 l	 n.a.	 5.634092e-01
2	 3	 205	 unflanked	 rf	 12	 0.216700	 0.000000	 unflanked_rf_freq_12_amplitude_0.2167_rep_0_b_N.png	 N	 b	 b	 n.a.	 2.449528e-01
2	 3	 206	 unflanked	 rf	 12	 0.061700	 0.000000	 unflanked_rf_freq_12_amplitude_0.0617_rep_1_t_N.png	 N	 t	 t	 n.a.	 5.483952e-01
2	 3	 207	 unflanked	 rf	 12	 0.007500	 0.000000	 unflanked_rf_freq_12_amplitude_0.0075_rep_4_t_K.png	 K	 t	 t	 n.a.	 5.881415e-01
2	 3	 208	 unflanked	 rf	 8	 0.268300	 0.000000	 unflanked_rf_freq_8_amplitude_0.2683_rep_4_r_H.png	 H	 r	 r	 n.a.	 2.762836e-01
2	 3	 209	 unflanked	 rf	 5	 0.165000	 0.000000	 unflanked_rf_freq_5_amplitude_0.165_rep_9_t_H.png	 H	 t	 t	 n.a.	 3.746279e-01
2	 3	 210	 unflanked	 rf	 8	 0.216700	 0.000000	 unflanked_rf_freq_8_amplitude_0.2167_rep_4_l_K.png	 K	 l	 l	 n.a.	 3.153435e-01
2	 3	 211	 unflanked	 rf	 8	 0.113300	 0.000000	 unflanked_rf_freq_8_amplitude_0.1133_rep_1_t_H.png	 H	 t	 t	 n.a.	 4.032786e-01
2	 3	 212	 unflanked	 rf	 2	 0.268300	 0.000000	 unflanked_rf_freq_2_amplitude_0.2683_rep_6_t_D.png	 D	 t	 t	 n.a.	 4.335180e-01
2	 3	 213	 unflanked	 rf	 12	 0.165000	 0.000000	 unflanked_rf_freq_12_amplitude_0.165_rep_4_b_H.png	 H	 b	 b	 n.a.	 2.604416e-01
2	 3	 214	 unflanked	 rf	 2	 0.165000	 0.000000	 unflanked_rf_freq_2_amplitude_0.165_rep_8_r_K.png	 K	 r	 t	 n.a.	 7.849458e-01
2	 3	 215	 unflanked	 rf	 4	 0.165000	 0.000000	 unflanked_rf_freq_4_amplitude_0.165_rep_9_t_N.png	 N	 t	 l	 n.a.	 6.451607e-01
2	 3	 216	 unflanked	 rf	 8	 0.061700	 0.000000	 unflanked_rf_freq_8_amplitude_0.0617_rep_3_l_D.png	 D	 l	 l	 n.a.	 4.183143e-01
2	 3	 217	 unflanked	 rf	 8	 0.007500	 0.000000	 unflanked_rf_freq_8_amplitude_0.0075_rep_9_r_D.png	 D	 r	 b	 n.a.	 4.993098e-01
2	 3	 218	 unflanked	 rf	 3	 0.216700	 0.000000	 unflanked_rf_freq_3_amplitude_0.2167_rep_8_l_K.png	 K	 l	 l	 n.a.	 2.990328e-01
2	 3	 219	 unflanked	 rf	 3	 0.268300	 0.000000	 unflanked_rf_freq_3_amplitude_0.2683_rep_5_b_D.png	 D	 b	 b	 n.a.	 2.638808e-01
2	 3	 220	 unflanked	 rf	 2	 0.007500	 0.000000	 unflanked_rf_freq_2_amplitude_0.0075_rep_7_r_H.png	 H	 r	 t	 n.a.	 5.610709e-01
2	 3	 221	 unflanked	 rf	 4	 0.216700	 0.000000	 unflanked_rf_freq_4_amplitude_0.2167_rep_5_l_N.png	 N	 l	 l	 n.a.	 3.042714e-01
2	 3	 222	 unflanked	 rf	 2	 0.010000	 0.000000	 unflanked_rf_freq_2_amplitude_0.01_rep_0_r_H.png	 H	 r	 l	 n.a.	 5.584689e-01
2	 3	 223	 unflanked	 rf	 5	 0.007500	 0.000000	 unflanked_rf_freq_5_amplitude_0.0075_rep_6_r_K.png	 K	 r	 b	 n.a.	 4.164505e-01
2	 3	 224	 unflanked	 rf	 2	 0.010000	 0.000000	 unflanked_rf_freq_2_amplitude_0.01_rep_5_l_H.png	 H	 l	 t	 n.a.	 6.123105e-01
2	 3	 225	 unflanked	 rf	 8	 0.061700	 0.000000	 unflanked_rf_freq_8_amplitude_0.0617_rep_4_r_N.png	 N	 r	 l	 n.a.	 4.362947e-01
2	 3	 226	 unflanked	 rf	 2	 0.268300	 0.000000	 unflanked_rf_freq_2_amplitude_0.2683_rep_8_r_H.png	 H	 r	 l	 n.a.	 5.187600e-01
2	 3	 227	 unflanked	 rf	 5	 0.061700	 0.000000	 unflanked_rf_freq_5_amplitude_0.0617_rep_0_r_H.png	 H	 r	 r	 n.a.	 6.622402e-01
2	 3	 228	 unflanked	 rf	 5	 0.010000	 0.000000	 unflanked_rf_freq_5_amplitude_0.01_rep_0_r_N.png	 N	 r	 t	 n.a.	 4.723018e-01
2	 3	 229	 unflanked	 rf	 8	 0.165000	 0.000000	 unflanked_rf_freq_8_amplitude_0.165_rep_5_l_N.png	 N	 l	 l	 n.a.	 3.609674e-01
2	 3	 230	 unflanked	 rf	 4	 0.007500	 0.000000	 unflanked_rf_freq_4_amplitude_0.0075_rep_5_t_N.png	 N	 t	 b	 n.a.	 4.406744e-01
2	 3	 231	 unflanked	 rf	 5	 0.216700	 0.000000	 unflanked_rf_freq_5_amplitude_0.2167_rep_9_t_K.png	 K	 t	 t	 n.a.	 3.843738e-01
2	 3	 232	 unflanked	 rf	 3	 0.113300	 0.000000	 unflanked_rf_freq_3_amplitude_0.1133_rep_0_t_N.png	 N	 t	 r	 n.a.	 4.776213e-01
2	 3	 233	 unflanked	 rf	 2	 0.061700	 0.000000	 unflanked_rf_freq_2_amplitude_0.0617_rep_4_r_K.png	 K	 r	 l	 n.a.	 2.990057e-01
2	 3	 234	 unflanked	 rf	 8	 0.113300	 0.000000	 unflanked_rf_freq_8_amplitude_0.1133_rep_9_r_H.png	 H	 r	 r	 n.a.	 3.303193e-01
2	 3	 235	 unflanked	 rf	 12	 0.165000	 0.000000	 unflanked_rf_freq_12_amplitude_0.165_rep_7_b_K.png	 K	 b	 b	 n.a.	 3.023352e-01
2	 3	 236	 unflanked	 rf	 12	 0.010000	 0.000000	 unflanked_rf_freq_12_amplitude_0.01_rep_6_r_K.png	 K	 r	 t	 n.a.	 5.875652e-01
2	 3	 237	 unflanked	 rf	 8	 0.165000	 0.000000	 unflanked_rf_freq_8_amplitude_0.165_rep_7_b_D.png	 D	 b	 b	 n.a.	 2.886287e-01
2	 3	 238	 unflanked	 rf	 8	 0.165000	 0.000000	 unflanked_rf_freq_8_amplitude_0.165_rep_9_b_D.png	 D	 b	 b	 n.a.	 4.934743e-01
2	 3	 239	 unflanked	 rf	 12	 0.010000	 0.000000	 unflanked_rf_freq_12_amplitude_0.01_rep_5_t_H.png	 H	 t	 l	 n.a.	 5.176864e-01
2	 3	 240	 unflanked	 rf	 3	 0.216700	 0.000000	 unflanked_rf_freq_3_amplitude_0.2167_rep_5_b_D.png	 D	 b	 b	 n.a.	 3.205815e-01
2	 3	 241	 unflanked	 rf	 3	 0.113300	 0.000000	 unflanked_rf_freq_3_amplitude_0.1133_rep_7_b_D.png	 D	 b	 b	 n.a.	 4.361916e-01
2	 3	 242	 unflanked	 rf	 5	 0.216700	 0.000000	 unflanked_rf_freq_5_amplitude_0.2167_rep_1_r_N.png	 N	 r	 r	 n.a.	 3.492842e-01
2	 3	 243	 unflanked	 rf	 3	 0.010000	 0.000000	 unflanked_rf_freq_3_amplitude_0.01_rep_2_r_H.png	 H	 r	 l	 n.a.	 5.560789e-01
2	 3	 244	 unflanked	 rf	 3	 0.113300	 0.000000	 unflanked_rf_freq_3_amplitude_0.1133_rep_9_l_K.png	 K	 l	 l	 n.a.	 6.923001e-01
2	 3	 245	 unflanked	 rf	 2	 0.061700	 0.000000	 unflanked_rf_freq_2_amplitude_0.0617_rep_5_r_N.png	 N	 r	 b	 n.a.	 3.611534e-01
2	 3	 246	 unflanked	 rf	 5	 0.007500	 0.000000	 unflanked_rf_freq_5_amplitude_0.0075_rep_9_t_K.png	 K	 t	 l	 n.a.	 6.559397e-01
2	 3	 247	 unflanked	 rf	 8	 0.113300	 0.000000	 unflanked_rf_freq_8_amplitude_0.1133_rep_5_l_H.png	 H	 l	 l	 n.a.	 3.716794e-01
2	 3	 248	 unflanked	 rf	 8	 0.061700	 0.000000	 unflanked_rf_freq_8_amplitude_0.0617_rep_1_l_H.png	 H	 l	 l	 n.a.	 3.798242e-01
2	 3	 249	 unflanked	 rf	 2	 0.007500	 0.000000	 unflanked_rf_freq_2_amplitude_0.0075_rep_1_t_N.png	 N	 t	 r	 n.a.	 5.330571e-01
2	 3	 250	 unflanked	 rf	 4	 0.165000	 0.000000	 unflanked_rf_freq_4_amplitude_0.165_rep_7_b_D.png	 D	 b	 b	 n.a.	 3.135559e-01
2	 3	 251	 unflanked	 rf	 5	 0.165000	 0.000000	 unflanked_rf_freq_5_amplitude_0.165_rep_6_t_D.png	 D	 t	 t	 n.a.	 3.090391e-01
2	 3	 252	 unflanked	 rf	 4	 0.165000	 0.000000	 unflanked_rf_freq_4_amplitude_0.165_rep_3_b_D.png	 D	 b	 b	 n.a.	 2.411800e-01
2	 3	 253	 unflanked	 rf	 5	 0.007500	 0.000000	 unflanked_rf_freq_5_amplitude_0.0075_rep_0_b_N.png	 N	 b	 t	 n.a.	 4.176960e-01
2	 3	 254	 unflanked	 rf	 3	 0.268300	 0.000000	 unflanked_rf_freq_3_amplitude_0.2683_rep_1_b_H.png	 H	 b	 b	 n.a.	 2.597094e-01
2	 3	 255	 unflanked	 rf	 12	 0.216700	 0.000000	 unflanked_rf_freq_12_amplitude_0.2167_rep_5_l_K.png	 K	 l	 l	 n.a.	 3.221228e-01
2	 3	 256	 unflanked	 rf	 2	 0.061700	 0.000000	 unflanked_rf_freq_2_amplitude_0.0617_rep_9_b_H.png	 H	 b	 l	 n.a.	 5.067867e-01
2	 3	 257	 unflanked	 rf	 8	 0.165000	 0.000000	 unflanked_rf_freq_8_amplitude_0.165_rep_4_r_H.png	 H	 r	 r	 n.a.	 2.772467e-01
2	 3	 258	 unflanked	 rf	 4	 0.061700	 0.000000	 unflanked_rf_freq_4_amplitude_0.0617_rep_2_l_D.png	 D	 l	 l	 n.a.	 4.371128e-01
2	 3	 259	 unflanked	 rf	 4	 0.010000	 0.000000	 unflanked_rf_freq_4_amplitude_0.01_rep_6_b_N.png	 N	 b	 l	 n.a.	 6.392368e-01
2	 3	 260	 unflanked	 rf	 5	 0.113300	 0.000000	 unflanked_rf_freq_5_amplitude_0.1133_rep_4_l_K.png	 K	 l	 l	 n.a.	 3.641486e-01
2	 3	 261	 unflanked	 rf	 5	 0.113300	 0.000000	 unflanked_rf_freq_5_amplitude_0.1133_rep_1_l_K.png	 K	 l	 r	 n.a.	 5.486458e-01
2	 3	 262	 unflanked	 rf	 2	 0.010000	 0.000000	 unflanked_rf_freq_2_amplitude_0.01_rep_1_l_N.png	 N	 l	 b	 n.a.	 3.422935e-01
2	 3	 263	 unflanked	 rf	 5	 0.268300	 0.000000	 unflanked_rf_freq_5_amplitude_0.2683_rep_6_l_D.png	 D	 l	 l	 n.a.	 3.870290e-01
2	 3	 264	 unflanked	 rf	 2	 0.010000	 0.000000	 unflanked_rf_freq_2_amplitude_0.01_rep_8_b_H.png	 H	 b	 l	 n.a.	 5.245781e-01
2	 3	 265	 unflanked	 rf	 8	 0.010000	 0.000000	 unflanked_rf_freq_8_amplitude_0.01_rep_3_l_N.png	 N	 l	 b	 n.a.	 3.250667e-01
2	 3	 266	 unflanked	 rf	 3	 0.061700	 0.000000	 unflanked_rf_freq_3_amplitude_0.0617_rep_4_l_N.png	 N	 l	 t	 n.a.	 3.002841e-01
2	 3	 267	 unflanked	 rf	 12	 0.113300	 0.000000	 unflanked_rf_freq_12_amplitude_0.1133_rep_9_l_K.png	 K	 l	 l	 n.a.	 4.282149e-01
2	 3	 268	 unflanked	 rf	 4	 0.061700	 0.000000	 unflanked_rf_freq_4_amplitude_0.0617_rep_7_r_D.png	 D	 r	 t	 n.a.	 4.238322e-01
2	 3	 269	 unflanked	 rf	 12	 0.007500	 0.000000	 unflanked_rf_freq_12_amplitude_0.0075_rep_9_l_D.png	 D	 l	 t	 n.a.	 6.588638e-01
2	 3	 270	 unflanked	 rf	 2	 0.268300	 0.000000	 unflanked_rf_freq_2_amplitude_0.2683_rep_2_t_H.png	 H	 t	 l	 n.a.	 8.577263e-01
2	 3	 271	 unflanked	 rf	 4	 0.268300	 0.000000	 unflanked_rf_freq_4_amplitude_0.2683_rep_1_l_N.png	 N	 l	 l	 n.a.	 5.388521e-01
2	 3	 272	 unflanked	 rf	 12	 0.268300	 0.000000	 unflanked_rf_freq_12_amplitude_0.2683_rep_9_l_K.png	 K	 l	 l	 n.a.	 5.505780e-01
2	 3	 273	 unflanked	 rf	 3	 0.061700	 0.000000	 unflanked_rf_freq_3_amplitude_0.0617_rep_1_t_K.png	 K	 t	 r	 n.a.	 3.159161e-01
2	 3	 274	 unflanked	 rf	 4	 0.165000	 0.000000	 unflanked_rf_freq_4_amplitude_0.165_rep_1_b_H.png	 H	 b	 b	 n.a.	 2.932608e-01
2	 3	 275	 unflanked	 rf	 12	 0.007500	 0.000000	 unflanked_rf_freq_12_amplitude_0.0075_rep_0_t_K.png	 K	 t	 t	 n.a.	 3.554886e-01
2	 3	 276	 unflanked	 rf	 4	 0.268300	 0.000000	 unflanked_rf_freq_4_amplitude_0.2683_rep_0_r_K.png	 K	 r	 r	 n.a.	 3.292774e-01
2	 3	 277	 unflanked	 rf	 12	 0.268300	 0.000000	 unflanked_rf_freq_12_amplitude_0.2683_rep_1_b_N.png	 N	 b	 b	 n.a.	 2.298989e-01
2	 3	 278	 unflanked	 rf	 3	 0.216700	 0.000000	 unflanked_rf_freq_3_amplitude_0.2167_rep_4_t_N.png	 N	 t	 t	 n.a.	 4.342475e-01
2	 3	 279	 unflanked	 rf	 12	 0.268300	 0.000000	 unflanked_rf_freq_12_amplitude_0.2683_rep_0_b_K.png	 K	 b	 b	 n.a.	 2.548505e-01
2	 3	 280	 unflanked	 rf	 5	 0.061700	 0.000000	 unflanked_rf_freq_5_amplitude_0.0617_rep_7_l_D.png	 D	 l	 t	 n.a.	 5.760333e-01
2	 3	 281	 unflanked	 rf	 12	 0.216700	 0.000000	 unflanked_rf_freq_12_amplitude_0.2167_rep_1_l_D.png	 D	 l	 l	 n.a.	 2.956810e-01
2	 3	 282	 unflanked	 rf	 4	 0.216700	 0.000000	 unflanked_rf_freq_4_amplitude_0.2167_rep_0_b_N.png	 N	 b	 b	 n.a.	 2.536652e-01
2	 3	 283	 unflanked	 rf	 12	 0.061700	 0.000000	 unflanked_rf_freq_12_amplitude_0.0617_rep_4_t_K.png	 K	 t	 t	 n.a.	 3.159729e-01
2	 3	 284	 unflanked	 rf	 3	 0.010000	 0.000000	 unflanked_rf_freq_3_amplitude_0.01_rep_1_r_N.png	 N	 r	 l	 n.a.	 3.727501e-01
2	 3	 285	 unflanked	 rf	 3	 0.268300	 0.000000	 unflanked_rf_freq_3_amplitude_0.2683_rep_3_t_H.png	 H	 t	 t	 n.a.	 3.210975e-01
2	 3	 286	 unflanked	 rf	 4	 0.010000	 0.000000	 unflanked_rf_freq_4_amplitude_0.01_rep_9_t_K.png	 K	 t	 t	 n.a.	 2.804162e-01
2	 3	 287	 unflanked	 rf	 5	 0.268300	 0.000000	 unflanked_rf_freq_5_amplitude_0.2683_rep_3_r_K.png	 K	 r	 r	 n.a.	 2.415745e-01
2	 3	 288	 unflanked	 rf	 2	 0.061700	 0.000000	 unflanked_rf_freq_2_amplitude_0.0617_rep_1_r_N.png	 N	 r	 b	 n.a.	 4.232525e-01
2	 3	 289	 unflanked	 rf	 2	 0.010000	 0.000000	 unflanked_rf_freq_2_amplitude_0.01_rep_4_t_D.png	 D	 t	 l	 n.a.	 3.581880e-01
2	 3	 290	 unflanked	 rf	 8	 0.216700	 0.000000	 unflanked_rf_freq_8_amplitude_0.2167_rep_7_l_N.png	 N	 l	 l	 n.a.	 3.348230e-01
2	 3	 291	 unflanked	 rf	 4	 0.010000	 0.000000	 unflanked_rf_freq_4_amplitude_0.01_rep_1_r_D.png	 D	 r	 l	 n.a.	 5.254256e-01
2	 3	 292	 unflanked	 rf	 5	 0.165000	 0.000000	 unflanked_rf_freq_5_amplitude_0.165_rep_5_r_N.png	 N	 r	 r	 n.a.	 2.782631e-01
2	 3	 293	 unflanked	 rf	 4	 0.007500	 0.000000	 unflanked_rf_freq_4_amplitude_0.0075_rep_0_b_H.png	 H	 b	 t	 n.a.	 4.344125e-01
2	 3	 294	 unflanked	 rf	 5	 0.165000	 0.000000	 unflanked_rf_freq_5_amplitude_0.165_rep_1_b_N.png	 N	 b	 b	 n.a.	 3.294351e-01
2	 3	 295	 unflanked	 rf	 8	 0.061700	 0.000000	 unflanked_rf_freq_8_amplitude_0.0617_rep_8_b_N.png	 N	 b	 b	 n.a.	 5.425297e-01
2	 3	 296	 unflanked	 rf	 3	 0.007500	 0.000000	 unflanked_rf_freq_3_amplitude_0.0075_rep_9_r_N.png	 N	 r	 t	 n.a.	 5.998579e-01
2	 3	 297	 unflanked	 rf	 2	 0.061700	 0.000000	 unflanked_rf_freq_2_amplitude_0.0617_rep_6_l_D.png	 D	 l	 b	 n.a.	 2.907307e-01
2	 3	 298	 unflanked	 rf	 4	 0.010000	 0.000000	 unflanked_rf_freq_4_amplitude_0.01_rep_7_r_K.png	 K	 r	 l	 n.a.	 4.326358e-01
2	 3	 299	 unflanked	 rf	 4	 0.007500	 0.000000	 unflanked_rf_freq_4_amplitude_0.0075_rep_2_r_N.png	 N	 r	 l	 n.a.	 5.309770e-01
2	 3	 300	 unflanked	 rf	 3	 0.216700	 0.000000	 unflanked_rf_freq_3_amplitude_0.2167_rep_3_r_K.png	 K	 r	 r	 n.a.	 4.903122e-01
2	 3	 301	 unflanked	 rf	 4	 0.268300	 0.000000	 unflanked_rf_freq_4_amplitude_0.2683_rep_7_l_D.png	 D	 l	 l	 n.a.	 4.109856e-01
2	 3	 302	 unflanked	 rf	 12	 0.010000	 0.000000	 unflanked_rf_freq_12_amplitude_0.01_rep_1_r_D.png	 D	 r	 b	 n.a.	 5.969878e-01
2	 3	 303	 unflanked	 rf	 8	 0.113300	 0.000000	 unflanked_rf_freq_8_amplitude_0.1133_rep_4_b_N.png	 N	 b	 l	 n.a.	 4.023233e-01
2	 3	 304	 unflanked	 rf	 3	 0.010000	 0.000000	 unflanked_rf_freq_3_amplitude_0.01_rep_0_t_D.png	 D	 t	 r	 n.a.	 4.799463e-01
2	 3	 305	 unflanked	 rf	 2	 0.165000	 0.000000	 unflanked_rf_freq_2_amplitude_0.165_rep_9_l_K.png	 K	 l	 l	 n.a.	 4.417058e-01
2	 3	 306	 unflanked	 rf	 5	 0.061700	 0.000000	 unflanked_rf_freq_5_amplitude_0.0617_rep_2_t_D.png	 D	 t	 t	 n.a.	 3.718043e-01
2	 3	 307	 unflanked	 rf	 5	 0.268300	 0.000000	 unflanked_rf_freq_5_amplitude_0.2683_rep_0_r_N.png	 N	 r	 r	 n.a.	 3.195867e-01
2	 3	 308	 unflanked	 rf	 8	 0.216700	 0.000000	 unflanked_rf_freq_8_amplitude_0.2167_rep_0_t_K.png	 K	 t	 t	 n.a.	 4.207566e-01
2	 3	 309	 unflanked	 rf	 12	 0.216700	 0.000000	 unflanked_rf_freq_12_amplitude_0.2167_rep_4_t_H.png	 H	 t	 t	 n.a.	 3.993125e-01
2	 3	 310	 unflanked	 rf	 3	 0.113300	 0.000000	 unflanked_rf_freq_3_amplitude_0.1133_rep_1_t_N.png	 N	 t	 t	 n.a.	 5.698968e-01
2	 3	 311	 unflanked	 rf	 4	 0.010000	 0.000000	 unflanked_rf_freq_4_amplitude_0.01_rep_8_t_N.png	 N	 t	 b	 n.a.	 5.391452e-01
2	 3	 312	 unflanked	 rf	 4	 0.268300	 0.000000	 unflanked_rf_freq_4_amplitude_0.2683_rep_8_t_H.png	 H	 t	 t	 n.a.	 3.209691e-01
2	 3	 313	 unflanked	 rf	 5	 0.007500	 0.000000	 unflanked_rf_freq_5_amplitude_0.0075_rep_8_r_K.png	 K	 r	 t	 n.a.	 7.182868e-01
2	 3	 314	 unflanked	 rf	 4	 0.061700	 0.000000	 unflanked_rf_freq_4_amplitude_0.0617_rep_0_r_D.png	 D	 r	 l	 n.a.	 3.996161e-01
2	 3	 315	 unflanked	 rf	 12	 0.113300	 0.000000	 unflanked_rf_freq_12_amplitude_0.1133_rep_1_b_D.png	 D	 b	 b	 n.a.	 4.774744e-01
2	 3	 316	 unflanked	 rf	 3	 0.165000	 0.000000	 unflanked_rf_freq_3_amplitude_0.165_rep_7_r_D.png	 D	 r	 r	 n.a.	 2.711914e-01
2	 3	 317	 unflanked	 rf	 8	 0.007500	 0.000000	 unflanked_rf_freq_8_amplitude_0.0075_rep_8_t_N.png	 N	 t	 l	 n.a.	 4.095708e-01
2	 3	 318	 unflanked	 rf	 12	 0.010000	 0.000000	 unflanked_rf_freq_12_amplitude_0.01_rep_3_l_K.png	 K	 l	 t	 n.a.	 4.834244e-01
2	 3	 319	 unflanked	 rf	 4	 0.216700	 0.000000	 unflanked_rf_freq_4_amplitude_0.2167_rep_7_t_N.png	 N	 t	 t	 n.a.	 3.992959e-01
2	 3	 320	 unflanked	 rf	 3	 0.268300	 0.000000	 unflanked_rf_freq_3_amplitude_0.2683_rep_2_r_N.png	 N	 r	 r	 n.a.	 2.971784e-01
2	 3	 321	 unflanked	 rf	 8	 0.010000	 0.000000	 unflanked_rf_freq_8_amplitude_0.01_rep_7_t_D.png	 D	 t	 r	 n.a.	 4.451738e-01
2	 3	 322	 unflanked	 rf	 5	 0.010000	 0.000000	 unflanked_rf_freq_5_amplitude_0.01_rep_6_t_D.png	 D	 t	 b	 n.a.	 5.288075e-01
2	 3	 323	 unflanked	 rf	 8	 0.113300	 0.000000	 unflanked_rf_freq_8_amplitude_0.1133_rep_6_l_N.png	 N	 l	 l	 n.a.	 2.804420e-01
2	 3	 324	 unflanked	 rf	 8	 0.007500	 0.000000	 unflanked_rf_freq_8_amplitude_0.0075_rep_0_r_D.png	 D	 r	 l	 n.a.	 6.852502e-01
2	 3	 325	 unflanked	 rf	 3	 0.216700	 0.000000	 unflanked_rf_freq_3_amplitude_0.2167_rep_9_b_N.png	 N	 b	 b	 n.a.	 3.286701e-01
2	 3	 326	 unflanked	 rf	 12	 0.165000	 0.000000	 unflanked_rf_freq_12_amplitude_0.165_rep_8_t_N.png	 N	 t	 t	 n.a.	 5.051020e-01
2	 3	 327	 unflanked	 rf	 3	 0.268300	 0.000000	 unflanked_rf_freq_3_amplitude_0.2683_rep_0_r_D.png	 D	 r	 l	 n.a.	 6.169498e-01
2	 3	 328	 unflanked	 rf	 3	 0.007500	 0.000000	 unflanked_rf_freq_3_amplitude_0.0075_rep_7_t_H.png	 H	 t	 b	 n.a.	 7.143661e-01
2	 3	 329	 unflanked	 rf	 2	 0.010000	 0.000000	 unflanked_rf_freq_2_amplitude_0.01_rep_2_r_D.png	 D	 r	 t	 n.a.	 5.777497e-01
2	 3	 330	 unflanked	 rf	 8	 0.061700	 0.000000	 unflanked_rf_freq_8_amplitude_0.0617_rep_0_b_H.png	 H	 b	 b	 n.a.	 2.782959e-01
2	 3	 331	 unflanked	 rf	 2	 0.007500	 0.000000	 unflanked_rf_freq_2_amplitude_0.0075_rep_3_r_N.png	 N	 r	 b	 n.a.	 4.860398e-01
2	 3	 332	 unflanked	 rf	 3	 0.010000	 0.000000	 unflanked_rf_freq_3_amplitude_0.01_rep_4_b_K.png	 K	 b	 t	 n.a.	 4.594349e-01
2	 3	 333	 unflanked	 rf	 12	 0.113300	 0.000000	 unflanked_rf_freq_12_amplitude_0.1133_rep_3_r_H.png	 H	 r	 r	 n.a.	 1.908670e-01
2	 3	 334	 unflanked	 rf	 8	 0.007500	 0.000000	 unflanked_rf_freq_8_amplitude_0.0075_rep_3_r_D.png	 D	 r	 l	 n.a.	 4.255812e-01
2	 3	 335	 unflanked	 rf	 12	 0.007500	 0.000000	 unflanked_rf_freq_12_amplitude_0.0075_rep_3_l_N.png	 N	 l	 b	 n.a.	 3.254916e-01
2	 3	 336	 unflanked	 rf	 2	 0.216700	 0.000000	 unflanked_rf_freq_2_amplitude_0.2167_rep_1_l_D.png	 D	 l	 l	 n.a.	 4.503324e-01
2	 3	 337	 unflanked	 rf	 5	 0.010000	 0.000000	 unflanked_rf_freq_5_amplitude_0.01_rep_3_t_K.png	 K	 t	 r	 n.a.	 5.138226e-01
2	 3	 338	 unflanked	 rf	 5	 0.216700	 0.000000	 unflanked_rf_freq_5_amplitude_0.2167_rep_7_r_N.png	 N	 r	 r	 n.a.	 3.084101e-01
2	 3	 339	 unflanked	 rf	 4	 0.165000	 0.000000	 unflanked_rf_freq_4_amplitude_0.165_rep_4_l_N.png	 N	 l	 l	 n.a.	 3.720231e-01
2	 3	 340	 unflanked	 rf	 8	 0.216700	 0.000000	 unflanked_rf_freq_8_amplitude_0.2167_rep_2_l_K.png	 K	 l	 l	 n.a.	 5.042983e-01
2	 3	 341	 unflanked	 rf	 8	 0.007500	 0.000000	 unflanked_rf_freq_8_amplitude_0.0075_rep_6_t_H.png	 H	 t	 b	 n.a.	 6.726925e-01
2	 3	 342	 unflanked	 rf	 12	 0.268300	 0.000000	 unflanked_rf_freq_12_amplitude_0.2683_rep_3_l_K.png	 K	 l	 l	 n.a.	 4.291184e-01
2	 3	 343	 unflanked	 rf	 5	 0.216700	 0.000000	 unflanked_rf_freq_5_amplitude_0.2167_rep_4_t_D.png	 D	 t	 t	 n.a.	 3.849030e-01
2	 3	 344	 unflanked	 rf	 8	 0.010000	 0.000000	 unflanked_rf_freq_8_amplitude_0.01_rep_0_t_D.png	 D	 t	 t	 n.a.	 4.649491e-01
2	 3	 345	 unflanked	 rf	 5	 0.007500	 0.000000	 unflanked_rf_freq_5_amplitude_0.0075_rep_1_l_K.png	 K	 l	 l	 n.a.	 5.516139e-01
2	 3	 346	 unflanked	 rf	 12	 0.007500	 0.000000	 unflanked_rf_freq_12_amplitude_0.0075_rep_5_b_K.png	 K	 b	 b	 n.a.	 6.063243e-01
2	 3	 347	 unflanked	 rf	 3	 0.165000	 0.000000	 unflanked_rf_freq_3_amplitude_0.165_rep_6_b_N.png	 N	 b	 b	 n.a.	 3.212939e-01
2	 3	 348	 unflanked	 rf	 5	 0.165000	 0.000000	 unflanked_rf_freq_5_amplitude_0.165_rep_0_t_D.png	 D	 t	 t	 n.a.	 5.061016e-01
2	 3	 349	 unflanked	 rf	 5	 0.113300	 0.000000	 unflanked_rf_freq_5_amplitude_0.1133_rep_6_l_H.png	 H	 l	 l	 n.a.	 4.043753e-01
2	 3	 350	 unflanked	 rf	 5	 0.010000	 0.000000	 unflanked_rf_freq_5_amplitude_0.01_rep_1_l_D.png	 D	 l	 t	 n.a.	 6.539658e-01
2	 3	 351	 unflanked	 rf	 2	 0.113300	 0.000000	 unflanked_rf_freq_2_amplitude_0.1133_rep_6_l_N.png	 N	 l	 l	 n.a.	 7.531407e-01
2	 3	 352	 unflanked	 rf	 4	 0.216700	 0.000000	 unflanked_rf_freq_4_amplitude_0.2167_rep_2_b_D.png	 D	 b	 b	 n.a.	 2.794154e-01
2	 3	 353	 unflanked	 rf	 4	 0.010000	 0.000000	 unflanked_rf_freq_4_amplitude_0.01_rep_2_l_K.png	 K	 l	 l	 n.a.	 4.943098e-01
2	 3	 354	 unflanked	 rf	 5	 0.113300	 0.000000	 unflanked_rf_freq_5_amplitude_0.1133_rep_0_t_H.png	 H	 t	 b	 n.a.	 6.406883e-01
2	 3	 355	 unflanked	 rf	 2	 0.061700	 0.000000	 unflanked_rf_freq_2_amplitude_0.0617_rep_3_b_N.png	 N	 b	 t	 n.a.	 3.175330e-01
2	 3	 356	 unflanked	 rf	 12	 0.165000	 0.000000	 unflanked_rf_freq_12_amplitude_0.165_rep_1_l_H.png	 H	 l	 l	 n.a.	 3.257019e-01
2	 3	 357	 unflanked	 rf	 8	 0.268300	 0.000000	 unflanked_rf_freq_8_amplitude_0.2683_rep_9_t_K.png	 K	 t	 t	 n.a.	 3.422019e-01
2	 3	 358	 unflanked	 rf	 4	 0.216700	 0.000000	 unflanked_rf_freq_4_amplitude_0.2167_rep_4_b_D.png	 D	 b	 b	 n.a.	 3.879411e-01
2	 3	 359	 unflanked	 rf	 2	 0.007500	 0.000000	 unflanked_rf_freq_2_amplitude_0.0075_rep_4_b_H.png	 H	 b	 l	 n.a.	 4.473272e-01
2	 3	 360	 unflanked	 rf	 5	 0.061700	 0.000000	 unflanked_rf_freq_5_amplitude_0.0617_rep_5_t_D.png	 D	 t	 t	 n.a.	 3.995646e-01
2	 3	 361	 unflanked	 rf	 3	 0.061700	 0.000000	 unflanked_rf_freq_3_amplitude_0.0617_rep_6_t_D.png	 D	 t	 t	 n.a.	 6.814167e-01
2	 3	 362	 unflanked	 rf	 8	 0.061700	 0.000000	 unflanked_rf_freq_8_amplitude_0.0617_rep_6_b_D.png	 D	 b	 b	 n.a.	 8.416610e-01
2	 3	 363	 unflanked	 rf	 3	 0.010000	 0.000000	 unflanked_rf_freq_3_amplitude_0.01_rep_8_l_D.png	 D	 l	 t	 n.a.	 6.323744e-01
2	 3	 364	 unflanked	 rf	 12	 0.165000	 0.000000	 unflanked_rf_freq_12_amplitude_0.165_rep_2_r_H.png	 H	 r	 r	 n.a.	 2.130310e-01
2	 3	 365	 unflanked	 rf	 4	 0.268300	 0.000000	 unflanked_rf_freq_4_amplitude_0.2683_rep_5_t_N.png	 N	 t	 t	 n.a.	 3.449844e-01
2	 3	 366	 unflanked	 rf	 5	 0.010000	 0.000000	 unflanked_rf_freq_5_amplitude_0.01_rep_2_b_K.png	 K	 b	 t	 n.a.	 1.131536e+00
2	 3	 367	 unflanked	 rf	 2	 0.113300	 0.000000	 unflanked_rf_freq_2_amplitude_0.1133_rep_0_t_N.png	 N	 t	 r	 n.a.	 4.422647e-01
2	 3	 368	 unflanked	 rf	 5	 0.268300	 0.000000	 unflanked_rf_freq_5_amplitude_0.2683_rep_1_l_N.png	 N	 l	 l	 n.a.	 3.044804e-01
2	 3	 369	 unflanked	 rf	 12	 0.007500	 0.000000	 unflanked_rf_freq_12_amplitude_0.0075_rep_2_t_D.png	 D	 t	 b	 n.a.	 3.628403e-01
2	 3	 370	 unflanked	 rf	 8	 0.268300	 0.000000	 unflanked_rf_freq_8_amplitude_0.2683_rep_3_b_N.png	 N	 b	 b	 n.a.	 2.861530e-01
2	 3	 371	 unflanked	 rf	 12	 0.216700	 0.000000	 unflanked_rf_freq_12_amplitude_0.2167_rep_7_l_K.png	 K	 l	 l	 n.a.	 3.875868e-01
2	 3	 372	 unflanked	 rf	 3	 0.010000	 0.000000	 unflanked_rf_freq_3_amplitude_0.01_rep_7_b_K.png	 K	 b	 t	 n.a.	 6.587114e-01
2	 3	 373	 unflanked	 rf	 12	 0.007500	 0.000000	 unflanked_rf_freq_12_amplitude_0.0075_rep_6_l_N.png	 N	 l	 r	 n.a.	 3.765504e-01
2	 3	 374	 unflanked	 rf	 2	 0.268300	 0.000000	 unflanked_rf_freq_2_amplitude_0.2683_rep_3_r_H.png	 H	 r	 r	 n.a.	 3.082182e-01
2	 3	 375	 unflanked	 rf	 8	 0.165000	 0.000000	 unflanked_rf_freq_8_amplitude_0.165_rep_6_b_H.png	 H	 b	 b	 n.a.	 2.949115e-01
2	 3	 376	 unflanked	 rf	 12	 0.010000	 0.000000	 unflanked_rf_freq_12_amplitude_0.01_rep_0_b_K.png	 K	 b	 b	 n.a.	 5.650770e-01
2	 3	 377	 unflanked	 rf	 3	 0.061700	 0.000000	 unflanked_rf_freq_3_amplitude_0.0617_rep_8_t_D.png	 D	 t	 t	 n.a.	 4.539738e-01
2	 3	 378	 unflanked	 rf	 4	 0.007500	 0.000000	 unflanked_rf_freq_4_amplitude_0.0075_rep_8_b_N.png	 N	 b	 l	 n.a.	 6.822945e-01
2	 3	 379	 unflanked	 rf	 5	 0.216700	 0.000000	 unflanked_rf_freq_5_amplitude_0.2167_rep_0_r_H.png	 H	 r	 r	 n.a.	 3.275656e-01
2	 3	 380	 unflanked	 rf	 3	 0.061700	 0.000000	 unflanked_rf_freq_3_amplitude_0.0617_rep_3_b_N.png	 N	 b	 t	 n.a.	 5.345978e-01
2	 3	 381	 unflanked	 rf	 8	 0.010000	 0.000000	 unflanked_rf_freq_8_amplitude_0.01_rep_4_r_H.png	 H	 r	 b	 n.a.	 7.789901e-01
2	 3	 382	 unflanked	 rf	 3	 0.061700	 0.000000	 unflanked_rf_freq_3_amplitude_0.0617_rep_2_r_N.png	 N	 r	 t	 n.a.	 3.663291e-01
2	 3	 383	 unflanked	 rf	 4	 0.268300	 0.000000	 unflanked_rf_freq_4_amplitude_0.2683_rep_6_b_H.png	 H	 b	 b	 n.a.	 3.046626e-01
2	 3	 384	 unflanked	 rf	 5	 0.061700	 0.000000	 unflanked_rf_freq_5_amplitude_0.0617_rep_6_r_D.png	 D	 r	 r	 n.a.	 4.616483e-01
2	 3	 385	 unflanked	 rf	 12	 0.061700	 0.000000	 unflanked_rf_freq_12_amplitude_0.0617_rep_3_b_H.png	 H	 b	 t	 n.a.	 6.038499e-01
2	 3	 386	 unflanked	 rf	 2	 0.007500	 0.000000	 unflanked_rf_freq_2_amplitude_0.0075_rep_5_b_K.png	 K	 b	 t	 n.a.	 4.579962e-01
2	 3	 387	 unflanked	 rf	 12	 0.216700	 0.000000	 unflanked_rf_freq_12_amplitude_0.2167_rep_2_t_N.png	 N	 t	 t	 n.a.	 3.337232e-01
2	 3	 388	 unflanked	 rf	 4	 0.113300	 0.000000	 unflanked_rf_freq_4_amplitude_0.1133_rep_2_b_H.png	 H	 b	 b	 n.a.	 3.199118e-01
2	 3	 389	 unflanked	 rf	 8	 0.113300	 0.000000	 unflanked_rf_freq_8_amplitude_0.1133_rep_0_r_H.png	 H	 r	 r	 n.a.	 3.032121e-01
2	 3	 390	 unflanked	 rf	 3	 0.165000	 0.000000	 unflanked_rf_freq_3_amplitude_0.165_rep_5_b_D.png	 D	 b	 b	 n.a.	 3.723688e-01
2	 3	 391	 unflanked	 rf	 2	 0.010000	 0.000000	 unflanked_rf_freq_2_amplitude_0.01_rep_7_l_H.png	 H	 l	 l	 n.a.	 7.346621e-01
2	 3	 392	 unflanked	 rf	 2	 0.268300	 0.000000	 unflanked_rf_freq_2_amplitude_0.2683_rep_4_t_D.png	 D	 t	 t	 n.a.	 4.482135e-01
2	 3	 393	 unflanked	 rf	 2	 0.061700	 0.000000	 unflanked_rf_freq_2_amplitude_0.0617_rep_0_r_H.png	 H	 r	 t	 n.a.	 6.178938e-01
2	 3	 394	 unflanked	 rf	 4	 0.007500	 0.000000	 unflanked_rf_freq_4_amplitude_0.0075_rep_7_t_N.png	 N	 t	 r	 n.a.	 5.552498e-01
2	 3	 395	 unflanked	 rf	 8	 0.010000	 0.000000	 unflanked_rf_freq_8_amplitude_0.01_rep_9_l_N.png	 N	 l	 b	 n.a.	 2.870970e-01
2	 3	 396	 unflanked	 rf	 5	 0.113300	 0.000000	 unflanked_rf_freq_5_amplitude_0.1133_rep_2_b_N.png	 N	 b	 b	 n.a.	 2.980118e-01
2	 3	 397	 unflanked	 rf	 12	 0.010000	 0.000000	 unflanked_rf_freq_12_amplitude_0.01_rep_4_t_D.png	 D	 t	 t	 n.a.	 5.723762e-01
2	 3	 398	 unflanked	 rf	 3	 0.007500	 0.000000	 unflanked_rf_freq_3_amplitude_0.0075_rep_4_l_K.png	 K	 l	 t	 n.a.	 5.116215e-01
2	 3	 399	 unflanked	 rf	 3	 0.165000	 0.000000	 unflanked_rf_freq_3_amplitude_0.165_rep_4_r_N.png	 N	 r	 t	 n.a.	 6.488647e-01
2	 3	 400	 unflanked	 rf	 4	 0.216700	 0.000000	 unflanked_rf_freq_4_amplitude_0.2167_rep_9_l_N.png	 N	 l	 l	 n.a.	 5.652360e-01
2	 3	 401	 unflanked	 rf	 3	 0.007500	 0.000000	 unflanked_rf_freq_3_amplitude_0.0075_rep_6_r_D.png	 D	 r	 t	 n.a.	 7.666904e-01
2	 3	 402	 unflanked	 rf	 4	 0.061700	 0.000000	 unflanked_rf_freq_4_amplitude_0.0617_rep_8_r_N.png	 N	 r	 r	 n.a.	 3.892550e-01
2	 3	 403	 unflanked	 rf	 8	 0.061700	 0.000000	 unflanked_rf_freq_8_amplitude_0.0617_rep_7_l_D.png	 D	 l	 l	 n.a.	 6.235577e-01
2	 3	 404	 unflanked	 rf	 8	 0.113300	 0.000000	 unflanked_rf_freq_8_amplitude_0.1133_rep_8_t_H.png	 H	 t	 t	 n.a.	 3.815622e-01
2	 3	 405	 unflanked	 rf	 12	 0.165000	 0.000000	 unflanked_rf_freq_12_amplitude_0.165_rep_3_r_H.png	 H	 r	 r	 n.a.	 3.686011e-01
2	 3	 406	 unflanked	 rf	 8	 0.165000	 0.000000	 unflanked_rf_freq_8_amplitude_0.165_rep_0_r_N.png	 N	 r	 r	 n.a.	 2.877972e-01
2	 3	 407	 unflanked	 rf	 8	 0.268300	 0.000000	 unflanked_rf_freq_8_amplitude_0.2683_rep_7_r_H.png	 H	 r	 r	 n.a.	 2.564850e-01
2	 3	 408	 unflanked	 rf	 4	 0.216700	 0.000000	 unflanked_rf_freq_4_amplitude_0.2167_rep_3_l_H.png	 H	 l	 l	 n.a.	 4.029014e-01
2	 3	 409	 unflanked	 rf	 4	 0.010000	 0.000000	 unflanked_rf_freq_4_amplitude_0.01_rep_3_t_D.png	 D	 t	 b	 n.a.	 5.156788e-01
2	 3	 410	 unflanked	 rf	 5	 0.061700	 0.000000	 unflanked_rf_freq_5_amplitude_0.0617_rep_1_b_H.png	 H	 b	 l	 n.a.	 3.736534e-01
2	 3	 411	 unflanked	 rf	 5	 0.268300	 0.000000	 unflanked_rf_freq_5_amplitude_0.2683_rep_4_l_D.png	 D	 l	 l	 n.a.	 3.401855e-01
2	 3	 412	 unflanked	 rf	 4	 0.061700	 0.000000	 unflanked_rf_freq_4_amplitude_0.0617_rep_5_l_N.png	 N	 l	 l	 n.a.	 6.920212e-01
2	 3	 413	 unflanked	 rf	 12	 0.268300	 0.000000	 unflanked_rf_freq_12_amplitude_0.2683_rep_5_l_D.png	 D	 l	 l	 n.a.	 2.920228e-01
2	 3	 414	 unflanked	 rf	 2	 0.007500	 0.000000	 unflanked_rf_freq_2_amplitude_0.0075_rep_6_r_K.png	 K	 r	 t	 n.a.	 3.274620e-01
2	 3	 415	 unflanked	 rf	 5	 0.007500	 0.000000	 unflanked_rf_freq_5_amplitude_0.0075_rep_3_t_H.png	 H	 t	 t	 n.a.	 4.369425e-01
2	 3	 416	 unflanked	 rf	 8	 0.007500	 0.000000	 unflanked_rf_freq_8_amplitude_0.0075_rep_5_b_N.png	 N	 b	 b	 n.a.	 8.036312e-01
2	 3	 417	 unflanked	 rf	 8	 0.061700	 0.000000	 unflanked_rf_freq_8_amplitude_0.0617_rep_5_t_K.png	 K	 t	 b	 n.a.	 5.796223e-01
2	 3	 418	 unflanked	 rf	 8	 0.007500	 0.000000	 unflanked_rf_freq_8_amplitude_0.0075_rep_1_t_K.png	 K	 t	 t	 n.a.	 2.380437e-01
2	 3	 419	 unflanked	 rf	 8	 0.113300	 0.000000	 unflanked_rf_freq_8_amplitude_0.1133_rep_7_r_K.png	 K	 r	 r	 n.a.	 8.499732e-01
2	 3	 420	 unflanked	 rf	 12	 0.268300	 0.000000	 unflanked_rf_freq_12_amplitude_0.2683_rep_4_r_D.png	 D	 r	 r	 n.a.	 2.948129e-01
