subject	 session	 trial	 flanked	 distortion	 freq	 amplitude	 spacing	 im_name	 targ_letter	 targ_pos	 response	 eyemovement	 RT
5	 2	 1	 unflanked	 bex	 32	 5.000000	 0.000000	 unflanked_bex_freq_32_amplitude_5_rep_5_b_K.png	 K	 b	 r	 n.a.	 2.633424e-01
5	 2	 2	 unflanked	 bex	 2	 1.000000	 0.000000	 unflanked_bex_freq_2_amplitude_1_rep_7_t_K.png	 K	 t	 r	 n.a.	 4.023731e-01
5	 2	 3	 unflanked	 bex	 8	 0.500000	 0.000000	 unflanked_bex_freq_8_amplitude_0.5_rep_3_t_N.png	 N	 t	 t	 n.a.	 7.318845e-01
5	 2	 4	 unflanked	 bex	 16	 5.000000	 0.000000	 unflanked_bex_freq_16_amplitude_5_rep_6_l_N.png	 N	 l	 l	 n.a.	 2.976788e-01
5	 2	 5	 unflanked	 bex	 2	 2.000000	 0.000000	 unflanked_bex_freq_2_amplitude_2_rep_4_l_N.png	 N	 l	 l	 n.a.	 6.167017e-01
5	 2	 6	 unflanked	 bex	 4	 1.000000	 0.000000	 unflanked_bex_freq_4_amplitude_1_rep_5_l_D.png	 D	 l	 b	 n.a.	 5.008006e-01
5	 2	 7	 unflanked	 bex	 2	 0.500000	 0.000000	 unflanked_bex_freq_2_amplitude_0.5_rep_3_r_H.png	 H	 r	 t	 n.a.	 5.382369e-01
5	 2	 8	 unflanked	 bex	 16	 1.500000	 0.000000	 unflanked_bex_freq_16_amplitude_1.5_rep_6_t_N.png	 N	 t	 r	 n.a.	 2.896941e-01
5	 2	 9	 unflanked	 bex	 2	 2.000000	 0.000000	 unflanked_bex_freq_2_amplitude_2_rep_2_r_D.png	 D	 r	 b	 n.a.	 3.460457e-01
5	 2	 10	 unflanked	 bex	 32	 0.500000	 0.000000	 unflanked_bex_freq_32_amplitude_0.5_rep_4_b_H.png	 H	 b	 l	 n.a.	 5.506760e-01
5	 2	 11	 unflanked	 bex	 16	 0.500000	 0.000000	 unflanked_bex_freq_16_amplitude_0.5_rep_7_t_D.png	 D	 t	 t	 n.a.	 5.407970e-01
5	 2	 12	 unflanked	 bex	 16	 2.000000	 0.000000	 unflanked_bex_freq_16_amplitude_2_rep_2_t_H.png	 H	 t	 t	 n.a.	 9.294092e-01
5	 2	 13	 unflanked	 bex	 4	 1.500000	 0.000000	 unflanked_bex_freq_4_amplitude_1.5_rep_5_r_K.png	 K	 r	 r	 n.a.	 4.712210e-01
5	 2	 14	 unflanked	 bex	 32	 2.500000	 0.000000	 unflanked_bex_freq_32_amplitude_2.5_rep_2_t_N.png	 N	 t	 r	 n.a.	 7.931947e-01
5	 2	 15	 unflanked	 bex	 16	 1.000000	 0.000000	 unflanked_bex_freq_16_amplitude_1_rep_8_t_H.png	 H	 t	 t	 n.a.	 7.965251e-01
5	 2	 16	 unflanked	 bex	 6	 3.000000	 0.000000	 unflanked_bex_freq_6_amplitude_3_rep_2_l_H.png	 H	 l	 l	 n.a.	 2.708410e-01
5	 2	 17	 unflanked	 bex	 4	 1.000000	 0.000000	 unflanked_bex_freq_4_amplitude_1_rep_9_t_K.png	 K	 t	 t	 n.a.	 5.641238e-01
5	 2	 18	 unflanked	 bex	 8	 2.000000	 0.000000	 unflanked_bex_freq_8_amplitude_2_rep_7_r_N.png	 N	 r	 r	 n.a.	 2.753701e-01
5	 2	 19	 unflanked	 bex	 4	 5.000000	 0.000000	 unflanked_bex_freq_4_amplitude_5_rep_4_l_H.png	 H	 l	 l	 n.a.	 2.662410e-01
5	 2	 20	 unflanked	 bex	 4	 2.000000	 0.000000	 unflanked_bex_freq_4_amplitude_2_rep_4_l_K.png	 K	 l	 l	 n.a.	 3.233066e-01
5	 2	 21	 unflanked	 bex	 6	 1.000000	 0.000000	 unflanked_bex_freq_6_amplitude_1_rep_5_b_N.png	 N	 b	 t	 n.a.	 6.896328e-01
5	 2	 22	 unflanked	 bex	 6	 1.500000	 0.000000	 unflanked_bex_freq_6_amplitude_1.5_rep_5_b_N.png	 N	 b	 r	 n.a.	 8.269651e-01
5	 2	 23	 unflanked	 bex	 16	 2.000000	 0.000000	 unflanked_bex_freq_16_amplitude_2_rep_0_l_K.png	 K	 l	 l	 n.a.	 3.707952e-01
5	 2	 24	 unflanked	 bex	 8	 1.000000	 0.000000	 unflanked_bex_freq_8_amplitude_1_rep_4_b_H.png	 H	 b	 r	 n.a.	 3.242966e-01
5	 2	 25	 unflanked	 bex	 6	 3.000000	 0.000000	 unflanked_bex_freq_6_amplitude_3_rep_4_l_N.png	 N	 l	 l	 n.a.	 2.064508e-01
5	 2	 26	 unflanked	 bex	 8	 3.000000	 0.000000	 unflanked_bex_freq_8_amplitude_3_rep_2_l_D.png	 D	 l	 l	 n.a.	 2.085401e-01
5	 2	 27	 unflanked	 bex	 32	 1.000000	 0.000000	 unflanked_bex_freq_32_amplitude_1_rep_7_l_K.png	 K	 l	 b	 n.a.	 5.072346e-01
5	 2	 28	 unflanked	 bex	 16	 1.000000	 0.000000	 unflanked_bex_freq_16_amplitude_1_rep_7_l_H.png	 H	 l	 l	 n.a.	 5.341544e-01
5	 2	 29	 unflanked	 bex	 32	 3.000000	 0.000000	 unflanked_bex_freq_32_amplitude_3_rep_1_l_K.png	 K	 l	 l	 n.a.	 2.915232e-01
5	 2	 30	 unflanked	 bex	 4	 5.000000	 0.000000	 unflanked_bex_freq_4_amplitude_5_rep_6_b_D.png	 D	 b	 b	 n.a.	 4.244744e-01
5	 2	 31	 unflanked	 bex	 8	 2.500000	 0.000000	 unflanked_bex_freq_8_amplitude_2.5_rep_7_t_K.png	 K	 t	 t	 n.a.	 5.217762e-01
5	 2	 32	 unflanked	 bex	 16	 2.500000	 0.000000	 unflanked_bex_freq_16_amplitude_2.5_rep_0_t_H.png	 H	 t	 t	 n.a.	 3.105512e-01
5	 2	 33	 unflanked	 bex	 8	 1.500000	 0.000000	 unflanked_bex_freq_8_amplitude_1.5_rep_4_r_N.png	 N	 r	 b	 n.a.	 8.178556e-01
5	 2	 34	 unflanked	 bex	 4	 5.000000	 0.000000	 unflanked_bex_freq_4_amplitude_5_rep_9_r_H.png	 H	 r	 r	 n.a.	 3.279242e-01
5	 2	 35	 unflanked	 bex	 2	 3.000000	 0.000000	 unflanked_bex_freq_2_amplitude_3_rep_9_l_H.png	 H	 l	 l	 n.a.	 5.088363e-01
5	 2	 36	 unflanked	 bex	 16	 3.000000	 0.000000	 unflanked_bex_freq_16_amplitude_3_rep_8_b_N.png	 N	 b	 t	 n.a.	 5.215392e-01
5	 2	 37	 unflanked	 bex	 2	 5.000000	 0.000000	 unflanked_bex_freq_2_amplitude_5_rep_7_r_H.png	 H	 r	 r	 n.a.	 2.793679e-01
5	 2	 38	 unflanked	 bex	 8	 5.000000	 0.000000	 unflanked_bex_freq_8_amplitude_5_rep_9_b_H.png	 H	 b	 b	 n.a.	 4.081492e-01
5	 2	 39	 unflanked	 bex	 16	 0.500000	 0.000000	 unflanked_bex_freq_16_amplitude_0.5_rep_0_r_N.png	 N	 r	 l	 n.a.	 7.965116e-01
5	 2	 40	 unflanked	 bex	 8	 0.500000	 0.000000	 unflanked_bex_freq_8_amplitude_0.5_rep_9_t_N.png	 N	 t	 b	 n.a.	 3.937584e-01
5	 2	 41	 unflanked	 bex	 8	 2.500000	 0.000000	 unflanked_bex_freq_8_amplitude_2.5_rep_6_l_K.png	 K	 l	 l	 n.a.	 2.943364e-01
5	 2	 42	 unflanked	 bex	 8	 1.500000	 0.000000	 unflanked_bex_freq_8_amplitude_1.5_rep_8_l_D.png	 D	 l	 l	 n.a.	 2.930110e-01
5	 2	 43	 unflanked	 bex	 32	 2.500000	 0.000000	 unflanked_bex_freq_32_amplitude_2.5_rep_3_b_N.png	 N	 b	 r	 n.a.	 4.199349e-01
5	 2	 44	 unflanked	 bex	 4	 2.000000	 0.000000	 unflanked_bex_freq_4_amplitude_2_rep_9_l_K.png	 K	 l	 l	 n.a.	 3.397194e-01
5	 2	 45	 unflanked	 bex	 32	 2.000000	 0.000000	 unflanked_bex_freq_32_amplitude_2_rep_5_b_K.png	 K	 b	 r	 n.a.	 5.154352e-01
5	 2	 46	 unflanked	 bex	 2	 1.000000	 0.000000	 unflanked_bex_freq_2_amplitude_1_rep_3_l_K.png	 K	 l	 t	 n.a.	 5.865205e-01
5	 2	 47	 unflanked	 bex	 8	 3.000000	 0.000000	 unflanked_bex_freq_8_amplitude_3_rep_0_b_D.png	 D	 b	 b	 n.a.	 3.370824e-01
5	 2	 48	 unflanked	 bex	 8	 2.500000	 0.000000	 unflanked_bex_freq_8_amplitude_2.5_rep_9_b_N.png	 N	 b	 b	 n.a.	 3.390596e-01
5	 2	 49	 unflanked	 bex	 2	 1.000000	 0.000000	 unflanked_bex_freq_2_amplitude_1_rep_1_l_D.png	 D	 l	 b	 n.a.	 3.028707e-01
5	 2	 50	 unflanked	 bex	 8	 3.000000	 0.000000	 unflanked_bex_freq_8_amplitude_3_rep_1_r_K.png	 K	 r	 r	 n.a.	 3.056106e-01
5	 2	 51	 unflanked	 bex	 4	 2.000000	 0.000000	 unflanked_bex_freq_4_amplitude_2_rep_6_l_D.png	 D	 l	 l	 n.a.	 2.735163e-01
5	 2	 52	 unflanked	 bex	 6	 5.000000	 0.000000	 unflanked_bex_freq_6_amplitude_5_rep_8_l_D.png	 D	 l	 l	 n.a.	 2.253434e-01
5	 2	 53	 unflanked	 bex	 16	 3.000000	 0.000000	 unflanked_bex_freq_16_amplitude_3_rep_9_r_K.png	 K	 r	 r	 n.a.	 2.619091e-01
5	 2	 54	 unflanked	 bex	 16	 3.000000	 0.000000	 unflanked_bex_freq_16_amplitude_3_rep_6_l_K.png	 K	 l	 l	 n.a.	 2.511181e-01
5	 2	 55	 unflanked	 bex	 4	 1.500000	 0.000000	 unflanked_bex_freq_4_amplitude_1.5_rep_8_t_K.png	 K	 t	 t	 n.a.	 5.306191e-01
5	 2	 56	 unflanked	 bex	 8	 1.500000	 0.000000	 unflanked_bex_freq_8_amplitude_1.5_rep_2_l_H.png	 H	 l	 l	 n.a.	 3.160289e-01
5	 2	 57	 unflanked	 bex	 32	 0.500000	 0.000000	 unflanked_bex_freq_32_amplitude_0.5_rep_5_l_D.png	 D	 l	 l	 n.a.	 4.865165e-01
5	 2	 58	 unflanked	 bex	 2	 0.500000	 0.000000	 unflanked_bex_freq_2_amplitude_0.5_rep_7_r_K.png	 K	 r	 r	 n.a.	 4.415527e-01
5	 2	 59	 unflanked	 bex	 2	 1.500000	 0.000000	 unflanked_bex_freq_2_amplitude_1.5_rep_4_r_H.png	 H	 r	 r	 n.a.	 3.427683e-01
5	 2	 60	 unflanked	 bex	 16	 1.500000	 0.000000	 unflanked_bex_freq_16_amplitude_1.5_rep_1_b_H.png	 H	 b	 t	 n.a.	 4.841598e-01
5	 2	 61	 unflanked	 bex	 32	 1.500000	 0.000000	 unflanked_bex_freq_32_amplitude_1.5_rep_2_l_D.png	 D	 l	 l	 n.a.	 3.891832e-01
5	 2	 62	 unflanked	 bex	 32	 0.500000	 0.000000	 unflanked_bex_freq_32_amplitude_0.5_rep_7_l_N.png	 N	 l	 b	 n.a.	 7.594433e-01
5	 2	 63	 unflanked	 bex	 4	 0.500000	 0.000000	 unflanked_bex_freq_4_amplitude_0.5_rep_3_b_H.png	 H	 b	 r	 n.a.	 3.051364e-01
5	 2	 64	 unflanked	 bex	 4	 0.500000	 0.000000	 unflanked_bex_freq_4_amplitude_0.5_rep_6_b_H.png	 H	 b	 t	 n.a.	 5.052195e-01
5	 2	 65	 unflanked	 bex	 4	 1.500000	 0.000000	 unflanked_bex_freq_4_amplitude_1.5_rep_2_t_H.png	 H	 t	 t	 n.a.	 4.006052e-01
5	 2	 66	 unflanked	 bex	 32	 1.000000	 0.000000	 unflanked_bex_freq_32_amplitude_1_rep_5_l_D.png	 D	 l	 l	 n.a.	 6.863904e-01
5	 2	 67	 unflanked	 bex	 4	 2.000000	 0.000000	 unflanked_bex_freq_4_amplitude_2_rep_2_b_N.png	 N	 b	 t	 n.a.	 6.474028e-01
5	 2	 68	 unflanked	 bex	 6	 2.500000	 0.000000	 unflanked_bex_freq_6_amplitude_2.5_rep_5_t_K.png	 K	 t	 t	 n.a.	 3.538124e-01
5	 2	 69	 unflanked	 bex	 2	 3.000000	 0.000000	 unflanked_bex_freq_2_amplitude_3_rep_7_r_D.png	 D	 r	 r	 n.a.	 3.873156e-01
5	 2	 70	 unflanked	 bex	 8	 2.500000	 0.000000	 unflanked_bex_freq_8_amplitude_2.5_rep_2_b_D.png	 D	 b	 b	 n.a.	 5.685943e-01
5	 2	 71	 unflanked	 bex	 16	 2.000000	 0.000000	 unflanked_bex_freq_16_amplitude_2_rep_7_t_K.png	 K	 t	 b	 n.a.	 4.431481e-01
5	 2	 72	 unflanked	 bex	 2	 2.000000	 0.000000	 unflanked_bex_freq_2_amplitude_2_rep_1_t_N.png	 N	 t	 l	 n.a.	 3.857261e-01
5	 2	 73	 unflanked	 bex	 32	 1.000000	 0.000000	 unflanked_bex_freq_32_amplitude_1_rep_9_r_K.png	 K	 r	 r	 n.a.	 2.672038e-01
5	 2	 74	 unflanked	 bex	 16	 2.500000	 0.000000	 unflanked_bex_freq_16_amplitude_2.5_rep_7_b_K.png	 K	 b	 b	 n.a.	 4.308724e-01
5	 2	 75	 unflanked	 bex	 4	 2.500000	 0.000000	 unflanked_bex_freq_4_amplitude_2.5_rep_8_b_K.png	 K	 b	 t	 n.a.	 9.625595e-01
5	 2	 76	 unflanked	 bex	 16	 1.000000	 0.000000	 unflanked_bex_freq_16_amplitude_1_rep_6_t_D.png	 D	 t	 b	 n.a.	 4.859280e-01
5	 2	 77	 unflanked	 bex	 16	 1.000000	 0.000000	 unflanked_bex_freq_16_amplitude_1_rep_2_l_K.png	 K	 l	 t	 n.a.	 5.771612e-01
5	 2	 78	 unflanked	 bex	 32	 0.500000	 0.000000	 unflanked_bex_freq_32_amplitude_0.5_rep_3_t_N.png	 N	 t	 b	 n.a.	 6.364009e-01
5	 2	 79	 unflanked	 bex	 6	 3.000000	 0.000000	 unflanked_bex_freq_6_amplitude_3_rep_8_l_N.png	 N	 l	 l	 n.a.	 2.053418e-01
5	 2	 80	 unflanked	 bex	 32	 3.000000	 0.000000	 unflanked_bex_freq_32_amplitude_3_rep_0_t_N.png	 N	 t	 r	 n.a.	 5.180711e-01
5	 2	 81	 unflanked	 bex	 4	 1.500000	 0.000000	 unflanked_bex_freq_4_amplitude_1.5_rep_1_b_D.png	 D	 b	 t	 n.a.	 5.547519e-01
5	 2	 82	 unflanked	 bex	 8	 5.000000	 0.000000	 unflanked_bex_freq_8_amplitude_5_rep_5_r_D.png	 D	 r	 r	 n.a.	 3.064717e-01
5	 2	 83	 unflanked	 bex	 6	 1.500000	 0.000000	 unflanked_bex_freq_6_amplitude_1.5_rep_7_b_K.png	 K	 b	 r	 n.a.	 6.264826e-01
5	 2	 84	 unflanked	 bex	 8	 1.000000	 0.000000	 unflanked_bex_freq_8_amplitude_1_rep_6_r_H.png	 H	 r	 r	 n.a.	 3.231461e-01
5	 2	 85	 unflanked	 bex	 8	 5.000000	 0.000000	 unflanked_bex_freq_8_amplitude_5_rep_4_l_D.png	 D	 l	 l	 n.a.	 2.714258e-01
5	 2	 86	 unflanked	 bex	 4	 2.500000	 0.000000	 unflanked_bex_freq_4_amplitude_2.5_rep_6_l_K.png	 K	 l	 l	 n.a.	 2.921736e-01
5	 2	 87	 unflanked	 bex	 16	 2.500000	 0.000000	 unflanked_bex_freq_16_amplitude_2.5_rep_3_l_N.png	 N	 l	 l	 n.a.	 3.294208e-01
5	 2	 88	 unflanked	 bex	 32	 1.500000	 0.000000	 unflanked_bex_freq_32_amplitude_1.5_rep_0_l_D.png	 D	 l	 l	 n.a.	 3.668758e-01
5	 2	 89	 unflanked	 bex	 2	 2.000000	 0.000000	 unflanked_bex_freq_2_amplitude_2_rep_7_b_H.png	 H	 b	 b	 n.a.	 4.891247e-01
5	 2	 90	 unflanked	 bex	 6	 5.000000	 0.000000	 unflanked_bex_freq_6_amplitude_5_rep_5_l_N.png	 N	 l	 l	 n.a.	 3.108126e-01
5	 2	 91	 unflanked	 bex	 32	 0.500000	 0.000000	 unflanked_bex_freq_32_amplitude_0.5_rep_1_b_K.png	 K	 b	 l	 n.a.	 7.450517e-01
5	 2	 92	 unflanked	 bex	 32	 0.500000	 0.000000	 unflanked_bex_freq_32_amplitude_0.5_rep_6_t_N.png	 N	 t	 b	 n.a.	 2.822011e-01
5	 2	 93	 unflanked	 bex	 32	 3.000000	 0.000000	 unflanked_bex_freq_32_amplitude_3_rep_9_r_H.png	 H	 r	 r	 n.a.	 3.630820e-01
5	 2	 94	 unflanked	 bex	 6	 2.500000	 0.000000	 unflanked_bex_freq_6_amplitude_2.5_rep_9_r_H.png	 H	 r	 r	 n.a.	 2.864565e-01
5	 2	 95	 unflanked	 bex	 16	 2.500000	 0.000000	 unflanked_bex_freq_16_amplitude_2.5_rep_2_r_N.png	 N	 r	 r	 n.a.	 3.659593e-01
5	 2	 96	 unflanked	 bex	 6	 1.500000	 0.000000	 unflanked_bex_freq_6_amplitude_1.5_rep_9_r_K.png	 K	 r	 r	 n.a.	 3.528995e-01
5	 2	 97	 unflanked	 bex	 32	 0.500000	 0.000000	 unflanked_bex_freq_32_amplitude_0.5_rep_0_b_H.png	 H	 b	 r	 n.a.	 1.059181e+00
5	 2	 98	 unflanked	 bex	 2	 1.000000	 0.000000	 unflanked_bex_freq_2_amplitude_1_rep_6_t_N.png	 N	 t	 t	 n.a.	 5.941525e-01
5	 2	 99	 unflanked	 bex	 4	 1.000000	 0.000000	 unflanked_bex_freq_4_amplitude_1_rep_1_r_H.png	 H	 r	 b	 n.a.	 1.427886e+00
5	 2	 100	 unflanked	 bex	 6	 1.000000	 0.000000	 unflanked_bex_freq_6_amplitude_1_rep_4_l_K.png	 K	 l	 t	 n.a.	 7.744097e-01
5	 2	 101	 unflanked	 bex	 8	 2.000000	 0.000000	 unflanked_bex_freq_8_amplitude_2_rep_9_r_N.png	 N	 r	 r	 n.a.	 2.269438e-01
5	 2	 102	 unflanked	 bex	 16	 3.000000	 0.000000	 unflanked_bex_freq_16_amplitude_3_rep_0_b_K.png	 K	 b	 b	 n.a.	 4.486693e-01
5	 2	 103	 unflanked	 bex	 16	 0.500000	 0.000000	 unflanked_bex_freq_16_amplitude_0.5_rep_1_r_H.png	 H	 r	 r	 n.a.	 3.753338e-01
5	 2	 104	 unflanked	 bex	 32	 2.000000	 0.000000	 unflanked_bex_freq_32_amplitude_2_rep_3_l_N.png	 N	 l	 l	 n.a.	 3.341353e-01
5	 2	 105	 unflanked	 bex	 4	 2.000000	 0.000000	 unflanked_bex_freq_4_amplitude_2_rep_7_l_N.png	 N	 l	 l	 n.a.	 3.707416e-01
5	 2	 106	 unflanked	 bex	 8	 0.500000	 0.000000	 unflanked_bex_freq_8_amplitude_0.5_rep_8_r_K.png	 K	 r	 t	 n.a.	 6.834161e-01
5	 2	 107	 unflanked	 bex	 6	 5.000000	 0.000000	 unflanked_bex_freq_6_amplitude_5_rep_7_l_D.png	 D	 l	 l	 n.a.	 2.503744e-01
5	 2	 108	 unflanked	 bex	 4	 0.500000	 0.000000	 unflanked_bex_freq_4_amplitude_0.5_rep_7_r_D.png	 D	 r	 r	 n.a.	 3.370376e-01
5	 2	 109	 unflanked	 bex	 32	 5.000000	 0.000000	 unflanked_bex_freq_32_amplitude_5_rep_3_t_D.png	 D	 t	 t	 n.a.	 4.732638e-01
5	 2	 110	 unflanked	 bex	 32	 5.000000	 0.000000	 unflanked_bex_freq_32_amplitude_5_rep_8_l_N.png	 N	 l	 l	 n.a.	 2.710843e-01
5	 2	 111	 unflanked	 bex	 8	 5.000000	 0.000000	 unflanked_bex_freq_8_amplitude_5_rep_2_b_N.png	 N	 b	 b	 n.a.	 4.143099e-01
5	 2	 112	 unflanked	 bex	 4	 3.000000	 0.000000	 unflanked_bex_freq_4_amplitude_3_rep_4_b_H.png	 H	 b	 b	 n.a.	 4.619882e-01
5	 2	 113	 unflanked	 bex	 8	 1.000000	 0.000000	 unflanked_bex_freq_8_amplitude_1_rep_7_r_H.png	 H	 r	 r	 n.a.	 4.278037e-01
5	 2	 114	 unflanked	 bex	 8	 0.500000	 0.000000	 unflanked_bex_freq_8_amplitude_0.5_rep_6_l_D.png	 D	 l	 t	 n.a.	 4.734585e-01
5	 2	 115	 unflanked	 bex	 4	 2.000000	 0.000000	 unflanked_bex_freq_4_amplitude_2_rep_0_r_K.png	 K	 r	 r	 n.a.	 2.918717e-01
5	 2	 116	 unflanked	 bex	 16	 1.000000	 0.000000	 unflanked_bex_freq_16_amplitude_1_rep_0_r_N.png	 N	 r	 r	 n.a.	 4.434548e-01
5	 2	 117	 unflanked	 bex	 6	 1.000000	 0.000000	 unflanked_bex_freq_6_amplitude_1_rep_2_b_D.png	 D	 b	 l	 n.a.	 3.628064e-01
5	 2	 118	 unflanked	 bex	 2	 3.000000	 0.000000	 unflanked_bex_freq_2_amplitude_3_rep_8_t_K.png	 K	 t	 l	 n.a.	 5.383696e-01
5	 2	 119	 unflanked	 bex	 8	 2.500000	 0.000000	 unflanked_bex_freq_8_amplitude_2.5_rep_4_l_K.png	 K	 l	 l	 n.a.	 2.566969e-01
5	 2	 120	 unflanked	 bex	 6	 1.000000	 0.000000	 unflanked_bex_freq_6_amplitude_1_rep_9_r_N.png	 N	 r	 t	 n.a.	 6.826167e-01
5	 2	 121	 unflanked	 bex	 4	 2.000000	 0.000000	 unflanked_bex_freq_4_amplitude_2_rep_1_r_D.png	 D	 r	 r	 n.a.	 2.551380e-01
5	 2	 122	 unflanked	 bex	 2	 5.000000	 0.000000	 unflanked_bex_freq_2_amplitude_5_rep_1_r_K.png	 K	 r	 r	 n.a.	 2.561392e-01
5	 2	 123	 unflanked	 bex	 2	 0.500000	 0.000000	 unflanked_bex_freq_2_amplitude_0.5_rep_6_l_H.png	 H	 l	 l	 n.a.	 4.317039e-01
5	 2	 124	 unflanked	 bex	 4	 0.500000	 0.000000	 unflanked_bex_freq_4_amplitude_0.5_rep_0_r_D.png	 D	 r	 l	 n.a.	 4.748862e-01
5	 2	 125	 unflanked	 bex	 8	 1.000000	 0.000000	 unflanked_bex_freq_8_amplitude_1_rep_5_b_K.png	 K	 b	 b	 n.a.	 1.112053e+00
5	 2	 126	 unflanked	 bex	 2	 1.000000	 0.000000	 unflanked_bex_freq_2_amplitude_1_rep_5_l_D.png	 D	 l	 r	 n.a.	 8.195945e-01
5	 2	 127	 unflanked	 bex	 6	 2.500000	 0.000000	 unflanked_bex_freq_6_amplitude_2.5_rep_6_b_D.png	 D	 b	 b	 n.a.	 4.656188e-01
5	 2	 128	 unflanked	 bex	 32	 1.500000	 0.000000	 unflanked_bex_freq_32_amplitude_1.5_rep_1_l_K.png	 K	 l	 t	 n.a.	 6.667146e-01
5	 2	 129	 unflanked	 bex	 2	 5.000000	 0.000000	 unflanked_bex_freq_2_amplitude_5_rep_2_r_D.png	 D	 r	 r	 n.a.	 2.464414e-01
5	 2	 130	 unflanked	 bex	 2	 5.000000	 0.000000	 unflanked_bex_freq_2_amplitude_5_rep_9_r_N.png	 N	 r	 r	 n.a.	 3.276351e-01
5	 2	 131	 unflanked	 bex	 6	 5.000000	 0.000000	 unflanked_bex_freq_6_amplitude_5_rep_4_l_N.png	 N	 l	 l	 n.a.	 2.927993e-01
5	 2	 132	 unflanked	 bex	 6	 5.000000	 0.000000	 unflanked_bex_freq_6_amplitude_5_rep_3_b_D.png	 D	 b	 b	 n.a.	 5.046767e-01
5	 2	 133	 unflanked	 bex	 16	 5.000000	 0.000000	 unflanked_bex_freq_16_amplitude_5_rep_0_r_K.png	 K	 r	 r	 n.a.	 3.252618e-01
5	 2	 134	 unflanked	 bex	 2	 1.000000	 0.000000	 unflanked_bex_freq_2_amplitude_1_rep_2_r_K.png	 K	 r	 r	 n.a.	 3.121555e-01
5	 2	 135	 unflanked	 bex	 4	 1.500000	 0.000000	 unflanked_bex_freq_4_amplitude_1.5_rep_0_l_H.png	 H	 l	 t	 n.a.	 6.758529e-01
5	 2	 136	 unflanked	 bex	 6	 5.000000	 0.000000	 unflanked_bex_freq_6_amplitude_5_rep_9_t_H.png	 H	 t	 t	 n.a.	 4.849547e-01
5	 2	 137	 unflanked	 bex	 6	 2.000000	 0.000000	 unflanked_bex_freq_6_amplitude_2_rep_9_l_K.png	 K	 l	 l	 n.a.	 3.077890e-01
5	 2	 138	 unflanked	 bex	 6	 2.500000	 0.000000	 unflanked_bex_freq_6_amplitude_2.5_rep_1_b_H.png	 H	 b	 t	 n.a.	 5.440472e-01
5	 2	 139	 unflanked	 bex	 8	 0.500000	 0.000000	 unflanked_bex_freq_8_amplitude_0.5_rep_4_r_D.png	 D	 r	 b	 n.a.	 2.730950e-01
5	 2	 140	 unflanked	 bex	 4	 1.500000	 0.000000	 unflanked_bex_freq_4_amplitude_1.5_rep_6_t_N.png	 N	 t	 r	 n.a.	 6.532397e-01
5	 2	 141	 unflanked	 bex	 2	 5.000000	 0.000000	 unflanked_bex_freq_2_amplitude_5_rep_0_l_H.png	 H	 l	 l	 n.a.	 2.526809e-01
5	 2	 142	 unflanked	 bex	 16	 2.500000	 0.000000	 unflanked_bex_freq_16_amplitude_2.5_rep_1_t_N.png	 N	 t	 t	 n.a.	 3.938330e-01
5	 2	 143	 unflanked	 bex	 2	 2.500000	 0.000000	 unflanked_bex_freq_2_amplitude_2.5_rep_3_b_K.png	 K	 b	 b	 n.a.	 4.468800e-01
5	 2	 144	 unflanked	 bex	 16	 2.000000	 0.000000	 unflanked_bex_freq_16_amplitude_2_rep_9_r_H.png	 H	 r	 r	 n.a.	 2.395590e-01
5	 2	 145	 unflanked	 bex	 6	 2.000000	 0.000000	 unflanked_bex_freq_6_amplitude_2_rep_7_t_N.png	 N	 t	 t	 n.a.	 3.391599e-01
5	 2	 146	 unflanked	 bex	 4	 1.000000	 0.000000	 unflanked_bex_freq_4_amplitude_1_rep_8_t_H.png	 H	 t	 r	 n.a.	 3.066585e-01
5	 2	 147	 unflanked	 bex	 32	 2.000000	 0.000000	 unflanked_bex_freq_32_amplitude_2_rep_9_r_K.png	 K	 r	 r	 n.a.	 2.439730e-01
5	 2	 148	 unflanked	 bex	 32	 3.000000	 0.000000	 unflanked_bex_freq_32_amplitude_3_rep_2_l_N.png	 N	 l	 l	 n.a.	 2.341163e-01
5	 2	 149	 unflanked	 bex	 16	 3.000000	 0.000000	 unflanked_bex_freq_16_amplitude_3_rep_5_r_H.png	 H	 r	 r	 n.a.	 2.209201e-01
5	 2	 150	 unflanked	 bex	 2	 2.000000	 0.000000	 unflanked_bex_freq_2_amplitude_2_rep_8_t_D.png	 D	 t	 t	 n.a.	 4.805390e-01
5	 2	 151	 unflanked	 bex	 8	 1.000000	 0.000000	 unflanked_bex_freq_8_amplitude_1_rep_0_b_N.png	 N	 b	 t	 n.a.	 5.328974e-01
5	 2	 152	 unflanked	 bex	 2	 3.000000	 0.000000	 unflanked_bex_freq_2_amplitude_3_rep_2_r_K.png	 K	 r	 r	 n.a.	 2.717405e-01
5	 2	 153	 unflanked	 bex	 4	 1.500000	 0.000000	 unflanked_bex_freq_4_amplitude_1.5_rep_4_l_H.png	 H	 l	 l	 n.a.	 3.679345e-01
5	 2	 154	 unflanked	 bex	 32	 1.500000	 0.000000	 unflanked_bex_freq_32_amplitude_1.5_rep_5_t_H.png	 H	 t	 t	 n.a.	 5.765040e-01
5	 2	 155	 unflanked	 bex	 6	 1.500000	 0.000000	 unflanked_bex_freq_6_amplitude_1.5_rep_8_l_H.png	 H	 l	 l	 n.a.	 4.802297e-01
5	 2	 156	 unflanked	 bex	 16	 0.500000	 0.000000	 unflanked_bex_freq_16_amplitude_0.5_rep_6_r_H.png	 H	 r	 t	 n.a.	 5.492615e-01
5	 2	 157	 unflanked	 bex	 32	 3.000000	 0.000000	 unflanked_bex_freq_32_amplitude_3_rep_7_b_N.png	 N	 b	 t	 n.a.	 5.465511e-01
5	 2	 158	 unflanked	 bex	 32	 1.500000	 0.000000	 unflanked_bex_freq_32_amplitude_1.5_rep_9_b_H.png	 H	 b	 b	 n.a.	 6.463903e-01
5	 2	 159	 unflanked	 bex	 4	 5.000000	 0.000000	 unflanked_bex_freq_4_amplitude_5_rep_8_b_D.png	 D	 b	 b	 n.a.	 4.896040e-01
5	 2	 160	 unflanked	 bex	 32	 5.000000	 0.000000	 unflanked_bex_freq_32_amplitude_5_rep_7_r_D.png	 D	 r	 r	 n.a.	 3.304610e-01
5	 2	 161	 unflanked	 bex	 4	 2.500000	 0.000000	 unflanked_bex_freq_4_amplitude_2.5_rep_5_b_N.png	 N	 b	 b	 n.a.	 6.748848e-01
5	 2	 162	 unflanked	 bex	 6	 2.500000	 0.000000	 unflanked_bex_freq_6_amplitude_2.5_rep_0_t_K.png	 K	 t	 t	 n.a.	 5.471468e-01
5	 2	 163	 unflanked	 bex	 16	 0.500000	 0.000000	 unflanked_bex_freq_16_amplitude_0.5_rep_3_r_K.png	 K	 r	 r	 n.a.	 5.537219e-01
5	 2	 164	 unflanked	 bex	 32	 2.500000	 0.000000	 unflanked_bex_freq_32_amplitude_2.5_rep_6_b_H.png	 H	 b	 t	 n.a.	 6.763052e-01
5	 2	 165	 unflanked	 bex	 4	 1.000000	 0.000000	 unflanked_bex_freq_4_amplitude_1_rep_4_b_N.png	 N	 b	 r	 n.a.	 4.356551e-01
5	 2	 166	 unflanked	 bex	 16	 2.500000	 0.000000	 unflanked_bex_freq_16_amplitude_2.5_rep_6_r_K.png	 K	 r	 r	 n.a.	 2.733772e-01
5	 2	 167	 unflanked	 bex	 32	 2.500000	 0.000000	 unflanked_bex_freq_32_amplitude_2.5_rep_5_r_H.png	 H	 r	 r	 n.a.	 3.643470e-01
5	 2	 168	 unflanked	 bex	 16	 1.500000	 0.000000	 unflanked_bex_freq_16_amplitude_1.5_rep_7_r_K.png	 K	 r	 r	 n.a.	 3.334513e-01
5	 2	 169	 unflanked	 bex	 2	 3.000000	 0.000000	 unflanked_bex_freq_2_amplitude_3_rep_6_b_D.png	 D	 b	 b	 n.a.	 5.359180e-01
5	 2	 170	 unflanked	 bex	 2	 2.000000	 0.000000	 unflanked_bex_freq_2_amplitude_2_rep_9_b_N.png	 N	 b	 r	 n.a.	 4.384650e-01
5	 2	 171	 unflanked	 bex	 6	 3.000000	 0.000000	 unflanked_bex_freq_6_amplitude_3_rep_3_t_D.png	 D	 t	 t	 n.a.	 5.094082e-01
5	 2	 172	 unflanked	 bex	 8	 1.500000	 0.000000	 unflanked_bex_freq_8_amplitude_1.5_rep_9_t_H.png	 H	 t	 l	 n.a.	 4.482220e-01
5	 2	 173	 unflanked	 bex	 2	 2.000000	 0.000000	 unflanked_bex_freq_2_amplitude_2_rep_3_l_D.png	 D	 l	 l	 n.a.	 4.214933e-01
5	 2	 174	 unflanked	 bex	 2	 3.000000	 0.000000	 unflanked_bex_freq_2_amplitude_3_rep_0_t_H.png	 H	 t	 t	 n.a.	 4.964390e-01
5	 2	 175	 unflanked	 bex	 2	 2.500000	 0.000000	 unflanked_bex_freq_2_amplitude_2.5_rep_2_b_D.png	 D	 b	 b	 n.a.	 6.267771e-01
5	 2	 176	 unflanked	 bex	 8	 3.000000	 0.000000	 unflanked_bex_freq_8_amplitude_3_rep_3_l_H.png	 H	 l	 l	 n.a.	 2.914141e-01
5	 2	 177	 unflanked	 bex	 6	 5.000000	 0.000000	 unflanked_bex_freq_6_amplitude_5_rep_0_t_K.png	 K	 t	 t	 n.a.	 3.532726e-01
5	 2	 178	 unflanked	 bex	 6	 1.500000	 0.000000	 unflanked_bex_freq_6_amplitude_1.5_rep_2_b_D.png	 D	 b	 b	 n.a.	 4.496976e-01
5	 2	 179	 unflanked	 bex	 8	 5.000000	 0.000000	 unflanked_bex_freq_8_amplitude_5_rep_6_t_N.png	 N	 t	 t	 n.a.	 4.210381e-01
5	 2	 180	 unflanked	 bex	 6	 2.500000	 0.000000	 unflanked_bex_freq_6_amplitude_2.5_rep_2_b_K.png	 K	 b	 b	 n.a.	 4.660568e-01
5	 2	 181	 unflanked	 bex	 4	 3.000000	 0.000000	 unflanked_bex_freq_4_amplitude_3_rep_3_b_D.png	 D	 b	 b	 n.a.	 3.212742e-01
5	 2	 182	 unflanked	 bex	 8	 3.000000	 0.000000	 unflanked_bex_freq_8_amplitude_3_rep_8_l_H.png	 H	 l	 l	 n.a.	 2.737815e-01
5	 2	 183	 unflanked	 bex	 6	 1.000000	 0.000000	 unflanked_bex_freq_6_amplitude_1_rep_0_r_H.png	 H	 r	 r	 n.a.	 4.026029e-01
5	 2	 184	 unflanked	 bex	 2	 2.000000	 0.000000	 unflanked_bex_freq_2_amplitude_2_rep_5_r_K.png	 K	 r	 r	 n.a.	 3.146054e-01
5	 2	 185	 unflanked	 bex	 16	 5.000000	 0.000000	 unflanked_bex_freq_16_amplitude_5_rep_9_b_N.png	 N	 b	 b	 n.a.	 3.997900e-01
5	 2	 186	 unflanked	 bex	 8	 2.500000	 0.000000	 unflanked_bex_freq_8_amplitude_2.5_rep_0_t_N.png	 N	 t	 t	 n.a.	 5.828125e-01
5	 2	 187	 unflanked	 bex	 32	 0.500000	 0.000000	 unflanked_bex_freq_32_amplitude_0.5_rep_2_r_D.png	 D	 r	 r	 n.a.	 7.706895e-01
5	 2	 188	 unflanked	 bex	 16	 1.000000	 0.000000	 unflanked_bex_freq_16_amplitude_1_rep_4_t_K.png	 K	 t	 t	 n.a.	 5.546973e-01
5	 2	 189	 unflanked	 bex	 6	 2.500000	 0.000000	 unflanked_bex_freq_6_amplitude_2.5_rep_8_r_N.png	 N	 r	 r	 n.a.	 2.958671e-01
5	 2	 190	 unflanked	 bex	 16	 2.000000	 0.000000	 unflanked_bex_freq_16_amplitude_2_rep_5_l_D.png	 D	 l	 l	 n.a.	 2.841269e-01
5	 2	 191	 unflanked	 bex	 16	 1.500000	 0.000000	 unflanked_bex_freq_16_amplitude_1.5_rep_8_r_D.png	 D	 r	 r	 n.a.	 2.992948e-01
5	 2	 192	 unflanked	 bex	 32	 3.000000	 0.000000	 unflanked_bex_freq_32_amplitude_3_rep_6_l_N.png	 N	 l	 l	 n.a.	 3.148116e-01
5	 2	 193	 unflanked	 bex	 16	 1.000000	 0.000000	 unflanked_bex_freq_16_amplitude_1_rep_1_l_K.png	 K	 l	 t	 n.a.	 5.302317e-01
5	 2	 194	 unflanked	 bex	 4	 0.500000	 0.000000	 unflanked_bex_freq_4_amplitude_0.5_rep_8_r_H.png	 H	 r	 r	 n.a.	 4.237145e-01
5	 2	 195	 unflanked	 bex	 4	 5.000000	 0.000000	 unflanked_bex_freq_4_amplitude_5_rep_2_l_K.png	 K	 l	 l	 n.a.	 2.797015e-01
5	 2	 196	 unflanked	 bex	 2	 1.000000	 0.000000	 unflanked_bex_freq_2_amplitude_1_rep_9_t_N.png	 N	 t	 l	 n.a.	 4.488673e-01
5	 2	 197	 unflanked	 bex	 32	 3.000000	 0.000000	 unflanked_bex_freq_32_amplitude_3_rep_3_r_H.png	 H	 r	 r	 n.a.	 2.516155e-01
5	 2	 198	 unflanked	 bex	 2	 0.500000	 0.000000	 unflanked_bex_freq_2_amplitude_0.5_rep_5_t_N.png	 N	 t	 l	 n.a.	 7.217294e-01
5	 2	 199	 unflanked	 bex	 4	 1.000000	 0.000000	 unflanked_bex_freq_4_amplitude_1_rep_0_b_H.png	 H	 b	 r	 n.a.	 8.269529e-01
5	 2	 200	 unflanked	 bex	 6	 2.500000	 0.000000	 unflanked_bex_freq_6_amplitude_2.5_rep_3_b_K.png	 K	 b	 b	 n.a.	 3.279049e-01
5	 2	 201	 unflanked	 bex	 32	 2.000000	 0.000000	 unflanked_bex_freq_32_amplitude_2_rep_6_r_K.png	 K	 r	 r	 n.a.	 4.342755e-01
5	 2	 202	 unflanked	 bex	 8	 5.000000	 0.000000	 unflanked_bex_freq_8_amplitude_5_rep_1_l_D.png	 D	 l	 l	 n.a.	 2.604052e-01
5	 2	 203	 unflanked	 bex	 4	 1.000000	 0.000000	 unflanked_bex_freq_4_amplitude_1_rep_7_l_K.png	 K	 l	 b	 n.a.	 6.197552e-01
5	 2	 204	 unflanked	 bex	 32	 1.500000	 0.000000	 unflanked_bex_freq_32_amplitude_1.5_rep_3_l_N.png	 N	 l	 l	 n.a.	 4.122730e-01
5	 2	 205	 unflanked	 bex	 6	 0.500000	 0.000000	 unflanked_bex_freq_6_amplitude_0.5_rep_8_r_K.png	 K	 r	 r	 n.a.	 8.738170e-01
5	 2	 206	 unflanked	 bex	 8	 2.000000	 0.000000	 unflanked_bex_freq_8_amplitude_2_rep_0_r_N.png	 N	 r	 r	 n.a.	 3.432857e-01
5	 2	 207	 unflanked	 bex	 2	 2.500000	 0.000000	 unflanked_bex_freq_2_amplitude_2.5_rep_8_b_N.png	 N	 b	 b	 n.a.	 6.559351e-01
5	 2	 208	 unflanked	 bex	 2	 0.500000	 0.000000	 unflanked_bex_freq_2_amplitude_0.5_rep_2_t_D.png	 D	 t	 r	 n.a.	 8.696688e-01
5	 2	 209	 unflanked	 bex	 4	 2.500000	 0.000000	 unflanked_bex_freq_4_amplitude_2.5_rep_0_b_K.png	 K	 b	 b	 n.a.	 5.092696e-01
5	 2	 210	 unflanked	 bex	 4	 2.500000	 0.000000	 unflanked_bex_freq_4_amplitude_2.5_rep_7_t_K.png	 K	 t	 t	 n.a.	 4.522702e-01
5	 2	 211	 unflanked	 bex	 2	 5.000000	 0.000000	 unflanked_bex_freq_2_amplitude_5_rep_5_r_K.png	 K	 r	 r	 n.a.	 2.555572e-01
5	 2	 212	 unflanked	 bex	 16	 2.500000	 0.000000	 unflanked_bex_freq_16_amplitude_2.5_rep_5_l_N.png	 N	 l	 l	 n.a.	 2.308615e-01
5	 2	 213	 unflanked	 bex	 2	 3.000000	 0.000000	 unflanked_bex_freq_2_amplitude_3_rep_5_r_K.png	 K	 r	 r	 n.a.	 2.050366e-01
5	 2	 214	 unflanked	 bex	 8	 2.000000	 0.000000	 unflanked_bex_freq_8_amplitude_2_rep_1_l_D.png	 D	 l	 l	 n.a.	 3.760420e-01
5	 2	 215	 unflanked	 bex	 32	 5.000000	 0.000000	 unflanked_bex_freq_32_amplitude_5_rep_4_t_D.png	 D	 t	 t	 n.a.	 5.465257e-01
5	 2	 216	 unflanked	 bex	 8	 2.000000	 0.000000	 unflanked_bex_freq_8_amplitude_2_rep_5_b_N.png	 N	 b	 b	 n.a.	 4.976227e-01
5	 2	 217	 unflanked	 bex	 2	 5.000000	 0.000000	 unflanked_bex_freq_2_amplitude_5_rep_4_b_N.png	 N	 b	 b	 n.a.	 3.013966e-01
5	 2	 218	 unflanked	 bex	 4	 1.000000	 0.000000	 unflanked_bex_freq_4_amplitude_1_rep_2_r_H.png	 H	 r	 b	 n.a.	 4.615297e-01
5	 2	 219	 unflanked	 bex	 2	 1.500000	 0.000000	 unflanked_bex_freq_2_amplitude_1.5_rep_0_b_K.png	 K	 b	 b	 n.a.	 6.487750e-01
5	 2	 220	 unflanked	 bex	 6	 1.500000	 0.000000	 unflanked_bex_freq_6_amplitude_1.5_rep_1_b_N.png	 N	 b	 b	 n.a.	 4.656955e-01
5	 2	 221	 unflanked	 bex	 6	 3.000000	 0.000000	 unflanked_bex_freq_6_amplitude_3_rep_6_l_K.png	 K	 l	 l	 n.a.	 2.783839e-01
5	 2	 222	 unflanked	 bex	 16	 1.000000	 0.000000	 unflanked_bex_freq_16_amplitude_1_rep_5_r_D.png	 D	 r	 b	 n.a.	 5.382266e-01
5	 2	 223	 unflanked	 bex	 8	 2.000000	 0.000000	 unflanked_bex_freq_8_amplitude_2_rep_8_t_K.png	 K	 t	 t	 n.a.	 5.235785e-01
5	 2	 224	 unflanked	 bex	 4	 5.000000	 0.000000	 unflanked_bex_freq_4_amplitude_5_rep_7_r_K.png	 K	 r	 r	 n.a.	 2.552278e-01
5	 2	 225	 unflanked	 bex	 8	 1.000000	 0.000000	 unflanked_bex_freq_8_amplitude_1_rep_9_b_K.png	 K	 b	 r	 n.a.	 6.873200e-01
5	 2	 226	 unflanked	 bex	 2	 1.500000	 0.000000	 unflanked_bex_freq_2_amplitude_1.5_rep_5_l_H.png	 H	 l	 l	 n.a.	 6.942524e-01
5	 2	 227	 unflanked	 bex	 16	 2.000000	 0.000000	 unflanked_bex_freq_16_amplitude_2_rep_3_l_K.png	 K	 l	 l	 n.a.	 6.187370e-01
5	 2	 228	 unflanked	 bex	 6	 3.000000	 0.000000	 unflanked_bex_freq_6_amplitude_3_rep_5_b_K.png	 K	 b	 b	 n.a.	 5.110442e-01
5	 2	 229	 unflanked	 bex	 6	 0.500000	 0.000000	 unflanked_bex_freq_6_amplitude_0.5_rep_3_b_D.png	 D	 b	 r	 n.a.	 8.837761e-01
5	 2	 230	 unflanked	 bex	 6	 2.000000	 0.000000	 unflanked_bex_freq_6_amplitude_2_rep_6_l_N.png	 N	 l	 l	 n.a.	 2.699552e-01
5	 2	 231	 unflanked	 bex	 32	 3.000000	 0.000000	 unflanked_bex_freq_32_amplitude_3_rep_4_t_D.png	 D	 t	 t	 n.a.	 5.068710e-01
5	 2	 232	 unflanked	 bex	 16	 0.500000	 0.000000	 unflanked_bex_freq_16_amplitude_0.5_rep_8_l_D.png	 D	 l	 l	 n.a.	 3.079381e-01
5	 2	 233	 unflanked	 bex	 6	 2.500000	 0.000000	 unflanked_bex_freq_6_amplitude_2.5_rep_7_r_N.png	 N	 r	 r	 n.a.	 3.378165e-01
5	 2	 234	 unflanked	 bex	 4	 1.000000	 0.000000	 unflanked_bex_freq_4_amplitude_1_rep_3_l_K.png	 K	 l	 l	 n.a.	 5.444106e-01
5	 2	 235	 unflanked	 bex	 4	 0.500000	 0.000000	 unflanked_bex_freq_4_amplitude_0.5_rep_1_t_N.png	 N	 t	 l	 n.a.	 4.006610e-01
5	 2	 236	 unflanked	 bex	 16	 5.000000	 0.000000	 unflanked_bex_freq_16_amplitude_5_rep_5_r_N.png	 N	 r	 r	 n.a.	 2.645585e-01
5	 2	 237	 unflanked	 bex	 2	 0.500000	 0.000000	 unflanked_bex_freq_2_amplitude_0.5_rep_9_t_H.png	 H	 t	 l	 n.a.	 4.799166e-01
5	 2	 238	 unflanked	 bex	 6	 0.500000	 0.000000	 unflanked_bex_freq_6_amplitude_0.5_rep_5_t_N.png	 N	 t	 b	 n.a.	 5.828608e-01
5	 2	 239	 unflanked	 bex	 6	 3.000000	 0.000000	 unflanked_bex_freq_6_amplitude_3_rep_0_b_K.png	 K	 b	 b	 n.a.	 3.981570e-01
5	 2	 240	 unflanked	 bex	 16	 5.000000	 0.000000	 unflanked_bex_freq_16_amplitude_5_rep_2_t_D.png	 D	 t	 t	 n.a.	 5.650810e-01
5	 2	 241	 unflanked	 bex	 16	 1.500000	 0.000000	 unflanked_bex_freq_16_amplitude_1.5_rep_9_t_H.png	 H	 t	 l	 n.a.	 7.188822e-01
5	 2	 242	 unflanked	 bex	 32	 1.500000	 0.000000	 unflanked_bex_freq_32_amplitude_1.5_rep_6_l_D.png	 D	 l	 l	 n.a.	 4.315667e-01
5	 2	 243	 unflanked	 bex	 16	 5.000000	 0.000000	 unflanked_bex_freq_16_amplitude_5_rep_3_l_H.png	 H	 l	 l	 n.a.	 2.706790e-01
5	 2	 244	 unflanked	 bex	 6	 3.000000	 0.000000	 unflanked_bex_freq_6_amplitude_3_rep_9_l_K.png	 K	 l	 l	 n.a.	 2.216748e-01
5	 2	 245	 unflanked	 bex	 4	 5.000000	 0.000000	 unflanked_bex_freq_4_amplitude_5_rep_0_t_D.png	 D	 t	 t	 n.a.	 5.482506e-01
5	 2	 246	 unflanked	 bex	 2	 1.500000	 0.000000	 unflanked_bex_freq_2_amplitude_1.5_rep_7_b_N.png	 N	 b	 l	 n.a.	 3.807503e-01
5	 2	 247	 unflanked	 bex	 8	 0.500000	 0.000000	 unflanked_bex_freq_8_amplitude_0.5_rep_7_l_K.png	 K	 l	 r	 n.a.	 6.280151e-01
5	 2	 248	 unflanked	 bex	 32	 0.500000	 0.000000	 unflanked_bex_freq_32_amplitude_0.5_rep_8_l_D.png	 D	 l	 r	 n.a.	 3.564149e-01
5	 2	 249	 unflanked	 bex	 32	 1.500000	 0.000000	 unflanked_bex_freq_32_amplitude_1.5_rep_7_t_H.png	 H	 t	 l	 n.a.	 6.725452e-01
5	 2	 250	 unflanked	 bex	 8	 2.500000	 0.000000	 unflanked_bex_freq_8_amplitude_2.5_rep_3_t_H.png	 H	 t	 t	 n.a.	 5.119120e-01
5	 2	 251	 unflanked	 bex	 16	 5.000000	 0.000000	 unflanked_bex_freq_16_amplitude_5_rep_8_l_D.png	 D	 l	 l	 n.a.	 2.899440e-01
5	 2	 252	 unflanked	 bex	 2	 0.500000	 0.000000	 unflanked_bex_freq_2_amplitude_0.5_rep_0_l_N.png	 N	 l	 b	 n.a.	 3.172789e-01
5	 2	 253	 unflanked	 bex	 32	 2.000000	 0.000000	 unflanked_bex_freq_32_amplitude_2_rep_7_b_H.png	 H	 b	 r	 n.a.	 4.844628e-01
5	 2	 254	 unflanked	 bex	 6	 0.500000	 0.000000	 unflanked_bex_freq_6_amplitude_0.5_rep_1_r_K.png	 K	 r	 l	 n.a.	 9.003663e-01
5	 2	 255	 unflanked	 bex	 8	 5.000000	 0.000000	 unflanked_bex_freq_8_amplitude_5_rep_8_b_D.png	 D	 b	 b	 n.a.	 3.085502e-01
5	 2	 256	 unflanked	 bex	 16	 3.000000	 0.000000	 unflanked_bex_freq_16_amplitude_3_rep_1_r_K.png	 K	 r	 r	 n.a.	 3.101856e-01
5	 2	 257	 unflanked	 bex	 16	 2.000000	 0.000000	 unflanked_bex_freq_16_amplitude_2_rep_6_l_N.png	 N	 l	 l	 n.a.	 3.293923e-01
5	 2	 258	 unflanked	 bex	 8	 5.000000	 0.000000	 unflanked_bex_freq_8_amplitude_5_rep_7_r_K.png	 K	 r	 r	 n.a.	 3.232817e-01
5	 2	 259	 unflanked	 bex	 16	 2.500000	 0.000000	 unflanked_bex_freq_16_amplitude_2.5_rep_4_r_H.png	 H	 r	 r	 n.a.	 2.854992e-01
5	 2	 260	 unflanked	 bex	 2	 5.000000	 0.000000	 unflanked_bex_freq_2_amplitude_5_rep_8_t_D.png	 D	 t	 t	 n.a.	 5.494995e-01
5	 2	 261	 unflanked	 bex	 2	 0.500000	 0.000000	 unflanked_bex_freq_2_amplitude_0.5_rep_8_t_D.png	 D	 t	 t	 n.a.	 8.925028e-01
5	 2	 262	 unflanked	 bex	 6	 2.000000	 0.000000	 unflanked_bex_freq_6_amplitude_2_rep_8_b_N.png	 N	 b	 b	 n.a.	 4.431233e-01
5	 2	 263	 unflanked	 bex	 16	 2.000000	 0.000000	 unflanked_bex_freq_16_amplitude_2_rep_8_b_D.png	 D	 b	 r	 n.a.	 1.073937e+00
5	 2	 264	 unflanked	 bex	 6	 2.000000	 0.000000	 unflanked_bex_freq_6_amplitude_2_rep_2_l_K.png	 K	 l	 l	 n.a.	 2.584704e-01
5	 2	 265	 unflanked	 bex	 32	 1.000000	 0.000000	 unflanked_bex_freq_32_amplitude_1_rep_8_l_H.png	 H	 l	 r	 n.a.	 8.834981e-01
5	 2	 266	 unflanked	 bex	 16	 1.500000	 0.000000	 unflanked_bex_freq_16_amplitude_1.5_rep_4_l_D.png	 D	 l	 l	 n.a.	 4.058430e-01
5	 2	 267	 unflanked	 bex	 16	 2.000000	 0.000000	 unflanked_bex_freq_16_amplitude_2_rep_1_b_K.png	 K	 b	 b	 n.a.	 4.098148e-01
5	 2	 268	 unflanked	 bex	 6	 5.000000	 0.000000	 unflanked_bex_freq_6_amplitude_5_rep_2_t_K.png	 K	 t	 t	 n.a.	 5.390320e-01
5	 2	 269	 unflanked	 bex	 4	 3.000000	 0.000000	 unflanked_bex_freq_4_amplitude_3_rep_0_r_H.png	 H	 r	 r	 n.a.	 3.179451e-01
5	 2	 270	 unflanked	 bex	 32	 5.000000	 0.000000	 unflanked_bex_freq_32_amplitude_5_rep_0_b_D.png	 D	 b	 b	 n.a.	 5.463961e-01
5	 2	 271	 unflanked	 bex	 2	 1.500000	 0.000000	 unflanked_bex_freq_2_amplitude_1.5_rep_3_b_H.png	 H	 b	 t	 n.a.	 6.894079e-01
5	 2	 272	 unflanked	 bex	 8	 3.000000	 0.000000	 unflanked_bex_freq_8_amplitude_3_rep_4_b_N.png	 N	 b	 b	 n.a.	 2.925374e-01
5	 2	 273	 unflanked	 bex	 32	 5.000000	 0.000000	 unflanked_bex_freq_32_amplitude_5_rep_2_r_K.png	 K	 r	 r	 n.a.	 3.977299e-01
5	 2	 274	 unflanked	 bex	 4	 0.500000	 0.000000	 unflanked_bex_freq_4_amplitude_0.5_rep_4_l_K.png	 K	 l	 l	 n.a.	 5.433035e-01
5	 2	 275	 unflanked	 bex	 8	 2.000000	 0.000000	 unflanked_bex_freq_8_amplitude_2_rep_3_t_H.png	 H	 t	 t	 n.a.	 8.256895e-01
5	 2	 276	 unflanked	 bex	 16	 1.500000	 0.000000	 unflanked_bex_freq_16_amplitude_1.5_rep_3_t_D.png	 D	 t	 b	 n.a.	 8.406890e-01
5	 2	 277	 unflanked	 bex	 8	 2.500000	 0.000000	 unflanked_bex_freq_8_amplitude_2.5_rep_1_t_H.png	 H	 t	 t	 n.a.	 3.653924e-01
5	 2	 278	 unflanked	 bex	 4	 2.000000	 0.000000	 unflanked_bex_freq_4_amplitude_2_rep_8_b_K.png	 K	 b	 b	 n.a.	 5.803511e-01
5	 2	 279	 unflanked	 bex	 4	 3.000000	 0.000000	 unflanked_bex_freq_4_amplitude_3_rep_5_r_K.png	 K	 r	 r	 n.a.	 2.441054e-01
5	 2	 280	 unflanked	 bex	 6	 2.000000	 0.000000	 unflanked_bex_freq_6_amplitude_2_rep_5_l_N.png	 N	 l	 l	 n.a.	 2.570051e-01
5	 2	 281	 unflanked	 bex	 8	 0.500000	 0.000000	 unflanked_bex_freq_8_amplitude_0.5_rep_2_b_K.png	 K	 b	 r	 n.a.	 6.295553e-01
5	 2	 282	 unflanked	 bex	 4	 1.000000	 0.000000	 unflanked_bex_freq_4_amplitude_1_rep_6_l_N.png	 N	 l	 l	 n.a.	 3.015218e-01
5	 2	 283	 unflanked	 bex	 32	 2.000000	 0.000000	 unflanked_bex_freq_32_amplitude_2_rep_8_b_H.png	 H	 b	 b	 n.a.	 4.936685e-01
5	 2	 284	 unflanked	 bex	 6	 2.000000	 0.000000	 unflanked_bex_freq_6_amplitude_2_rep_3_t_K.png	 K	 t	 t	 n.a.	 4.854140e-01
5	 2	 285	 unflanked	 bex	 8	 0.500000	 0.000000	 unflanked_bex_freq_8_amplitude_0.5_rep_1_r_D.png	 D	 r	 b	 n.a.	 8.194789e-01
5	 2	 286	 unflanked	 bex	 4	 3.000000	 0.000000	 unflanked_bex_freq_4_amplitude_3_rep_9_t_H.png	 H	 t	 t	 n.a.	 4.268017e-01
5	 2	 287	 unflanked	 bex	 32	 1.000000	 0.000000	 unflanked_bex_freq_32_amplitude_1_rep_2_t_N.png	 N	 t	 b	 n.a.	 3.575499e-01
5	 2	 288	 unflanked	 bex	 8	 3.000000	 0.000000	 unflanked_bex_freq_8_amplitude_3_rep_9_b_N.png	 N	 b	 b	 n.a.	 3.378093e-01
5	 2	 289	 unflanked	 bex	 6	 1.500000	 0.000000	 unflanked_bex_freq_6_amplitude_1.5_rep_6_t_K.png	 K	 t	 t	 n.a.	 4.926232e-01
5	 2	 290	 unflanked	 bex	 16	 2.000000	 0.000000	 unflanked_bex_freq_16_amplitude_2_rep_4_b_D.png	 D	 b	 r	 n.a.	 3.591924e-01
5	 2	 291	 unflanked	 bex	 8	 3.000000	 0.000000	 unflanked_bex_freq_8_amplitude_3_rep_7_t_D.png	 D	 t	 t	 n.a.	 5.283942e-01
5	 2	 292	 unflanked	 bex	 32	 1.500000	 0.000000	 unflanked_bex_freq_32_amplitude_1.5_rep_8_l_H.png	 H	 l	 r	 n.a.	 7.137845e-01
5	 2	 293	 unflanked	 bex	 8	 1.500000	 0.000000	 unflanked_bex_freq_8_amplitude_1.5_rep_7_r_K.png	 K	 r	 r	 n.a.	 7.581273e-01
5	 2	 294	 unflanked	 bex	 4	 2.500000	 0.000000	 unflanked_bex_freq_4_amplitude_2.5_rep_1_r_H.png	 H	 r	 r	 n.a.	 2.994284e-01
5	 2	 295	 unflanked	 bex	 2	 1.500000	 0.000000	 unflanked_bex_freq_2_amplitude_1.5_rep_2_r_K.png	 K	 r	 l	 n.a.	 3.777427e-01
5	 2	 296	 unflanked	 bex	 6	 0.500000	 0.000000	 unflanked_bex_freq_6_amplitude_0.5_rep_0_t_N.png	 N	 t	 b	 n.a.	 5.776439e-01
5	 2	 297	 unflanked	 bex	 32	 2.500000	 0.000000	 unflanked_bex_freq_32_amplitude_2.5_rep_0_t_K.png	 K	 t	 l	 n.a.	 6.738220e-01
5	 2	 298	 unflanked	 bex	 8	 1.500000	 0.000000	 unflanked_bex_freq_8_amplitude_1.5_rep_6_r_D.png	 D	 r	 r	 n.a.	 2.714220e-01
5	 2	 299	 unflanked	 bex	 4	 2.500000	 0.000000	 unflanked_bex_freq_4_amplitude_2.5_rep_3_r_H.png	 H	 r	 r	 n.a.	 2.356344e-01
5	 2	 300	 unflanked	 bex	 16	 0.500000	 0.000000	 unflanked_bex_freq_16_amplitude_0.5_rep_2_r_N.png	 N	 r	 t	 n.a.	 7.457528e-01
5	 2	 301	 unflanked	 bex	 2	 2.500000	 0.000000	 unflanked_bex_freq_2_amplitude_2.5_rep_6_l_H.png	 H	 l	 l	 n.a.	 2.741451e-01
5	 2	 302	 unflanked	 bex	 2	 3.000000	 0.000000	 unflanked_bex_freq_2_amplitude_3_rep_3_r_N.png	 N	 r	 r	 n.a.	 2.346094e-01
5	 2	 303	 unflanked	 bex	 2	 2.500000	 0.000000	 unflanked_bex_freq_2_amplitude_2.5_rep_5_b_K.png	 K	 b	 b	 n.a.	 5.200626e-01
5	 2	 304	 unflanked	 bex	 8	 0.500000	 0.000000	 unflanked_bex_freq_8_amplitude_0.5_rep_0_b_N.png	 N	 b	 t	 n.a.	 5.979603e-01
5	 2	 305	 unflanked	 bex	 8	 1.500000	 0.000000	 unflanked_bex_freq_8_amplitude_1.5_rep_5_t_K.png	 K	 t	 r	 n.a.	 7.448242e-01
5	 2	 306	 unflanked	 bex	 16	 0.500000	 0.000000	 unflanked_bex_freq_16_amplitude_0.5_rep_9_b_K.png	 K	 b	 b	 n.a.	 4.215725e-01
5	 2	 307	 unflanked	 bex	 8	 1.500000	 0.000000	 unflanked_bex_freq_8_amplitude_1.5_rep_0_r_K.png	 K	 r	 r	 n.a.	 3.847137e-01
5	 2	 308	 unflanked	 bex	 4	 2.500000	 0.000000	 unflanked_bex_freq_4_amplitude_2.5_rep_4_b_D.png	 D	 b	 b	 n.a.	 4.802143e-01
5	 2	 309	 unflanked	 bex	 32	 2.500000	 0.000000	 unflanked_bex_freq_32_amplitude_2.5_rep_8_b_N.png	 N	 b	 b	 n.a.	 5.325450e-01
5	 2	 310	 unflanked	 bex	 32	 2.000000	 0.000000	 unflanked_bex_freq_32_amplitude_2_rep_2_t_H.png	 H	 t	 r	 n.a.	 7.529206e-01
5	 2	 311	 unflanked	 bex	 2	 1.000000	 0.000000	 unflanked_bex_freq_2_amplitude_1_rep_0_r_D.png	 D	 r	 r	 n.a.	 5.562710e-01
5	 2	 312	 unflanked	 bex	 6	 1.000000	 0.000000	 unflanked_bex_freq_6_amplitude_1_rep_6_r_N.png	 N	 r	 r	 n.a.	 6.025306e-01
5	 2	 313	 unflanked	 bex	 4	 5.000000	 0.000000	 unflanked_bex_freq_4_amplitude_5_rep_1_l_N.png	 N	 l	 l	 n.a.	 2.678505e-01
5	 2	 314	 unflanked	 bex	 4	 2.000000	 0.000000	 unflanked_bex_freq_4_amplitude_2_rep_3_r_H.png	 H	 r	 r	 n.a.	 2.831682e-01
5	 2	 315	 unflanked	 bex	 6	 3.000000	 0.000000	 unflanked_bex_freq_6_amplitude_3_rep_7_l_H.png	 H	 l	 l	 n.a.	 3.752868e-01
5	 2	 316	 unflanked	 bex	 4	 3.000000	 0.000000	 unflanked_bex_freq_4_amplitude_3_rep_7_t_D.png	 D	 t	 t	 n.a.	 4.842499e-01
5	 2	 317	 unflanked	 bex	 16	 1.500000	 0.000000	 unflanked_bex_freq_16_amplitude_1.5_rep_0_b_H.png	 H	 b	 r	 n.a.	 3.242313e-01
5	 2	 318	 unflanked	 bex	 2	 5.000000	 0.000000	 unflanked_bex_freq_2_amplitude_5_rep_6_b_D.png	 D	 b	 b	 n.a.	 4.835730e-01
5	 2	 319	 unflanked	 bex	 4	 1.500000	 0.000000	 unflanked_bex_freq_4_amplitude_1.5_rep_7_b_N.png	 N	 b	 b	 n.a.	 7.606660e-01
5	 2	 320	 unflanked	 bex	 2	 0.500000	 0.000000	 unflanked_bex_freq_2_amplitude_0.5_rep_1_r_H.png	 H	 r	 t	 n.a.	 7.194527e-01
5	 2	 321	 unflanked	 bex	 16	 3.000000	 0.000000	 unflanked_bex_freq_16_amplitude_3_rep_2_t_D.png	 D	 t	 b	 n.a.	 5.196476e-01
5	 2	 322	 unflanked	 bex	 32	 1.000000	 0.000000	 unflanked_bex_freq_32_amplitude_1_rep_4_r_D.png	 D	 r	 r	 n.a.	 6.242157e-01
5	 2	 323	 unflanked	 bex	 6	 0.500000	 0.000000	 unflanked_bex_freq_6_amplitude_0.5_rep_2_t_K.png	 K	 t	 b	 n.a.	 6.149522e-01
5	 2	 324	 unflanked	 bex	 6	 0.500000	 0.000000	 unflanked_bex_freq_6_amplitude_0.5_rep_9_t_H.png	 H	 t	 l	 n.a.	 3.943486e-01
5	 2	 325	 unflanked	 bex	 8	 5.000000	 0.000000	 unflanked_bex_freq_8_amplitude_5_rep_3_l_N.png	 N	 l	 l	 n.a.	 3.191634e-01
5	 2	 326	 unflanked	 bex	 8	 3.000000	 0.000000	 unflanked_bex_freq_8_amplitude_3_rep_6_b_H.png	 H	 b	 b	 n.a.	 4.738790e-01
5	 2	 327	 unflanked	 bex	 2	 2.500000	 0.000000	 unflanked_bex_freq_2_amplitude_2.5_rep_9_r_N.png	 N	 r	 r	 n.a.	 3.752141e-01
5	 2	 328	 unflanked	 bex	 4	 3.000000	 0.000000	 unflanked_bex_freq_4_amplitude_3_rep_2_t_D.png	 D	 t	 t	 n.a.	 5.181739e-01
5	 2	 329	 unflanked	 bex	 16	 3.000000	 0.000000	 unflanked_bex_freq_16_amplitude_3_rep_7_l_H.png	 H	 l	 l	 n.a.	 2.177224e-01
5	 2	 330	 unflanked	 bex	 32	 2.000000	 0.000000	 unflanked_bex_freq_32_amplitude_2_rep_4_t_H.png	 H	 t	 r	 n.a.	 3.617492e-01
5	 2	 331	 unflanked	 bex	 2	 1.000000	 0.000000	 unflanked_bex_freq_2_amplitude_1_rep_8_l_D.png	 D	 l	 t	 n.a.	 4.114189e-01
5	 2	 332	 unflanked	 bex	 32	 1.000000	 0.000000	 unflanked_bex_freq_32_amplitude_1_rep_1_l_K.png	 K	 l	 l	 n.a.	 3.295601e-01
5	 2	 333	 unflanked	 bex	 6	 1.500000	 0.000000	 unflanked_bex_freq_6_amplitude_1.5_rep_0_t_D.png	 D	 t	 t	 n.a.	 4.810497e-01
5	 2	 334	 unflanked	 bex	 8	 2.000000	 0.000000	 unflanked_bex_freq_8_amplitude_2_rep_4_b_H.png	 H	 b	 b	 n.a.	 5.383930e-01
5	 2	 335	 unflanked	 bex	 2	 1.500000	 0.000000	 unflanked_bex_freq_2_amplitude_1.5_rep_8_l_K.png	 K	 l	 l	 n.a.	 4.618232e-01
5	 2	 336	 unflanked	 bex	 16	 5.000000	 0.000000	 unflanked_bex_freq_16_amplitude_5_rep_7_l_N.png	 N	 l	 l	 n.a.	 3.382412e-01
5	 2	 337	 unflanked	 bex	 32	 1.000000	 0.000000	 unflanked_bex_freq_32_amplitude_1_rep_0_t_D.png	 D	 t	 l	 n.a.	 4.433677e-01
5	 2	 338	 unflanked	 bex	 6	 0.500000	 0.000000	 unflanked_bex_freq_6_amplitude_0.5_rep_4_t_K.png	 K	 t	 r	 n.a.	 4.065021e-01
5	 2	 339	 unflanked	 bex	 4	 1.500000	 0.000000	 unflanked_bex_freq_4_amplitude_1.5_rep_3_b_K.png	 K	 b	 t	 n.a.	 7.779048e-01
5	 2	 340	 unflanked	 bex	 4	 3.000000	 0.000000	 unflanked_bex_freq_4_amplitude_3_rep_1_r_K.png	 K	 r	 r	 n.a.	 3.598043e-01
5	 2	 341	 unflanked	 bex	 2	 5.000000	 0.000000	 unflanked_bex_freq_2_amplitude_5_rep_3_l_N.png	 N	 l	 l	 n.a.	 2.939991e-01
5	 2	 342	 unflanked	 bex	 8	 1.000000	 0.000000	 unflanked_bex_freq_8_amplitude_1_rep_1_l_H.png	 H	 l	 t	 n.a.	 8.485345e-01
5	 2	 343	 unflanked	 bex	 16	 1.000000	 0.000000	 unflanked_bex_freq_16_amplitude_1_rep_9_t_H.png	 H	 t	 l	 n.a.	 4.814614e-01
5	 2	 344	 unflanked	 bex	 6	 1.500000	 0.000000	 unflanked_bex_freq_6_amplitude_1.5_rep_3_t_N.png	 N	 t	 b	 n.a.	 5.709842e-01
5	 2	 345	 unflanked	 bex	 32	 0.500000	 0.000000	 unflanked_bex_freq_32_amplitude_0.5_rep_9_t_N.png	 N	 t	 b	 n.a.	 7.745500e-01
5	 2	 346	 unflanked	 bex	 2	 2.500000	 0.000000	 unflanked_bex_freq_2_amplitude_2.5_rep_1_b_K.png	 K	 b	 b	 n.a.	 1.167372e+00
5	 2	 347	 unflanked	 bex	 6	 1.000000	 0.000000	 unflanked_bex_freq_6_amplitude_1_rep_1_l_N.png	 N	 l	 l	 n.a.	 3.294356e-01
5	 2	 348	 unflanked	 bex	 16	 0.500000	 0.000000	 unflanked_bex_freq_16_amplitude_0.5_rep_4_l_K.png	 K	 l	 l	 n.a.	 7.994457e-01
5	 2	 349	 unflanked	 bex	 4	 3.000000	 0.000000	 unflanked_bex_freq_4_amplitude_3_rep_8_l_N.png	 N	 l	 l	 n.a.	 3.014787e-01
5	 2	 350	 unflanked	 bex	 2	 2.500000	 0.000000	 unflanked_bex_freq_2_amplitude_2.5_rep_0_r_H.png	 H	 r	 r	 n.a.	 3.083750e-01
5	 2	 351	 unflanked	 bex	 6	 1.000000	 0.000000	 unflanked_bex_freq_6_amplitude_1_rep_7_t_H.png	 H	 t	 r	 n.a.	 3.477387e-01
5	 2	 352	 unflanked	 bex	 8	 3.000000	 0.000000	 unflanked_bex_freq_8_amplitude_3_rep_5_b_N.png	 N	 b	 b	 n.a.	 3.254802e-01
5	 2	 353	 unflanked	 bex	 6	 2.000000	 0.000000	 unflanked_bex_freq_6_amplitude_2_rep_0_r_H.png	 H	 r	 l	 n.a.	 7.768307e-01
5	 2	 354	 unflanked	 bex	 8	 1.500000	 0.000000	 unflanked_bex_freq_8_amplitude_1.5_rep_1_b_K.png	 K	 b	 b	 n.a.	 3.558932e-01
5	 2	 355	 unflanked	 bex	 4	 2.500000	 0.000000	 unflanked_bex_freq_4_amplitude_2.5_rep_9_l_H.png	 H	 l	 l	 n.a.	 2.969838e-01
5	 2	 356	 unflanked	 bex	 16	 5.000000	 0.000000	 unflanked_bex_freq_16_amplitude_5_rep_1_l_H.png	 H	 l	 l	 n.a.	 2.004987e-01
5	 2	 357	 unflanked	 bex	 2	 3.000000	 0.000000	 unflanked_bex_freq_2_amplitude_3_rep_1_l_K.png	 K	 l	 l	 n.a.	 3.756165e-01
5	 2	 358	 unflanked	 bex	 2	 1.000000	 0.000000	 unflanked_bex_freq_2_amplitude_1_rep_4_b_D.png	 D	 b	 b	 n.a.	 4.073777e-01
5	 2	 359	 unflanked	 bex	 16	 2.500000	 0.000000	 unflanked_bex_freq_16_amplitude_2.5_rep_8_t_K.png	 K	 t	 t	 n.a.	 4.660507e-01
5	 2	 360	 unflanked	 bex	 32	 2.000000	 0.000000	 unflanked_bex_freq_32_amplitude_2_rep_0_r_N.png	 N	 r	 r	 n.a.	 4.916769e-01
5	 2	 361	 unflanked	 bex	 32	 1.000000	 0.000000	 unflanked_bex_freq_32_amplitude_1_rep_3_l_H.png	 H	 l	 b	 n.a.	 4.330074e-01
5	 2	 362	 unflanked	 bex	 8	 2.000000	 0.000000	 unflanked_bex_freq_8_amplitude_2_rep_2_t_N.png	 N	 t	 t	 n.a.	 4.606987e-01
5	 2	 363	 unflanked	 bex	 6	 5.000000	 0.000000	 unflanked_bex_freq_6_amplitude_5_rep_1_r_D.png	 D	 r	 r	 n.a.	 2.379500e-01
5	 2	 364	 unflanked	 bex	 16	 2.500000	 0.000000	 unflanked_bex_freq_16_amplitude_2.5_rep_9_l_D.png	 D	 l	 l	 n.a.	 2.863095e-01
5	 2	 365	 unflanked	 bex	 8	 1.000000	 0.000000	 unflanked_bex_freq_8_amplitude_1_rep_3_r_N.png	 N	 r	 t	 n.a.	 4.319337e-01
5	 2	 366	 unflanked	 bex	 32	 2.500000	 0.000000	 unflanked_bex_freq_32_amplitude_2.5_rep_4_r_N.png	 N	 r	 r	 n.a.	 2.873303e-01
5	 2	 367	 unflanked	 bex	 4	 0.500000	 0.000000	 unflanked_bex_freq_4_amplitude_0.5_rep_2_r_D.png	 D	 r	 t	 n.a.	 5.225536e-01
5	 2	 368	 unflanked	 bex	 4	 5.000000	 0.000000	 unflanked_bex_freq_4_amplitude_5_rep_3_t_N.png	 N	 t	 t	 n.a.	 3.934281e-01
5	 2	 369	 unflanked	 bex	 2	 1.500000	 0.000000	 unflanked_bex_freq_2_amplitude_1.5_rep_1_t_N.png	 N	 t	 l	 n.a.	 7.241788e-01
5	 2	 370	 unflanked	 bex	 6	 0.500000	 0.000000	 unflanked_bex_freq_6_amplitude_0.5_rep_7_l_D.png	 D	 l	 t	 n.a.	 4.171621e-01
5	 2	 371	 unflanked	 bex	 6	 3.000000	 0.000000	 unflanked_bex_freq_6_amplitude_3_rep_1_t_H.png	 H	 t	 t	 n.a.	 4.253030e-01
5	 2	 372	 unflanked	 bex	 8	 2.500000	 0.000000	 unflanked_bex_freq_8_amplitude_2.5_rep_5_b_D.png	 D	 b	 r	 n.a.	 6.912323e-01
5	 2	 373	 unflanked	 bex	 32	 5.000000	 0.000000	 unflanked_bex_freq_32_amplitude_5_rep_6_b_N.png	 N	 b	 b	 n.a.	 5.393695e-01
5	 2	 374	 unflanked	 bex	 2	 2.000000	 0.000000	 unflanked_bex_freq_2_amplitude_2_rep_0_r_N.png	 N	 r	 l	 n.a.	 8.468709e-01
5	 2	 375	 unflanked	 bex	 32	 2.500000	 0.000000	 unflanked_bex_freq_32_amplitude_2.5_rep_1_l_H.png	 H	 l	 l	 n.a.	 3.537122e-01
5	 2	 376	 unflanked	 bex	 4	 0.500000	 0.000000	 unflanked_bex_freq_4_amplitude_0.5_rep_9_r_K.png	 K	 r	 t	 n.a.	 4.426692e-01
5	 2	 377	 unflanked	 bex	 16	 1.500000	 0.000000	 unflanked_bex_freq_16_amplitude_1.5_rep_2_b_K.png	 K	 b	 b	 n.a.	 8.622879e-01
5	 2	 378	 unflanked	 bex	 8	 0.500000	 0.000000	 unflanked_bex_freq_8_amplitude_0.5_rep_5_b_N.png	 N	 b	 r	 n.a.	 5.961398e-01
5	 2	 379	 unflanked	 bex	 4	 0.500000	 0.000000	 unflanked_bex_freq_4_amplitude_0.5_rep_5_r_K.png	 K	 r	 r	 n.a.	 6.125003e-01
5	 2	 380	 unflanked	 bex	 8	 1.500000	 0.000000	 unflanked_bex_freq_8_amplitude_1.5_rep_3_l_N.png	 N	 l	 l	 n.a.	 2.553510e-01
5	 2	 381	 unflanked	 bex	 6	 2.500000	 0.000000	 unflanked_bex_freq_6_amplitude_2.5_rep_4_t_K.png	 K	 t	 t	 n.a.	 4.721316e-01
5	 2	 382	 unflanked	 bex	 4	 1.500000	 0.000000	 unflanked_bex_freq_4_amplitude_1.5_rep_9_r_K.png	 K	 r	 r	 n.a.	 2.931376e-01
5	 2	 383	 unflanked	 bex	 16	 3.000000	 0.000000	 unflanked_bex_freq_16_amplitude_3_rep_4_l_N.png	 N	 l	 l	 n.a.	 2.720616e-01
5	 2	 384	 unflanked	 bex	 32	 2.000000	 0.000000	 unflanked_bex_freq_32_amplitude_2_rep_1_r_K.png	 K	 r	 r	 n.a.	 4.118045e-01
5	 2	 385	 unflanked	 bex	 6	 1.000000	 0.000000	 unflanked_bex_freq_6_amplitude_1_rep_8_r_K.png	 K	 r	 r	 n.a.	 3.465487e-01
5	 2	 386	 unflanked	 bex	 16	 5.000000	 0.000000	 unflanked_bex_freq_16_amplitude_5_rep_4_t_K.png	 K	 t	 t	 n.a.	 4.834377e-01
5	 2	 387	 unflanked	 bex	 2	 2.500000	 0.000000	 unflanked_bex_freq_2_amplitude_2.5_rep_4_l_D.png	 D	 l	 l	 n.a.	 6.640551e-01
5	 2	 388	 unflanked	 bex	 4	 2.500000	 0.000000	 unflanked_bex_freq_4_amplitude_2.5_rep_2_t_N.png	 N	 t	 t	 n.a.	 5.032249e-01
5	 2	 389	 unflanked	 bex	 6	 2.000000	 0.000000	 unflanked_bex_freq_6_amplitude_2_rep_4_b_K.png	 K	 b	 b	 n.a.	 5.826822e-01
5	 2	 390	 unflanked	 bex	 16	 0.500000	 0.000000	 unflanked_bex_freq_16_amplitude_0.5_rep_5_l_K.png	 K	 l	 r	 n.a.	 3.617215e-01
5	 2	 391	 unflanked	 bex	 16	 1.000000	 0.000000	 unflanked_bex_freq_16_amplitude_1_rep_3_r_K.png	 K	 r	 r	 n.a.	 3.170947e-01
5	 2	 392	 unflanked	 bex	 6	 0.500000	 0.000000	 unflanked_bex_freq_6_amplitude_0.5_rep_6_t_N.png	 N	 t	 b	 n.a.	 5.447560e-01
5	 2	 393	 unflanked	 bex	 2	 2.500000	 0.000000	 unflanked_bex_freq_2_amplitude_2.5_rep_7_t_K.png	 K	 t	 t	 n.a.	 5.154275e-01
5	 2	 394	 unflanked	 bex	 4	 2.000000	 0.000000	 unflanked_bex_freq_4_amplitude_2_rep_5_t_H.png	 H	 t	 t	 n.a.	 5.565838e-01
5	 2	 395	 unflanked	 bex	 32	 5.000000	 0.000000	 unflanked_bex_freq_32_amplitude_5_rep_9_l_H.png	 H	 l	 l	 n.a.	 2.612979e-01
5	 2	 396	 unflanked	 bex	 32	 1.500000	 0.000000	 unflanked_bex_freq_32_amplitude_1.5_rep_4_t_D.png	 D	 t	 r	 n.a.	 4.341774e-01
5	 2	 397	 unflanked	 bex	 2	 2.000000	 0.000000	 unflanked_bex_freq_2_amplitude_2_rep_6_b_N.png	 N	 b	 l	 n.a.	 3.124093e-01
5	 2	 398	 unflanked	 bex	 6	 1.500000	 0.000000	 unflanked_bex_freq_6_amplitude_1.5_rep_4_b_N.png	 N	 b	 l	 n.a.	 5.975947e-01
5	 2	 399	 unflanked	 bex	 6	 5.000000	 0.000000	 unflanked_bex_freq_6_amplitude_5_rep_6_t_N.png	 N	 t	 t	 n.a.	 4.010279e-01
5	 2	 400	 unflanked	 bex	 16	 3.000000	 0.000000	 unflanked_bex_freq_16_amplitude_3_rep_3_b_N.png	 N	 b	 r	 n.a.	 3.991330e-01
5	 2	 401	 unflanked	 bex	 8	 2.000000	 0.000000	 unflanked_bex_freq_8_amplitude_2_rep_6_r_K.png	 K	 r	 r	 n.a.	 2.764414e-01
5	 2	 402	 unflanked	 bex	 8	 5.000000	 0.000000	 unflanked_bex_freq_8_amplitude_5_rep_0_l_D.png	 D	 l	 l	 n.a.	 3.084767e-01
5	 2	 403	 unflanked	 bex	 8	 2.500000	 0.000000	 unflanked_bex_freq_8_amplitude_2.5_rep_8_r_K.png	 K	 r	 r	 n.a.	 2.596217e-01
5	 2	 404	 unflanked	 bex	 32	 2.500000	 0.000000	 unflanked_bex_freq_32_amplitude_2.5_rep_7_l_H.png	 H	 l	 l	 n.a.	 3.639934e-01
5	 2	 405	 unflanked	 bex	 2	 1.500000	 0.000000	 unflanked_bex_freq_2_amplitude_1.5_rep_6_t_H.png	 H	 t	 t	 n.a.	 5.251642e-01
5	 2	 406	 unflanked	 bex	 32	 5.000000	 0.000000	 unflanked_bex_freq_32_amplitude_5_rep_1_b_H.png	 H	 b	 b	 n.a.	 5.461217e-01
5	 2	 407	 unflanked	 bex	 4	 5.000000	 0.000000	 unflanked_bex_freq_4_amplitude_5_rep_5_r_K.png	 K	 r	 r	 n.a.	 3.572938e-01
5	 2	 408	 unflanked	 bex	 6	 1.000000	 0.000000	 unflanked_bex_freq_6_amplitude_1_rep_3_b_K.png	 K	 b	 r	 n.a.	 6.243614e-01
5	 2	 409	 unflanked	 bex	 2	 3.000000	 0.000000	 unflanked_bex_freq_2_amplitude_3_rep_4_r_H.png	 H	 r	 r	 n.a.	 2.521218e-01
5	 2	 410	 unflanked	 bex	 32	 3.000000	 0.000000	 unflanked_bex_freq_32_amplitude_3_rep_5_r_N.png	 N	 r	 r	 n.a.	 2.952391e-01
5	 2	 411	 unflanked	 bex	 32	 2.500000	 0.000000	 unflanked_bex_freq_32_amplitude_2.5_rep_9_l_K.png	 K	 l	 l	 n.a.	 3.707417e-01
5	 2	 412	 unflanked	 bex	 8	 1.000000	 0.000000	 unflanked_bex_freq_8_amplitude_1_rep_2_l_K.png	 K	 l	 l	 n.a.	 2.901250e-01
5	 2	 413	 unflanked	 bex	 8	 1.000000	 0.000000	 unflanked_bex_freq_8_amplitude_1_rep_8_b_D.png	 D	 b	 r	 n.a.	 6.627590e-01
5	 2	 414	 unflanked	 bex	 2	 1.500000	 0.000000	 unflanked_bex_freq_2_amplitude_1.5_rep_9_t_H.png	 H	 t	 r	 n.a.	 2.406334e-01
5	 2	 415	 unflanked	 bex	 4	 3.000000	 0.000000	 unflanked_bex_freq_4_amplitude_3_rep_6_b_N.png	 N	 b	 b	 n.a.	 3.866448e-01
5	 2	 416	 unflanked	 bex	 16	 1.500000	 0.000000	 unflanked_bex_freq_16_amplitude_1.5_rep_5_t_H.png	 H	 t	 t	 n.a.	 6.904680e-01
5	 2	 417	 unflanked	 bex	 2	 0.500000	 0.000000	 unflanked_bex_freq_2_amplitude_0.5_rep_4_r_K.png	 K	 r	 r	 n.a.	 6.306069e-01
5	 2	 418	 unflanked	 bex	 32	 1.000000	 0.000000	 unflanked_bex_freq_32_amplitude_1_rep_6_b_K.png	 K	 b	 b	 n.a.	 4.443862e-01
5	 2	 419	 unflanked	 bex	 32	 3.000000	 0.000000	 unflanked_bex_freq_32_amplitude_3_rep_8_t_K.png	 K	 t	 t	 n.a.	 5.130222e-01
5	 2	 420	 unflanked	 bex	 6	 2.000000	 0.000000	 unflanked_bex_freq_6_amplitude_2_rep_1_b_D.png	 D	 b	 b	 n.a.	 5.868780e-01
