subject	 session	 trial	 flanked	 distortion	 freq	 amplitude	 spacing	 im_name	 targ_letter	 targ_pos	 response	 eyemovement	 RT
9	 3	 1	 unflanked	 bex	 4	 3.000000	 0.000000	 unflanked_bex_freq_4_amplitude_3_rep_3_b_D.png	 D	 b	 b	 n.a.	 3.040678e-01
9	 3	 2	 unflanked	 bex	 2	 3.000000	 0.000000	 unflanked_bex_freq_2_amplitude_3_rep_8_t_K.png	 K	 t	 t	 n.a.	 2.595589e-01
9	 3	 3	 unflanked	 bex	 32	 1.500000	 0.000000	 unflanked_bex_freq_32_amplitude_1.5_rep_7_t_H.png	 H	 t	 l	 n.a.	 3.533648e-01
9	 3	 4	 unflanked	 bex	 2	 3.000000	 0.000000	 unflanked_bex_freq_2_amplitude_3_rep_6_b_D.png	 D	 b	 b	 n.a.	 5.947115e-01
9	 3	 5	 unflanked	 bex	 2	 0.500000	 0.000000	 unflanked_bex_freq_2_amplitude_0.5_rep_4_r_K.png	 K	 r	 l	 n.a.	 4.601381e-01
9	 3	 6	 unflanked	 bex	 4	 1.000000	 0.000000	 unflanked_bex_freq_4_amplitude_1_rep_0_b_H.png	 H	 b	 t	 n.a.	 5.774585e-01
9	 3	 7	 unflanked	 bex	 32	 2.000000	 0.000000	 unflanked_bex_freq_32_amplitude_2_rep_2_t_H.png	 H	 t	 b	 n.a.	 4.776888e-01
9	 3	 8	 unflanked	 bex	 32	 1.500000	 0.000000	 unflanked_bex_freq_32_amplitude_1.5_rep_4_t_D.png	 D	 t	 t	 n.a.	 5.506793e-01
9	 3	 9	 unflanked	 bex	 6	 0.500000	 0.000000	 unflanked_bex_freq_6_amplitude_0.5_rep_6_t_N.png	 N	 t	 b	 n.a.	 4.360421e-01
9	 3	 10	 unflanked	 bex	 6	 2.500000	 0.000000	 unflanked_bex_freq_6_amplitude_2.5_rep_4_t_K.png	 K	 t	 t	 n.a.	 2.834641e-01
9	 3	 11	 unflanked	 bex	 16	 3.000000	 0.000000	 unflanked_bex_freq_16_amplitude_3_rep_3_b_N.png	 N	 b	 b	 n.a.	 3.189185e-01
9	 3	 12	 unflanked	 bex	 2	 0.250000	 0.000000	 unflanked_bex_freq_2_amplitude_0.25_rep_2_b_D.png	 D	 b	 b	 n.a.	 7.025486e-01
9	 3	 13	 unflanked	 bex	 6	 1.000000	 0.000000	 unflanked_bex_freq_6_amplitude_1_rep_2_b_D.png	 D	 b	 b	 n.a.	 4.288982e-01
9	 3	 14	 unflanked	 bex	 4	 0.500000	 0.000000	 unflanked_bex_freq_4_amplitude_0.5_rep_5_r_K.png	 K	 r	 b	 n.a.	 7.002011e-01
9	 3	 15	 unflanked	 bex	 32	 1.500000	 0.000000	 unflanked_bex_freq_32_amplitude_1.5_rep_8_l_H.png	 H	 l	 r	 n.a.	 6.219559e-01
9	 3	 16	 unflanked	 bex	 8	 3.000000	 0.000000	 unflanked_bex_freq_8_amplitude_3_rep_4_b_N.png	 N	 b	 b	 n.a.	 2.055490e-01
9	 3	 17	 unflanked	 bex	 4	 2.000000	 0.000000	 unflanked_bex_freq_4_amplitude_2_rep_1_r_D.png	 D	 r	 r	 n.a.	 3.873979e-01
9	 3	 18	 unflanked	 bex	 16	 1.500000	 0.000000	 unflanked_bex_freq_16_amplitude_1.5_rep_0_b_H.png	 H	 b	 b	 n.a.	 6.368326e-01
9	 3	 19	 unflanked	 bex	 4	 2.500000	 0.000000	 unflanked_bex_freq_4_amplitude_2.5_rep_0_b_K.png	 K	 b	 b	 n.a.	 3.291881e-01
9	 3	 20	 unflanked	 bex	 32	 2.000000	 0.000000	 unflanked_bex_freq_32_amplitude_2_rep_8_b_H.png	 H	 b	 b	 n.a.	 1.209418e+00
9	 3	 21	 unflanked	 bex	 32	 2.000000	 0.000000	 unflanked_bex_freq_32_amplitude_2_rep_9_r_K.png	 K	 r	 b	 n.a.	 5.609566e-01
9	 3	 22	 unflanked	 bex	 16	 2.500000	 0.000000	 unflanked_bex_freq_16_amplitude_2.5_rep_4_r_H.png	 H	 r	 r	 n.a.	 3.785436e-01
9	 3	 23	 unflanked	 bex	 8	 3.000000	 0.000000	 unflanked_bex_freq_8_amplitude_3_rep_5_b_N.png	 N	 b	 b	 n.a.	 2.997108e-01
9	 3	 24	 unflanked	 bex	 2	 0.250000	 0.000000	 unflanked_bex_freq_2_amplitude_0.25_rep_0_l_K.png	 K	 l	 t	 n.a.	 2.922255e-01
9	 3	 25	 unflanked	 bex	 6	 1.000000	 0.000000	 unflanked_bex_freq_6_amplitude_1_rep_6_r_N.png	 N	 r	 r	 n.a.	 8.334781e-01
9	 3	 26	 unflanked	 bex	 6	 1.500000	 0.000000	 unflanked_bex_freq_6_amplitude_1.5_rep_6_t_K.png	 K	 t	 r	 n.a.	 9.515607e-01
9	 3	 27	 unflanked	 bex	 8	 0.500000	 0.000000	 unflanked_bex_freq_8_amplitude_0.5_rep_9_t_N.png	 N	 t	 b	 n.a.	 6.562368e-01
9	 3	 28	 unflanked	 bex	 8	 2.000000	 0.000000	 unflanked_bex_freq_8_amplitude_2_rep_5_b_N.png	 N	 b	 b	 n.a.	 2.280016e-01
9	 3	 29	 unflanked	 bex	 6	 3.000000	 0.000000	 unflanked_bex_freq_6_amplitude_3_rep_0_b_K.png	 K	 b	 b	 n.a.	 2.289725e-01
9	 3	 30	 unflanked	 bex	 4	 0.500000	 0.000000	 unflanked_bex_freq_4_amplitude_0.5_rep_2_r_D.png	 D	 r	 r	 n.a.	 4.441625e-01
9	 3	 31	 unflanked	 bex	 32	 1.500000	 0.000000	 unflanked_bex_freq_32_amplitude_1.5_rep_0_l_D.png	 D	 l	 t	 n.a.	 7.031348e-01
9	 3	 32	 unflanked	 bex	 16	 1.000000	 0.000000	 unflanked_bex_freq_16_amplitude_1_rep_4_t_K.png	 K	 t	 r	 n.a.	 3.113545e-01
9	 3	 33	 unflanked	 bex	 2	 3.000000	 0.000000	 unflanked_bex_freq_2_amplitude_3_rep_4_r_H.png	 H	 r	 r	 n.a.	 3.481528e-01
9	 3	 34	 unflanked	 bex	 16	 0.250000	 0.000000	 unflanked_bex_freq_16_amplitude_0.25_rep_7_l_D.png	 D	 l	 b	 n.a.	 5.730199e-01
9	 3	 35	 unflanked	 bex	 2	 1.000000	 0.000000	 unflanked_bex_freq_2_amplitude_1_rep_5_l_D.png	 D	 l	 r	 n.a.	 6.447912e-01
9	 3	 36	 unflanked	 bex	 2	 2.500000	 0.000000	 unflanked_bex_freq_2_amplitude_2.5_rep_4_l_D.png	 D	 l	 l	 n.a.	 4.279468e-01
9	 3	 37	 unflanked	 bex	 8	 2.000000	 0.000000	 unflanked_bex_freq_8_amplitude_2_rep_1_l_D.png	 D	 l	 l	 n.a.	 3.548186e-01
9	 3	 38	 unflanked	 bex	 8	 0.500000	 0.000000	 unflanked_bex_freq_8_amplitude_0.5_rep_6_l_D.png	 D	 l	 l	 n.a.	 8.369924e-01
9	 3	 39	 unflanked	 bex	 8	 0.250000	 0.000000	 unflanked_bex_freq_8_amplitude_0.25_rep_5_l_D.png	 D	 l	 l	 n.a.	 5.564028e-01
9	 3	 40	 unflanked	 bex	 32	 2.500000	 0.000000	 unflanked_bex_freq_32_amplitude_2.5_rep_0_t_K.png	 K	 t	 b	 n.a.	 6.702083e-01
9	 3	 41	 unflanked	 bex	 6	 2.500000	 0.000000	 unflanked_bex_freq_6_amplitude_2.5_rep_2_b_K.png	 K	 b	 b	 n.a.	 2.727162e-01
9	 3	 42	 unflanked	 bex	 6	 0.250000	 0.000000	 unflanked_bex_freq_6_amplitude_0.25_rep_9_t_H.png	 H	 t	 b	 n.a.	 6.215085e-01
9	 3	 43	 unflanked	 bex	 32	 1.500000	 0.000000	 unflanked_bex_freq_32_amplitude_1.5_rep_2_l_D.png	 D	 l	 l	 n.a.	 7.771673e-01
9	 3	 44	 unflanked	 bex	 2	 0.250000	 0.000000	 unflanked_bex_freq_2_amplitude_0.25_rep_8_l_N.png	 N	 l	 t	 n.a.	 4.865926e-01
9	 3	 45	 unflanked	 bex	 2	 1.000000	 0.000000	 unflanked_bex_freq_2_amplitude_1_rep_1_l_D.png	 D	 l	 r	 n.a.	 7.252842e-01
9	 3	 46	 unflanked	 bex	 2	 0.500000	 0.000000	 unflanked_bex_freq_2_amplitude_0.5_rep_0_l_N.png	 N	 l	 b	 n.a.	 3.204975e-01
9	 3	 47	 unflanked	 bex	 8	 1.500000	 0.000000	 unflanked_bex_freq_8_amplitude_1.5_rep_0_r_K.png	 K	 r	 r	 n.a.	 3.570026e-01
9	 3	 48	 unflanked	 bex	 8	 1.000000	 0.000000	 unflanked_bex_freq_8_amplitude_1_rep_9_b_K.png	 K	 b	 t	 n.a.	 7.046079e-01
9	 3	 49	 unflanked	 bex	 2	 2.000000	 0.000000	 unflanked_bex_freq_2_amplitude_2_rep_4_l_N.png	 N	 l	 t	 n.a.	 7.075454e-01
9	 3	 50	 unflanked	 bex	 16	 2.500000	 0.000000	 unflanked_bex_freq_16_amplitude_2.5_rep_3_l_N.png	 N	 l	 l	 n.a.	 3.150882e-01
9	 3	 51	 unflanked	 bex	 6	 1.500000	 0.000000	 unflanked_bex_freq_6_amplitude_1.5_rep_5_b_N.png	 N	 b	 r	 n.a.	 3.224538e-01
9	 3	 52	 unflanked	 bex	 2	 2.500000	 0.000000	 unflanked_bex_freq_2_amplitude_2.5_rep_9_r_N.png	 N	 r	 r	 n.a.	 4.214597e-01
9	 3	 53	 unflanked	 bex	 6	 0.250000	 0.000000	 unflanked_bex_freq_6_amplitude_0.25_rep_6_r_K.png	 K	 r	 r	 n.a.	 4.742550e-01
9	 3	 54	 unflanked	 bex	 32	 2.000000	 0.000000	 unflanked_bex_freq_32_amplitude_2_rep_1_r_K.png	 K	 r	 r	 n.a.	 3.274508e-01
9	 3	 55	 unflanked	 bex	 6	 2.500000	 0.000000	 unflanked_bex_freq_6_amplitude_2.5_rep_0_t_K.png	 K	 t	 t	 n.a.	 2.811556e-01
9	 3	 56	 unflanked	 bex	 8	 2.500000	 0.000000	 unflanked_bex_freq_8_amplitude_2.5_rep_6_l_K.png	 K	 l	 l	 n.a.	 3.223329e-01
9	 3	 57	 unflanked	 bex	 4	 0.250000	 0.000000	 unflanked_bex_freq_4_amplitude_0.25_rep_3_l_D.png	 D	 l	 r	 n.a.	 6.110996e-01
9	 3	 58	 unflanked	 bex	 2	 2.500000	 0.000000	 unflanked_bex_freq_2_amplitude_2.5_rep_2_b_D.png	 D	 b	 r	 n.a.	 5.150193e-01
9	 3	 59	 unflanked	 bex	 4	 0.250000	 0.000000	 unflanked_bex_freq_4_amplitude_0.25_rep_0_b_N.png	 N	 b	 r	 n.a.	 3.084149e-01
9	 3	 60	 unflanked	 bex	 16	 3.000000	 0.000000	 unflanked_bex_freq_16_amplitude_3_rep_5_r_H.png	 H	 r	 r	 n.a.	 2.312739e-01
9	 3	 61	 unflanked	 bex	 2	 0.500000	 0.000000	 unflanked_bex_freq_2_amplitude_0.5_rep_2_t_D.png	 D	 t	 r	 n.a.	 4.078700e-01
9	 3	 62	 unflanked	 bex	 8	 3.000000	 0.000000	 unflanked_bex_freq_8_amplitude_3_rep_0_b_D.png	 D	 b	 b	 n.a.	 2.362420e-01
9	 3	 63	 unflanked	 bex	 6	 0.500000	 0.000000	 unflanked_bex_freq_6_amplitude_0.5_rep_0_t_N.png	 N	 t	 b	 n.a.	 3.930154e-01
9	 3	 64	 unflanked	 bex	 6	 2.000000	 0.000000	 unflanked_bex_freq_6_amplitude_2_rep_7_t_N.png	 N	 t	 t	 n.a.	 2.544516e-01
9	 3	 65	 unflanked	 bex	 2	 0.250000	 0.000000	 unflanked_bex_freq_2_amplitude_0.25_rep_1_l_N.png	 N	 l	 t	 n.a.	 8.117527e-01
9	 3	 66	 unflanked	 bex	 4	 2.500000	 0.000000	 unflanked_bex_freq_4_amplitude_2.5_rep_5_b_N.png	 N	 b	 b	 n.a.	 2.478249e-01
9	 3	 67	 unflanked	 bex	 32	 3.000000	 0.000000	 unflanked_bex_freq_32_amplitude_3_rep_5_r_N.png	 N	 r	 r	 n.a.	 3.222452e-01
9	 3	 68	 unflanked	 bex	 32	 0.250000	 0.000000	 unflanked_bex_freq_32_amplitude_0.25_rep_0_t_N.png	 N	 t	 r	 n.a.	 6.720233e-01
9	 3	 69	 unflanked	 bex	 8	 2.500000	 0.000000	 unflanked_bex_freq_8_amplitude_2.5_rep_9_b_N.png	 N	 b	 b	 n.a.	 2.972305e-01
9	 3	 70	 unflanked	 bex	 2	 1.000000	 0.000000	 unflanked_bex_freq_2_amplitude_1_rep_8_l_D.png	 D	 l	 t	 n.a.	 7.538717e-01
9	 3	 71	 unflanked	 bex	 8	 0.250000	 0.000000	 unflanked_bex_freq_8_amplitude_0.25_rep_4_b_H.png	 H	 b	 t	 n.a.	 4.406803e-01
9	 3	 72	 unflanked	 bex	 4	 0.500000	 0.000000	 unflanked_bex_freq_4_amplitude_0.5_rep_4_l_K.png	 K	 l	 l	 n.a.	 6.064876e-01
9	 3	 73	 unflanked	 bex	 4	 0.250000	 0.000000	 unflanked_bex_freq_4_amplitude_0.25_rep_2_r_N.png	 N	 r	 t	 n.a.	 6.049144e-01
9	 3	 74	 unflanked	 bex	 4	 3.000000	 0.000000	 unflanked_bex_freq_4_amplitude_3_rep_0_r_H.png	 H	 r	 r	 n.a.	 2.762498e-01
9	 3	 75	 unflanked	 bex	 32	 0.250000	 0.000000	 unflanked_bex_freq_32_amplitude_0.25_rep_8_b_K.png	 K	 b	 r	 n.a.	 5.942550e-01
9	 3	 76	 unflanked	 bex	 4	 2.000000	 0.000000	 unflanked_bex_freq_4_amplitude_2_rep_4_l_K.png	 K	 l	 l	 n.a.	 2.490116e-01
9	 3	 77	 unflanked	 bex	 32	 1.500000	 0.000000	 unflanked_bex_freq_32_amplitude_1.5_rep_1_l_K.png	 K	 l	 r	 n.a.	 3.939863e-01
9	 3	 78	 unflanked	 bex	 16	 1.500000	 0.000000	 unflanked_bex_freq_16_amplitude_1.5_rep_4_l_D.png	 D	 l	 l	 n.a.	 4.162420e-01
9	 3	 79	 unflanked	 bex	 6	 2.000000	 0.000000	 unflanked_bex_freq_6_amplitude_2_rep_1_b_D.png	 D	 b	 b	 n.a.	 3.274579e-01
9	 3	 80	 unflanked	 bex	 16	 0.500000	 0.000000	 unflanked_bex_freq_16_amplitude_0.5_rep_4_l_K.png	 K	 l	 r	 n.a.	 7.333298e-01
9	 3	 81	 unflanked	 bex	 4	 2.000000	 0.000000	 unflanked_bex_freq_4_amplitude_2_rep_6_l_D.png	 D	 l	 l	 n.a.	 2.364203e-01
9	 3	 82	 unflanked	 bex	 4	 3.000000	 0.000000	 unflanked_bex_freq_4_amplitude_3_rep_2_t_D.png	 D	 t	 t	 n.a.	 3.005731e-01
9	 3	 83	 unflanked	 bex	 2	 3.000000	 0.000000	 unflanked_bex_freq_2_amplitude_3_rep_9_l_H.png	 H	 l	 l	 n.a.	 2.867270e-01
9	 3	 84	 unflanked	 bex	 8	 2.000000	 0.000000	 unflanked_bex_freq_8_amplitude_2_rep_9_r_N.png	 N	 r	 r	 n.a.	 2.245161e-01
9	 3	 85	 unflanked	 bex	 6	 2.000000	 0.000000	 unflanked_bex_freq_6_amplitude_2_rep_2_l_K.png	 K	 l	 l	 n.a.	 2.432085e-01
9	 3	 86	 unflanked	 bex	 16	 1.000000	 0.000000	 unflanked_bex_freq_16_amplitude_1_rep_7_l_H.png	 H	 l	 l	 n.a.	 3.195534e-01
9	 3	 87	 unflanked	 bex	 32	 0.250000	 0.000000	 unflanked_bex_freq_32_amplitude_0.25_rep_3_r_H.png	 H	 r	 l	 n.a.	 4.057424e-01
9	 3	 88	 unflanked	 bex	 16	 0.500000	 0.000000	 unflanked_bex_freq_16_amplitude_0.5_rep_6_r_H.png	 H	 r	 r	 n.a.	 2.478450e-01
9	 3	 89	 unflanked	 bex	 6	 0.500000	 0.000000	 unflanked_bex_freq_6_amplitude_0.5_rep_1_r_K.png	 K	 r	 b	 n.a.	 5.896683e-01
9	 3	 90	 unflanked	 bex	 32	 0.250000	 0.000000	 unflanked_bex_freq_32_amplitude_0.25_rep_2_l_D.png	 D	 l	 r	 n.a.	 2.844309e-01
9	 3	 91	 unflanked	 bex	 8	 2.500000	 0.000000	 unflanked_bex_freq_8_amplitude_2.5_rep_4_l_K.png	 K	 l	 l	 n.a.	 2.313854e-01
9	 3	 92	 unflanked	 bex	 32	 1.500000	 0.000000	 unflanked_bex_freq_32_amplitude_1.5_rep_9_b_H.png	 H	 b	 l	 n.a.	 5.533130e-01
9	 3	 93	 unflanked	 bex	 4	 1.000000	 0.000000	 unflanked_bex_freq_4_amplitude_1_rep_5_l_D.png	 D	 l	 t	 n.a.	 5.183398e-01
9	 3	 94	 unflanked	 bex	 32	 2.500000	 0.000000	 unflanked_bex_freq_32_amplitude_2.5_rep_7_l_H.png	 H	 l	 l	 n.a.	 2.736989e-01
9	 3	 95	 unflanked	 bex	 2	 3.000000	 0.000000	 unflanked_bex_freq_2_amplitude_3_rep_7_r_D.png	 D	 r	 r	 n.a.	 2.991574e-01
9	 3	 96	 unflanked	 bex	 4	 0.250000	 0.000000	 unflanked_bex_freq_4_amplitude_0.25_rep_7_b_N.png	 N	 b	 t	 n.a.	 6.578063e-01
9	 3	 97	 unflanked	 bex	 6	 3.000000	 0.000000	 unflanked_bex_freq_6_amplitude_3_rep_3_t_D.png	 D	 t	 t	 n.a.	 4.637481e-01
9	 3	 98	 unflanked	 bex	 32	 2.500000	 0.000000	 unflanked_bex_freq_32_amplitude_2.5_rep_8_b_N.png	 N	 b	 t	 n.a.	 4.852016e-01
9	 3	 99	 unflanked	 bex	 4	 1.000000	 0.000000	 unflanked_bex_freq_4_amplitude_1_rep_7_l_K.png	 K	 l	 l	 n.a.	 5.844715e-01
9	 3	 100	 unflanked	 bex	 8	 0.500000	 0.000000	 unflanked_bex_freq_8_amplitude_0.5_rep_1_r_D.png	 D	 r	 t	 n.a.	 1.304302e+00
9	 3	 101	 unflanked	 bex	 16	 2.000000	 0.000000	 unflanked_bex_freq_16_amplitude_2_rep_4_b_D.png	 D	 b	 b	 n.a.	 3.214380e-01
9	 3	 102	 unflanked	 bex	 6	 2.500000	 0.000000	 unflanked_bex_freq_6_amplitude_2.5_rep_7_r_N.png	 N	 r	 r	 n.a.	 2.123053e-01
9	 3	 103	 unflanked	 bex	 8	 0.250000	 0.000000	 unflanked_bex_freq_8_amplitude_0.25_rep_0_t_D.png	 D	 t	 r	 n.a.	 3.359883e-01
9	 3	 104	 unflanked	 bex	 2	 2.000000	 0.000000	 unflanked_bex_freq_2_amplitude_2_rep_0_r_N.png	 N	 r	 l	 n.a.	 5.895161e-01
9	 3	 105	 unflanked	 bex	 32	 2.500000	 0.000000	 unflanked_bex_freq_32_amplitude_2.5_rep_2_t_N.png	 N	 t	 l	 n.a.	 6.382855e-01
9	 3	 106	 unflanked	 bex	 4	 2.500000	 0.000000	 unflanked_bex_freq_4_amplitude_2.5_rep_3_r_H.png	 H	 r	 r	 n.a.	 2.940272e-01
9	 3	 107	 unflanked	 bex	 4	 2.500000	 0.000000	 unflanked_bex_freq_4_amplitude_2.5_rep_4_b_D.png	 D	 b	 b	 n.a.	 3.092782e-01
9	 3	 108	 unflanked	 bex	 2	 3.000000	 0.000000	 unflanked_bex_freq_2_amplitude_3_rep_2_r_K.png	 K	 r	 r	 n.a.	 3.128610e-01
9	 3	 109	 unflanked	 bex	 8	 0.250000	 0.000000	 unflanked_bex_freq_8_amplitude_0.25_rep_6_t_K.png	 K	 t	 b	 n.a.	 4.714919e-01
9	 3	 110	 unflanked	 bex	 8	 2.000000	 0.000000	 unflanked_bex_freq_8_amplitude_2_rep_0_r_N.png	 N	 r	 r	 n.a.	 2.965537e-01
9	 3	 111	 unflanked	 bex	 6	 0.500000	 0.000000	 unflanked_bex_freq_6_amplitude_0.5_rep_5_t_N.png	 N	 t	 r	 n.a.	 6.955113e-01
9	 3	 112	 unflanked	 bex	 16	 3.000000	 0.000000	 unflanked_bex_freq_16_amplitude_3_rep_7_l_H.png	 H	 l	 l	 n.a.	 3.042476e-01
9	 3	 113	 unflanked	 bex	 2	 2.500000	 0.000000	 unflanked_bex_freq_2_amplitude_2.5_rep_6_l_H.png	 H	 l	 l	 n.a.	 6.706340e-01
9	 3	 114	 unflanked	 bex	 2	 2.500000	 0.000000	 unflanked_bex_freq_2_amplitude_2.5_rep_3_b_K.png	 K	 b	 b	 n.a.	 3.378410e-01
9	 3	 115	 unflanked	 bex	 16	 0.500000	 0.000000	 unflanked_bex_freq_16_amplitude_0.5_rep_1_r_H.png	 H	 r	 r	 n.a.	 7.445124e-01
9	 3	 116	 unflanked	 bex	 4	 0.500000	 0.000000	 unflanked_bex_freq_4_amplitude_0.5_rep_1_t_N.png	 N	 t	 r	 n.a.	 6.592547e-01
9	 3	 117	 unflanked	 bex	 4	 0.250000	 0.000000	 unflanked_bex_freq_4_amplitude_0.25_rep_1_b_K.png	 K	 b	 r	 n.a.	 1.265462e+00
9	 3	 118	 unflanked	 bex	 8	 1.500000	 0.000000	 unflanked_bex_freq_8_amplitude_1.5_rep_1_b_K.png	 K	 b	 b	 n.a.	 6.495964e-01
9	 3	 119	 unflanked	 bex	 2	 1.000000	 0.000000	 unflanked_bex_freq_2_amplitude_1_rep_0_r_D.png	 D	 r	 t	 n.a.	 2.879175e-01
9	 3	 120	 unflanked	 bex	 6	 2.000000	 0.000000	 unflanked_bex_freq_6_amplitude_2_rep_6_l_N.png	 N	 l	 l	 n.a.	 3.844820e-01
9	 3	 121	 unflanked	 bex	 4	 2.500000	 0.000000	 unflanked_bex_freq_4_amplitude_2.5_rep_2_t_N.png	 N	 t	 t	 n.a.	 5.063327e-01
9	 3	 122	 unflanked	 bex	 32	 0.250000	 0.000000	 unflanked_bex_freq_32_amplitude_0.25_rep_1_r_K.png	 K	 r	 l	 n.a.	 5.855563e-01
9	 3	 123	 unflanked	 bex	 6	 3.000000	 0.000000	 unflanked_bex_freq_6_amplitude_3_rep_8_l_N.png	 N	 l	 l	 n.a.	 2.786765e-01
9	 3	 124	 unflanked	 bex	 6	 0.500000	 0.000000	 unflanked_bex_freq_6_amplitude_0.5_rep_8_r_K.png	 K	 r	 b	 n.a.	 8.397274e-01
9	 3	 125	 unflanked	 bex	 6	 1.500000	 0.000000	 unflanked_bex_freq_6_amplitude_1.5_rep_8_l_H.png	 H	 l	 l	 n.a.	 5.804466e-01
9	 3	 126	 unflanked	 bex	 8	 2.000000	 0.000000	 unflanked_bex_freq_8_amplitude_2_rep_7_r_N.png	 N	 r	 r	 n.a.	 2.454431e-01
9	 3	 127	 unflanked	 bex	 4	 3.000000	 0.000000	 unflanked_bex_freq_4_amplitude_3_rep_9_t_H.png	 H	 t	 t	 n.a.	 6.660195e-01
9	 3	 128	 unflanked	 bex	 8	 1.500000	 0.000000	 unflanked_bex_freq_8_amplitude_1.5_rep_6_r_D.png	 D	 r	 r	 n.a.	 3.711052e-01
9	 3	 129	 unflanked	 bex	 2	 2.500000	 0.000000	 unflanked_bex_freq_2_amplitude_2.5_rep_7_t_K.png	 K	 t	 t	 n.a.	 5.211808e-01
9	 3	 130	 unflanked	 bex	 2	 2.000000	 0.000000	 unflanked_bex_freq_2_amplitude_2_rep_6_b_N.png	 N	 b	 r	 n.a.	 6.688344e-01
9	 3	 131	 unflanked	 bex	 16	 2.500000	 0.000000	 unflanked_bex_freq_16_amplitude_2.5_rep_5_l_N.png	 N	 l	 l	 n.a.	 2.408443e-01
9	 3	 132	 unflanked	 bex	 16	 0.500000	 0.000000	 unflanked_bex_freq_16_amplitude_0.5_rep_0_r_N.png	 N	 r	 t	 n.a.	 4.605372e-01
9	 3	 133	 unflanked	 bex	 32	 1.000000	 0.000000	 unflanked_bex_freq_32_amplitude_1_rep_9_r_K.png	 K	 r	 b	 n.a.	 7.499263e-01
9	 3	 134	 unflanked	 bex	 8	 1.500000	 0.000000	 unflanked_bex_freq_8_amplitude_1.5_rep_5_t_K.png	 K	 t	 t	 n.a.	 3.252937e-01
9	 3	 135	 unflanked	 bex	 4	 3.000000	 0.000000	 unflanked_bex_freq_4_amplitude_3_rep_4_b_H.png	 H	 b	 b	 n.a.	 3.127442e-01
9	 3	 136	 unflanked	 bex	 8	 1.000000	 0.000000	 unflanked_bex_freq_8_amplitude_1_rep_6_r_H.png	 H	 r	 r	 n.a.	 2.325928e-01
9	 3	 137	 unflanked	 bex	 4	 1.500000	 0.000000	 unflanked_bex_freq_4_amplitude_1.5_rep_2_t_H.png	 H	 t	 l	 n.a.	 8.778269e-01
9	 3	 138	 unflanked	 bex	 8	 2.500000	 0.000000	 unflanked_bex_freq_8_amplitude_2.5_rep_5_b_D.png	 D	 b	 b	 n.a.	 2.950494e-01
9	 3	 139	 unflanked	 bex	 8	 0.500000	 0.000000	 unflanked_bex_freq_8_amplitude_0.5_rep_7_l_K.png	 K	 l	 b	 n.a.	 6.540398e-01
9	 3	 140	 unflanked	 bex	 4	 2.000000	 0.000000	 unflanked_bex_freq_4_amplitude_2_rep_7_l_N.png	 N	 l	 l	 n.a.	 8.172931e-01
9	 3	 141	 unflanked	 bex	 32	 0.250000	 0.000000	 unflanked_bex_freq_32_amplitude_0.25_rep_4_r_N.png	 N	 r	 b	 n.a.	 4.278479e-01
9	 3	 142	 unflanked	 bex	 16	 0.250000	 0.000000	 unflanked_bex_freq_16_amplitude_0.25_rep_4_l_K.png	 K	 l	 b	 n.a.	 8.542095e-01
9	 3	 143	 unflanked	 bex	 4	 1.500000	 0.000000	 unflanked_bex_freq_4_amplitude_1.5_rep_7_b_N.png	 N	 b	 b	 n.a.	 3.961703e-01
9	 3	 144	 unflanked	 bex	 32	 1.000000	 0.000000	 unflanked_bex_freq_32_amplitude_1_rep_0_t_D.png	 D	 t	 r	 n.a.	 4.667169e-01
9	 3	 145	 unflanked	 bex	 4	 2.000000	 0.000000	 unflanked_bex_freq_4_amplitude_2_rep_5_t_H.png	 H	 t	 b	 n.a.	 4.860921e-01
9	 3	 146	 unflanked	 bex	 6	 2.000000	 0.000000	 unflanked_bex_freq_6_amplitude_2_rep_3_t_K.png	 K	 t	 t	 n.a.	 2.851137e-01
9	 3	 147	 unflanked	 bex	 6	 0.250000	 0.000000	 unflanked_bex_freq_6_amplitude_0.25_rep_8_l_H.png	 H	 l	 t	 n.a.	 7.318368e-01
9	 3	 148	 unflanked	 bex	 32	 3.000000	 0.000000	 unflanked_bex_freq_32_amplitude_3_rep_1_l_K.png	 K	 l	 l	 n.a.	 3.520334e-01
9	 3	 149	 unflanked	 bex	 32	 2.000000	 0.000000	 unflanked_bex_freq_32_amplitude_2_rep_4_t_H.png	 H	 t	 r	 n.a.	 5.214037e-01
9	 3	 150	 unflanked	 bex	 16	 1.000000	 0.000000	 unflanked_bex_freq_16_amplitude_1_rep_3_r_K.png	 K	 r	 r	 n.a.	 2.533706e-01
9	 3	 151	 unflanked	 bex	 4	 3.000000	 0.000000	 unflanked_bex_freq_4_amplitude_3_rep_1_r_K.png	 K	 r	 r	 n.a.	 3.415190e-01
9	 3	 152	 unflanked	 bex	 2	 2.500000	 0.000000	 unflanked_bex_freq_2_amplitude_2.5_rep_1_b_K.png	 K	 b	 b	 n.a.	 2.536457e-01
9	 3	 153	 unflanked	 bex	 16	 0.250000	 0.000000	 unflanked_bex_freq_16_amplitude_0.25_rep_0_l_H.png	 H	 l	 t	 n.a.	 4.544881e-01
9	 3	 154	 unflanked	 bex	 2	 1.500000	 0.000000	 unflanked_bex_freq_2_amplitude_1.5_rep_9_t_H.png	 H	 t	 b	 n.a.	 4.753670e-01
9	 3	 155	 unflanked	 bex	 16	 3.000000	 0.000000	 unflanked_bex_freq_16_amplitude_3_rep_8_b_N.png	 N	 b	 b	 n.a.	 3.487961e-01
9	 3	 156	 unflanked	 bex	 4	 1.000000	 0.000000	 unflanked_bex_freq_4_amplitude_1_rep_8_t_H.png	 H	 t	 b	 n.a.	 4.046910e-01
9	 3	 157	 unflanked	 bex	 6	 1.500000	 0.000000	 unflanked_bex_freq_6_amplitude_1.5_rep_3_t_N.png	 N	 t	 r	 n.a.	 7.054299e-01
9	 3	 158	 unflanked	 bex	 6	 2.000000	 0.000000	 unflanked_bex_freq_6_amplitude_2_rep_9_l_K.png	 K	 l	 l	 n.a.	 2.655293e-01
9	 3	 159	 unflanked	 bex	 4	 0.250000	 0.000000	 unflanked_bex_freq_4_amplitude_0.25_rep_9_l_H.png	 H	 l	 t	 n.a.	 3.446428e-01
9	 3	 160	 unflanked	 bex	 32	 0.500000	 0.000000	 unflanked_bex_freq_32_amplitude_0.5_rep_3_t_N.png	 N	 t	 b	 n.a.	 5.888969e-01
9	 3	 161	 unflanked	 bex	 32	 1.000000	 0.000000	 unflanked_bex_freq_32_amplitude_1_rep_4_r_D.png	 D	 r	 b	 n.a.	 7.535946e-01
9	 3	 162	 unflanked	 bex	 8	 3.000000	 0.000000	 unflanked_bex_freq_8_amplitude_3_rep_8_l_H.png	 H	 l	 l	 n.a.	 2.424757e-01
9	 3	 163	 unflanked	 bex	 2	 2.500000	 0.000000	 unflanked_bex_freq_2_amplitude_2.5_rep_0_r_H.png	 H	 r	 r	 n.a.	 2.143626e-01
9	 3	 164	 unflanked	 bex	 6	 2.000000	 0.000000	 unflanked_bex_freq_6_amplitude_2_rep_5_l_N.png	 N	 l	 l	 n.a.	 4.015941e-01
9	 3	 165	 unflanked	 bex	 6	 1.000000	 0.000000	 unflanked_bex_freq_6_amplitude_1_rep_1_l_N.png	 N	 l	 l	 n.a.	 4.161421e-01
9	 3	 166	 unflanked	 bex	 8	 2.500000	 0.000000	 unflanked_bex_freq_8_amplitude_2.5_rep_1_t_H.png	 H	 t	 t	 n.a.	 5.499503e-01
9	 3	 167	 unflanked	 bex	 2	 3.000000	 0.000000	 unflanked_bex_freq_2_amplitude_3_rep_5_r_K.png	 K	 r	 r	 n.a.	 3.841624e-01
9	 3	 168	 unflanked	 bex	 16	 2.000000	 0.000000	 unflanked_bex_freq_16_amplitude_2_rep_5_l_D.png	 D	 l	 l	 n.a.	 2.703130e-01
9	 3	 169	 unflanked	 bex	 6	 2.000000	 0.000000	 unflanked_bex_freq_6_amplitude_2_rep_8_b_N.png	 N	 b	 b	 n.a.	 3.058062e-01
9	 3	 170	 unflanked	 bex	 2	 2.000000	 0.000000	 unflanked_bex_freq_2_amplitude_2_rep_7_b_H.png	 H	 b	 b	 n.a.	 2.467144e-01
9	 3	 171	 unflanked	 bex	 4	 1.500000	 0.000000	 unflanked_bex_freq_4_amplitude_1.5_rep_1_b_D.png	 D	 b	 b	 n.a.	 3.246353e-01
9	 3	 172	 unflanked	 bex	 16	 2.000000	 0.000000	 unflanked_bex_freq_16_amplitude_2_rep_1_b_K.png	 K	 b	 b	 n.a.	 6.687739e-01
9	 3	 173	 unflanked	 bex	 2	 2.000000	 0.000000	 unflanked_bex_freq_2_amplitude_2_rep_9_b_N.png	 N	 b	 b	 n.a.	 5.288401e-01
9	 3	 174	 unflanked	 bex	 8	 0.500000	 0.000000	 unflanked_bex_freq_8_amplitude_0.5_rep_4_r_D.png	 D	 r	 r	 n.a.	 1.001171e+00
9	 3	 175	 unflanked	 bex	 4	 2.000000	 0.000000	 unflanked_bex_freq_4_amplitude_2_rep_8_b_K.png	 K	 b	 r	 n.a.	 9.006921e-01
9	 3	 176	 unflanked	 bex	 32	 0.250000	 0.000000	 unflanked_bex_freq_32_amplitude_0.25_rep_7_l_H.png	 H	 l	 b	 n.a.	 3.760070e-01
9	 3	 177	 unflanked	 bex	 2	 2.000000	 0.000000	 unflanked_bex_freq_2_amplitude_2_rep_3_l_D.png	 D	 l	 l	 n.a.	 6.980132e-01
9	 3	 178	 unflanked	 bex	 32	 0.500000	 0.000000	 unflanked_bex_freq_32_amplitude_0.5_rep_0_b_H.png	 H	 b	 r	 n.a.	 7.342538e-01
9	 3	 179	 unflanked	 bex	 16	 0.250000	 0.000000	 unflanked_bex_freq_16_amplitude_0.25_rep_9_t_H.png	 H	 t	 r	 n.a.	 8.393688e-01
9	 3	 180	 unflanked	 bex	 16	 0.500000	 0.000000	 unflanked_bex_freq_16_amplitude_0.5_rep_9_b_K.png	 K	 b	 r	 n.a.	 7.917118e-01
9	 3	 181	 unflanked	 bex	 2	 2.500000	 0.000000	 unflanked_bex_freq_2_amplitude_2.5_rep_8_b_N.png	 N	 b	 b	 n.a.	 4.399084e-01
9	 3	 182	 unflanked	 bex	 32	 0.500000	 0.000000	 unflanked_bex_freq_32_amplitude_0.5_rep_9_t_N.png	 N	 t	 r	 n.a.	 6.639490e-01
9	 3	 183	 unflanked	 bex	 2	 2.500000	 0.000000	 unflanked_bex_freq_2_amplitude_2.5_rep_5_b_K.png	 K	 b	 b	 n.a.	 3.700443e-01
9	 3	 184	 unflanked	 bex	 4	 0.500000	 0.000000	 unflanked_bex_freq_4_amplitude_0.5_rep_7_r_D.png	 D	 r	 l	 n.a.	 9.360415e-01
9	 3	 185	 unflanked	 bex	 6	 0.500000	 0.000000	 unflanked_bex_freq_6_amplitude_0.5_rep_3_b_D.png	 D	 b	 r	 n.a.	 5.892713e-01
9	 3	 186	 unflanked	 bex	 16	 3.000000	 0.000000	 unflanked_bex_freq_16_amplitude_3_rep_0_b_K.png	 K	 b	 b	 n.a.	 2.799897e-01
9	 3	 187	 unflanked	 bex	 16	 1.000000	 0.000000	 unflanked_bex_freq_16_amplitude_1_rep_8_t_H.png	 H	 t	 l	 n.a.	 5.075351e-01
9	 3	 188	 unflanked	 bex	 32	 3.000000	 0.000000	 unflanked_bex_freq_32_amplitude_3_rep_8_t_K.png	 K	 t	 l	 n.a.	 8.042988e-01
9	 3	 189	 unflanked	 bex	 6	 2.500000	 0.000000	 unflanked_bex_freq_6_amplitude_2.5_rep_1_b_H.png	 H	 b	 b	 n.a.	 2.269708e-01
9	 3	 190	 unflanked	 bex	 2	 0.250000	 0.000000	 unflanked_bex_freq_2_amplitude_0.25_rep_3_l_H.png	 H	 l	 t	 n.a.	 8.122814e-01
9	 3	 191	 unflanked	 bex	 4	 0.500000	 0.000000	 unflanked_bex_freq_4_amplitude_0.5_rep_3_b_H.png	 H	 b	 b	 n.a.	 7.795826e-01
9	 3	 192	 unflanked	 bex	 32	 2.000000	 0.000000	 unflanked_bex_freq_32_amplitude_2_rep_7_b_H.png	 H	 b	 r	 n.a.	 5.264250e-01
9	 3	 193	 unflanked	 bex	 32	 2.000000	 0.000000	 unflanked_bex_freq_32_amplitude_2_rep_6_r_K.png	 K	 r	 l	 n.a.	 6.450006e-01
9	 3	 194	 unflanked	 bex	 4	 3.000000	 0.000000	 unflanked_bex_freq_4_amplitude_3_rep_8_l_N.png	 N	 l	 l	 n.a.	 3.286547e-01
9	 3	 195	 unflanked	 bex	 2	 1.500000	 0.000000	 unflanked_bex_freq_2_amplitude_1.5_rep_1_t_N.png	 N	 t	 t	 n.a.	 6.282319e-01
9	 3	 196	 unflanked	 bex	 4	 1.500000	 0.000000	 unflanked_bex_freq_4_amplitude_1.5_rep_9_r_K.png	 K	 r	 r	 n.a.	 1.059049e+00
9	 3	 197	 unflanked	 bex	 8	 2.500000	 0.000000	 unflanked_bex_freq_8_amplitude_2.5_rep_0_t_N.png	 N	 t	 t	 n.a.	 3.349486e-01
9	 3	 198	 unflanked	 bex	 2	 2.000000	 0.000000	 unflanked_bex_freq_2_amplitude_2_rep_5_r_K.png	 K	 r	 l	 n.a.	 8.845082e-01
9	 3	 199	 unflanked	 bex	 6	 2.500000	 0.000000	 unflanked_bex_freq_6_amplitude_2.5_rep_8_r_N.png	 N	 r	 r	 n.a.	 3.277202e-01
9	 3	 200	 unflanked	 bex	 6	 1.000000	 0.000000	 unflanked_bex_freq_6_amplitude_1_rep_7_t_H.png	 H	 t	 t	 n.a.	 7.299596e-01
9	 3	 201	 unflanked	 bex	 8	 3.000000	 0.000000	 unflanked_bex_freq_8_amplitude_3_rep_7_t_D.png	 D	 t	 t	 n.a.	 3.946009e-01
9	 3	 202	 unflanked	 bex	 2	 1.500000	 0.000000	 unflanked_bex_freq_2_amplitude_1.5_rep_4_r_H.png	 H	 r	 l	 n.a.	 1.016196e+00
9	 3	 203	 unflanked	 bex	 8	 1.000000	 0.000000	 unflanked_bex_freq_8_amplitude_1_rep_7_r_H.png	 H	 r	 r	 n.a.	 4.414393e-01
9	 3	 204	 unflanked	 bex	 32	 2.000000	 0.000000	 unflanked_bex_freq_32_amplitude_2_rep_0_r_N.png	 N	 r	 r	 n.a.	 4.987356e-01
9	 3	 205	 unflanked	 bex	 32	 3.000000	 0.000000	 unflanked_bex_freq_32_amplitude_3_rep_2_l_N.png	 N	 l	 l	 n.a.	 3.614979e-01
9	 3	 206	 unflanked	 bex	 32	 1.500000	 0.000000	 unflanked_bex_freq_32_amplitude_1.5_rep_3_l_N.png	 N	 l	 l	 n.a.	 4.817775e-01
9	 3	 207	 unflanked	 bex	 32	 0.500000	 0.000000	 unflanked_bex_freq_32_amplitude_0.5_rep_6_t_N.png	 N	 t	 b	 n.a.	 4.644421e-01
9	 3	 208	 unflanked	 bex	 32	 0.250000	 0.000000	 unflanked_bex_freq_32_amplitude_0.25_rep_6_t_D.png	 D	 t	 r	 n.a.	 5.797914e-01
9	 3	 209	 unflanked	 bex	 8	 3.000000	 0.000000	 unflanked_bex_freq_8_amplitude_3_rep_1_r_K.png	 K	 r	 r	 n.a.	 4.896875e-01
9	 3	 210	 unflanked	 bex	 16	 3.000000	 0.000000	 unflanked_bex_freq_16_amplitude_3_rep_6_l_K.png	 K	 l	 l	 n.a.	 2.536163e-01
9	 3	 211	 unflanked	 bex	 16	 2.000000	 0.000000	 unflanked_bex_freq_16_amplitude_2_rep_3_l_K.png	 K	 l	 l	 n.a.	 2.268908e-01
9	 3	 212	 unflanked	 bex	 4	 0.250000	 0.000000	 unflanked_bex_freq_4_amplitude_0.25_rep_8_r_N.png	 N	 r	 l	 n.a.	 4.692387e-01
9	 3	 213	 unflanked	 bex	 32	 2.500000	 0.000000	 unflanked_bex_freq_32_amplitude_2.5_rep_6_b_H.png	 H	 b	 l	 n.a.	 4.824407e-01
9	 3	 214	 unflanked	 bex	 2	 3.000000	 0.000000	 unflanked_bex_freq_2_amplitude_3_rep_0_t_H.png	 H	 t	 b	 n.a.	 4.111480e-01
9	 3	 215	 unflanked	 bex	 6	 3.000000	 0.000000	 unflanked_bex_freq_6_amplitude_3_rep_1_t_H.png	 H	 t	 t	 n.a.	 3.458932e-01
9	 3	 216	 unflanked	 bex	 16	 1.500000	 0.000000	 unflanked_bex_freq_16_amplitude_1.5_rep_5_t_H.png	 H	 t	 t	 n.a.	 3.915020e-01
9	 3	 217	 unflanked	 bex	 16	 1.000000	 0.000000	 unflanked_bex_freq_16_amplitude_1_rep_1_l_K.png	 K	 l	 b	 n.a.	 5.163266e-01
9	 3	 218	 unflanked	 bex	 6	 0.250000	 0.000000	 unflanked_bex_freq_6_amplitude_0.25_rep_0_l_D.png	 D	 l	 t	 n.a.	 4.343785e-01
9	 3	 219	 unflanked	 bex	 6	 0.250000	 0.000000	 unflanked_bex_freq_6_amplitude_0.25_rep_7_r_H.png	 H	 r	 t	 n.a.	 4.703911e-01
9	 3	 220	 unflanked	 bex	 2	 0.500000	 0.000000	 unflanked_bex_freq_2_amplitude_0.5_rep_9_t_H.png	 H	 t	 l	 n.a.	 8.212699e-01
9	 3	 221	 unflanked	 bex	 6	 3.000000	 0.000000	 unflanked_bex_freq_6_amplitude_3_rep_7_l_H.png	 H	 l	 l	 n.a.	 3.478054e-01
9	 3	 222	 unflanked	 bex	 2	 1.000000	 0.000000	 unflanked_bex_freq_2_amplitude_1_rep_2_r_K.png	 K	 r	 r	 n.a.	 4.839005e-01
9	 3	 223	 unflanked	 bex	 8	 0.500000	 0.000000	 unflanked_bex_freq_8_amplitude_0.5_rep_8_r_K.png	 K	 r	 r	 n.a.	 5.115205e-01
9	 3	 224	 unflanked	 bex	 2	 1.000000	 0.000000	 unflanked_bex_freq_2_amplitude_1_rep_7_t_K.png	 K	 t	 r	 n.a.	 9.640202e-01
9	 3	 225	 unflanked	 bex	 2	 0.500000	 0.000000	 unflanked_bex_freq_2_amplitude_0.5_rep_1_r_H.png	 H	 r	 r	 n.a.	 5.491563e-01
9	 3	 226	 unflanked	 bex	 16	 1.500000	 0.000000	 unflanked_bex_freq_16_amplitude_1.5_rep_6_t_N.png	 N	 t	 t	 n.a.	 4.834545e-01
9	 3	 227	 unflanked	 bex	 2	 0.250000	 0.000000	 unflanked_bex_freq_2_amplitude_0.25_rep_6_l_H.png	 H	 l	 r	 n.a.	 4.365773e-01
9	 3	 228	 unflanked	 bex	 4	 0.500000	 0.000000	 unflanked_bex_freq_4_amplitude_0.5_rep_0_r_D.png	 D	 r	 r	 n.a.	 9.102320e-01
9	 3	 229	 unflanked	 bex	 8	 1.500000	 0.000000	 unflanked_bex_freq_8_amplitude_1.5_rep_2_l_H.png	 H	 l	 l	 n.a.	 3.815604e-01
9	 3	 230	 unflanked	 bex	 8	 1.000000	 0.000000	 unflanked_bex_freq_8_amplitude_1_rep_2_l_K.png	 K	 l	 l	 n.a.	 3.807635e-01
9	 3	 231	 unflanked	 bex	 16	 2.500000	 0.000000	 unflanked_bex_freq_16_amplitude_2.5_rep_7_b_K.png	 K	 b	 b	 n.a.	 2.831728e-01
9	 3	 232	 unflanked	 bex	 6	 0.500000	 0.000000	 unflanked_bex_freq_6_amplitude_0.5_rep_7_l_D.png	 D	 l	 t	 n.a.	 7.682285e-01
9	 3	 233	 unflanked	 bex	 16	 0.250000	 0.000000	 unflanked_bex_freq_16_amplitude_0.25_rep_1_l_K.png	 K	 l	 r	 n.a.	 3.050421e-01
9	 3	 234	 unflanked	 bex	 4	 2.000000	 0.000000	 unflanked_bex_freq_4_amplitude_2_rep_2_b_N.png	 N	 b	 b	 n.a.	 3.664423e-01
9	 3	 235	 unflanked	 bex	 2	 1.500000	 0.000000	 unflanked_bex_freq_2_amplitude_1.5_rep_6_t_H.png	 H	 t	 l	 n.a.	 4.753794e-01
9	 3	 236	 unflanked	 bex	 16	 2.500000	 0.000000	 unflanked_bex_freq_16_amplitude_2.5_rep_1_t_N.png	 N	 t	 t	 n.a.	 7.207995e-01
9	 3	 237	 unflanked	 bex	 32	 2.500000	 0.000000	 unflanked_bex_freq_32_amplitude_2.5_rep_9_l_K.png	 K	 l	 l	 n.a.	 2.669696e-01
9	 3	 238	 unflanked	 bex	 32	 1.000000	 0.000000	 unflanked_bex_freq_32_amplitude_1_rep_8_l_H.png	 H	 l	 r	 n.a.	 2.739578e-01
9	 3	 239	 unflanked	 bex	 16	 2.500000	 0.000000	 unflanked_bex_freq_16_amplitude_2.5_rep_9_l_D.png	 D	 l	 l	 n.a.	 2.390097e-01
9	 3	 240	 unflanked	 bex	 16	 3.000000	 0.000000	 unflanked_bex_freq_16_amplitude_3_rep_1_r_K.png	 K	 r	 r	 n.a.	 2.420542e-01
9	 3	 241	 unflanked	 bex	 32	 1.000000	 0.000000	 unflanked_bex_freq_32_amplitude_1_rep_7_l_K.png	 K	 l	 l	 n.a.	 6.098224e-01
9	 3	 242	 unflanked	 bex	 4	 3.000000	 0.000000	 unflanked_bex_freq_4_amplitude_3_rep_7_t_D.png	 D	 t	 t	 n.a.	 3.564813e-01
9	 3	 243	 unflanked	 bex	 4	 2.000000	 0.000000	 unflanked_bex_freq_4_amplitude_2_rep_9_l_K.png	 K	 l	 l	 n.a.	 4.243858e-01
9	 3	 244	 unflanked	 bex	 8	 3.000000	 0.000000	 unflanked_bex_freq_8_amplitude_3_rep_3_l_H.png	 H	 l	 l	 n.a.	 2.934809e-01
9	 3	 245	 unflanked	 bex	 4	 1.000000	 0.000000	 unflanked_bex_freq_4_amplitude_1_rep_4_b_N.png	 N	 b	 t	 n.a.	 5.348422e-01
9	 3	 246	 unflanked	 bex	 4	 2.500000	 0.000000	 unflanked_bex_freq_4_amplitude_2.5_rep_1_r_H.png	 H	 r	 r	 n.a.	 2.461775e-01
9	 3	 247	 unflanked	 bex	 2	 1.500000	 0.000000	 unflanked_bex_freq_2_amplitude_1.5_rep_7_b_N.png	 N	 b	 t	 n.a.	 3.393718e-01
9	 3	 248	 unflanked	 bex	 8	 1.000000	 0.000000	 unflanked_bex_freq_8_amplitude_1_rep_1_l_H.png	 H	 l	 l	 n.a.	 3.246998e-01
9	 3	 249	 unflanked	 bex	 16	 2.000000	 0.000000	 unflanked_bex_freq_16_amplitude_2_rep_7_t_K.png	 K	 t	 t	 n.a.	 3.152332e-01
9	 3	 250	 unflanked	 bex	 16	 1.500000	 0.000000	 unflanked_bex_freq_16_amplitude_1.5_rep_3_t_D.png	 D	 t	 l	 n.a.	 2.635048e-01
9	 3	 251	 unflanked	 bex	 2	 0.500000	 0.000000	 unflanked_bex_freq_2_amplitude_0.5_rep_3_r_H.png	 H	 r	 r	 n.a.	 5.686196e-01
9	 3	 252	 unflanked	 bex	 6	 2.500000	 0.000000	 unflanked_bex_freq_6_amplitude_2.5_rep_9_r_H.png	 H	 r	 r	 n.a.	 2.849967e-01
9	 3	 253	 unflanked	 bex	 8	 2.500000	 0.000000	 unflanked_bex_freq_8_amplitude_2.5_rep_8_r_K.png	 K	 r	 r	 n.a.	 2.746143e-01
9	 3	 254	 unflanked	 bex	 6	 2.500000	 0.000000	 unflanked_bex_freq_6_amplitude_2.5_rep_5_t_K.png	 K	 t	 t	 n.a.	 3.258597e-01
9	 3	 255	 unflanked	 bex	 8	 0.500000	 0.000000	 unflanked_bex_freq_8_amplitude_0.5_rep_2_b_K.png	 K	 b	 b	 n.a.	 4.324348e-01
9	 3	 256	 unflanked	 bex	 6	 0.250000	 0.000000	 unflanked_bex_freq_6_amplitude_0.25_rep_3_t_D.png	 D	 t	 r	 n.a.	 4.240179e-01
9	 3	 257	 unflanked	 bex	 32	 3.000000	 0.000000	 unflanked_bex_freq_32_amplitude_3_rep_7_b_N.png	 N	 b	 r	 n.a.	 8.570326e-01
9	 3	 258	 unflanked	 bex	 2	 2.000000	 0.000000	 unflanked_bex_freq_2_amplitude_2_rep_1_t_N.png	 N	 t	 r	 n.a.	 4.183748e-01
9	 3	 259	 unflanked	 bex	 16	 2.500000	 0.000000	 unflanked_bex_freq_16_amplitude_2.5_rep_6_r_K.png	 K	 r	 r	 n.a.	 3.604511e-01
9	 3	 260	 unflanked	 bex	 6	 1.500000	 0.000000	 unflanked_bex_freq_6_amplitude_1.5_rep_4_b_N.png	 N	 b	 b	 n.a.	 4.425471e-01
9	 3	 261	 unflanked	 bex	 6	 1.000000	 0.000000	 unflanked_bex_freq_6_amplitude_1_rep_8_r_K.png	 K	 r	 r	 n.a.	 5.169010e-01
9	 3	 262	 unflanked	 bex	 8	 2.000000	 0.000000	 unflanked_bex_freq_8_amplitude_2_rep_6_r_K.png	 K	 r	 r	 n.a.	 2.617147e-01
9	 3	 263	 unflanked	 bex	 8	 2.000000	 0.000000	 unflanked_bex_freq_8_amplitude_2_rep_3_t_H.png	 H	 t	 t	 n.a.	 3.423584e-01
9	 3	 264	 unflanked	 bex	 2	 1.000000	 0.000000	 unflanked_bex_freq_2_amplitude_1_rep_3_l_K.png	 K	 l	 r	 n.a.	 8.503872e-01
9	 3	 265	 unflanked	 bex	 16	 0.250000	 0.000000	 unflanked_bex_freq_16_amplitude_0.25_rep_8_t_N.png	 N	 t	 b	 n.a.	 5.695946e-01
9	 3	 266	 unflanked	 bex	 2	 1.500000	 0.000000	 unflanked_bex_freq_2_amplitude_1.5_rep_0_b_K.png	 K	 b	 b	 n.a.	 1.402955e+00
9	 3	 267	 unflanked	 bex	 16	 1.000000	 0.000000	 unflanked_bex_freq_16_amplitude_1_rep_5_r_D.png	 D	 r	 r	 n.a.	 6.916509e-01
9	 3	 268	 unflanked	 bex	 4	 1.500000	 0.000000	 unflanked_bex_freq_4_amplitude_1.5_rep_6_t_N.png	 N	 t	 t	 n.a.	 6.836473e-01
9	 3	 269	 unflanked	 bex	 32	 2.500000	 0.000000	 unflanked_bex_freq_32_amplitude_2.5_rep_1_l_H.png	 H	 l	 l	 n.a.	 4.350512e-01
9	 3	 270	 unflanked	 bex	 6	 1.500000	 0.000000	 unflanked_bex_freq_6_amplitude_1.5_rep_9_r_K.png	 K	 r	 r	 n.a.	 3.399850e-01
9	 3	 271	 unflanked	 bex	 32	 1.000000	 0.000000	 unflanked_bex_freq_32_amplitude_1_rep_1_l_K.png	 K	 l	 b	 n.a.	 6.883037e-01
9	 3	 272	 unflanked	 bex	 4	 0.250000	 0.000000	 unflanked_bex_freq_4_amplitude_0.25_rep_4_l_N.png	 N	 l	 b	 n.a.	 7.077921e-01
9	 3	 273	 unflanked	 bex	 8	 0.250000	 0.000000	 unflanked_bex_freq_8_amplitude_0.25_rep_3_l_H.png	 H	 l	 b	 n.a.	 6.460698e-01
9	 3	 274	 unflanked	 bex	 4	 1.500000	 0.000000	 unflanked_bex_freq_4_amplitude_1.5_rep_3_b_K.png	 K	 b	 b	 n.a.	 1.068083e+00
9	 3	 275	 unflanked	 bex	 6	 2.500000	 0.000000	 unflanked_bex_freq_6_amplitude_2.5_rep_3_b_K.png	 K	 b	 b	 n.a.	 5.469935e-01
9	 3	 276	 unflanked	 bex	 32	 0.500000	 0.000000	 unflanked_bex_freq_32_amplitude_0.5_rep_2_r_D.png	 D	 r	 t	 n.a.	 5.167183e-01
9	 3	 277	 unflanked	 bex	 2	 0.250000	 0.000000	 unflanked_bex_freq_2_amplitude_0.25_rep_5_l_K.png	 K	 l	 b	 n.a.	 8.163026e-01
9	 3	 278	 unflanked	 bex	 8	 0.250000	 0.000000	 unflanked_bex_freq_8_amplitude_0.25_rep_2_t_D.png	 D	 t	 l	 n.a.	 5.809695e-01
9	 3	 279	 unflanked	 bex	 4	 3.000000	 0.000000	 unflanked_bex_freq_4_amplitude_3_rep_6_b_N.png	 N	 b	 b	 n.a.	 3.128429e-01
9	 3	 280	 unflanked	 bex	 8	 1.500000	 0.000000	 unflanked_bex_freq_8_amplitude_1.5_rep_9_t_H.png	 H	 t	 t	 n.a.	 6.288468e-01
9	 3	 281	 unflanked	 bex	 32	 3.000000	 0.000000	 unflanked_bex_freq_32_amplitude_3_rep_3_r_H.png	 H	 r	 r	 n.a.	 2.145372e-01
9	 3	 282	 unflanked	 bex	 6	 3.000000	 0.000000	 unflanked_bex_freq_6_amplitude_3_rep_2_l_H.png	 H	 l	 l	 n.a.	 1.995318e-01
9	 3	 283	 unflanked	 bex	 32	 1.500000	 0.000000	 unflanked_bex_freq_32_amplitude_1.5_rep_6_l_D.png	 D	 l	 l	 n.a.	 4.805290e-01
9	 3	 284	 unflanked	 bex	 4	 1.000000	 0.000000	 unflanked_bex_freq_4_amplitude_1_rep_3_l_K.png	 K	 l	 l	 n.a.	 3.281999e-01
9	 3	 285	 unflanked	 bex	 6	 0.250000	 0.000000	 unflanked_bex_freq_6_amplitude_0.25_rep_5_l_D.png	 D	 l	 r	 n.a.	 5.385297e-01
9	 3	 286	 unflanked	 bex	 6	 1.500000	 0.000000	 unflanked_bex_freq_6_amplitude_1.5_rep_1_b_N.png	 N	 b	 b	 n.a.	 2.415033e-01
9	 3	 287	 unflanked	 bex	 16	 0.250000	 0.000000	 unflanked_bex_freq_16_amplitude_0.25_rep_5_b_D.png	 D	 b	 l	 n.a.	 8.319200e-01
9	 3	 288	 unflanked	 bex	 2	 1.500000	 0.000000	 unflanked_bex_freq_2_amplitude_1.5_rep_3_b_H.png	 H	 b	 r	 n.a.	 7.006322e-01
9	 3	 289	 unflanked	 bex	 2	 1.000000	 0.000000	 unflanked_bex_freq_2_amplitude_1_rep_6_t_N.png	 N	 t	 b	 n.a.	 2.896447e-01
9	 3	 290	 unflanked	 bex	 16	 3.000000	 0.000000	 unflanked_bex_freq_16_amplitude_3_rep_9_r_K.png	 K	 r	 r	 n.a.	 2.309459e-01
9	 3	 291	 unflanked	 bex	 6	 1.000000	 0.000000	 unflanked_bex_freq_6_amplitude_1_rep_3_b_K.png	 K	 b	 b	 n.a.	 2.987363e-01
9	 3	 292	 unflanked	 bex	 8	 2.500000	 0.000000	 unflanked_bex_freq_8_amplitude_2.5_rep_7_t_K.png	 K	 t	 t	 n.a.	 2.109850e-01
9	 3	 293	 unflanked	 bex	 6	 0.500000	 0.000000	 unflanked_bex_freq_6_amplitude_0.5_rep_2_t_K.png	 K	 t	 b	 n.a.	 5.928263e-01
9	 3	 294	 unflanked	 bex	 8	 2.500000	 0.000000	 unflanked_bex_freq_8_amplitude_2.5_rep_3_t_H.png	 H	 t	 t	 n.a.	 2.692346e-01
9	 3	 295	 unflanked	 bex	 16	 2.000000	 0.000000	 unflanked_bex_freq_16_amplitude_2_rep_0_l_K.png	 K	 l	 l	 n.a.	 2.508920e-01
9	 3	 296	 unflanked	 bex	 4	 1.000000	 0.000000	 unflanked_bex_freq_4_amplitude_1_rep_1_r_H.png	 H	 r	 b	 n.a.	 6.434655e-01
9	 3	 297	 unflanked	 bex	 2	 1.500000	 0.000000	 unflanked_bex_freq_2_amplitude_1.5_rep_8_l_K.png	 K	 l	 l	 n.a.	 4.888640e-01
9	 3	 298	 unflanked	 bex	 6	 1.000000	 0.000000	 unflanked_bex_freq_6_amplitude_1_rep_9_r_N.png	 N	 r	 r	 n.a.	 3.138994e-01
9	 3	 299	 unflanked	 bex	 6	 0.500000	 0.000000	 unflanked_bex_freq_6_amplitude_0.5_rep_4_t_K.png	 K	 t	 r	 n.a.	 4.455705e-01
9	 3	 300	 unflanked	 bex	 4	 3.000000	 0.000000	 unflanked_bex_freq_4_amplitude_3_rep_5_r_K.png	 K	 r	 r	 n.a.	 2.561225e-01
9	 3	 301	 unflanked	 bex	 8	 0.250000	 0.000000	 unflanked_bex_freq_8_amplitude_0.25_rep_9_t_D.png	 D	 t	 r	 n.a.	 7.560190e-01
9	 3	 302	 unflanked	 bex	 32	 1.000000	 0.000000	 unflanked_bex_freq_32_amplitude_1_rep_3_l_H.png	 H	 l	 l	 n.a.	 4.890116e-01
9	 3	 303	 unflanked	 bex	 16	 2.000000	 0.000000	 unflanked_bex_freq_16_amplitude_2_rep_6_l_N.png	 N	 l	 l	 n.a.	 4.062140e-01
9	 3	 304	 unflanked	 bex	 4	 1.000000	 0.000000	 unflanked_bex_freq_4_amplitude_1_rep_2_r_H.png	 H	 r	 t	 n.a.	 7.819237e-01
9	 3	 305	 unflanked	 bex	 2	 3.000000	 0.000000	 unflanked_bex_freq_2_amplitude_3_rep_1_l_K.png	 K	 l	 l	 n.a.	 2.529550e-01
9	 3	 306	 unflanked	 bex	 8	 1.500000	 0.000000	 unflanked_bex_freq_8_amplitude_1.5_rep_4_r_N.png	 N	 r	 r	 n.a.	 3.979037e-01
9	 3	 307	 unflanked	 bex	 16	 0.250000	 0.000000	 unflanked_bex_freq_16_amplitude_0.25_rep_2_l_K.png	 K	 l	 l	 n.a.	 4.568891e-01
9	 3	 308	 unflanked	 bex	 16	 3.000000	 0.000000	 unflanked_bex_freq_16_amplitude_3_rep_2_t_D.png	 D	 t	 t	 n.a.	 4.612687e-01
9	 3	 309	 unflanked	 bex	 32	 3.000000	 0.000000	 unflanked_bex_freq_32_amplitude_3_rep_6_l_N.png	 N	 l	 l	 n.a.	 2.772557e-01
9	 3	 310	 unflanked	 bex	 4	 2.000000	 0.000000	 unflanked_bex_freq_4_amplitude_2_rep_3_r_H.png	 H	 r	 r	 n.a.	 2.367524e-01
9	 3	 311	 unflanked	 bex	 6	 1.500000	 0.000000	 unflanked_bex_freq_6_amplitude_1.5_rep_0_t_D.png	 D	 t	 t	 n.a.	 5.516183e-01
9	 3	 312	 unflanked	 bex	 8	 0.500000	 0.000000	 unflanked_bex_freq_8_amplitude_0.5_rep_0_b_N.png	 N	 b	 t	 n.a.	 3.777255e-01
9	 3	 313	 unflanked	 bex	 8	 1.000000	 0.000000	 unflanked_bex_freq_8_amplitude_1_rep_0_b_N.png	 N	 b	 t	 n.a.	 5.631893e-01
9	 3	 314	 unflanked	 bex	 6	 1.500000	 0.000000	 unflanked_bex_freq_6_amplitude_1.5_rep_2_b_D.png	 D	 b	 l	 n.a.	 2.466511e-01
9	 3	 315	 unflanked	 bex	 32	 2.000000	 0.000000	 unflanked_bex_freq_32_amplitude_2_rep_3_l_N.png	 N	 l	 l	 n.a.	 4.030478e-01
9	 3	 316	 unflanked	 bex	 4	 2.500000	 0.000000	 unflanked_bex_freq_4_amplitude_2.5_rep_9_l_H.png	 H	 l	 l	 n.a.	 2.562268e-01
9	 3	 317	 unflanked	 bex	 16	 1.000000	 0.000000	 unflanked_bex_freq_16_amplitude_1_rep_0_r_N.png	 N	 r	 r	 n.a.	 6.190469e-01
9	 3	 318	 unflanked	 bex	 32	 1.000000	 0.000000	 unflanked_bex_freq_32_amplitude_1_rep_5_l_D.png	 D	 l	 r	 n.a.	 6.052921e-01
9	 3	 319	 unflanked	 bex	 6	 3.000000	 0.000000	 unflanked_bex_freq_6_amplitude_3_rep_9_l_K.png	 K	 l	 l	 n.a.	 2.026457e-01
9	 3	 320	 unflanked	 bex	 6	 0.250000	 0.000000	 unflanked_bex_freq_6_amplitude_0.25_rep_4_b_N.png	 N	 b	 t	 n.a.	 5.853052e-01
9	 3	 321	 unflanked	 bex	 16	 1.000000	 0.000000	 unflanked_bex_freq_16_amplitude_1_rep_9_t_H.png	 H	 t	 l	 n.a.	 5.214505e-01
9	 3	 322	 unflanked	 bex	 8	 1.000000	 0.000000	 unflanked_bex_freq_8_amplitude_1_rep_8_b_D.png	 D	 b	 r	 n.a.	 3.568481e-01
9	 3	 323	 unflanked	 bex	 16	 2.000000	 0.000000	 unflanked_bex_freq_16_amplitude_2_rep_8_b_D.png	 D	 b	 b	 n.a.	 4.347729e-01
9	 3	 324	 unflanked	 bex	 16	 0.500000	 0.000000	 unflanked_bex_freq_16_amplitude_0.5_rep_2_r_N.png	 N	 r	 b	 n.a.	 2.847143e-01
9	 3	 325	 unflanked	 bex	 6	 0.250000	 0.000000	 unflanked_bex_freq_6_amplitude_0.25_rep_1_t_N.png	 N	 t	 b	 n.a.	 4.807237e-01
9	 3	 326	 unflanked	 bex	 32	 3.000000	 0.000000	 unflanked_bex_freq_32_amplitude_3_rep_0_t_N.png	 N	 t	 t	 n.a.	 3.641864e-01
9	 3	 327	 unflanked	 bex	 6	 0.250000	 0.000000	 unflanked_bex_freq_6_amplitude_0.25_rep_2_r_D.png	 D	 r	 t	 n.a.	 1.088831e+00
9	 3	 328	 unflanked	 bex	 4	 0.500000	 0.000000	 unflanked_bex_freq_4_amplitude_0.5_rep_9_r_K.png	 K	 r	 r	 n.a.	 3.110118e-01
9	 3	 329	 unflanked	 bex	 2	 1.000000	 0.000000	 unflanked_bex_freq_2_amplitude_1_rep_4_b_D.png	 D	 b	 b	 n.a.	 6.231696e-01
9	 3	 330	 unflanked	 bex	 16	 1.500000	 0.000000	 unflanked_bex_freq_16_amplitude_1.5_rep_2_b_K.png	 K	 b	 b	 n.a.	 2.806199e-01
9	 3	 331	 unflanked	 bex	 2	 0.500000	 0.000000	 unflanked_bex_freq_2_amplitude_0.5_rep_5_t_N.png	 N	 t	 r	 n.a.	 3.998251e-01
9	 3	 332	 unflanked	 bex	 4	 1.000000	 0.000000	 unflanked_bex_freq_4_amplitude_1_rep_6_l_N.png	 N	 l	 l	 n.a.	 2.987502e-01
9	 3	 333	 unflanked	 bex	 32	 2.000000	 0.000000	 unflanked_bex_freq_32_amplitude_2_rep_5_b_K.png	 K	 b	 b	 n.a.	 2.892727e-01
9	 3	 334	 unflanked	 bex	 16	 0.500000	 0.000000	 unflanked_bex_freq_16_amplitude_0.5_rep_5_l_K.png	 K	 l	 r	 n.a.	 4.229997e-01
9	 3	 335	 unflanked	 bex	 32	 0.500000	 0.000000	 unflanked_bex_freq_32_amplitude_0.5_rep_5_l_D.png	 D	 l	 t	 n.a.	 6.988501e-01
9	 3	 336	 unflanked	 bex	 2	 3.000000	 0.000000	 unflanked_bex_freq_2_amplitude_3_rep_3_r_N.png	 N	 r	 r	 n.a.	 2.631531e-01
9	 3	 337	 unflanked	 bex	 8	 1.000000	 0.000000	 unflanked_bex_freq_8_amplitude_1_rep_5_b_K.png	 K	 b	 l	 n.a.	 3.178647e-01
9	 3	 338	 unflanked	 bex	 8	 3.000000	 0.000000	 unflanked_bex_freq_8_amplitude_3_rep_9_b_N.png	 N	 b	 b	 n.a.	 3.227338e-01
9	 3	 339	 unflanked	 bex	 6	 2.500000	 0.000000	 unflanked_bex_freq_6_amplitude_2.5_rep_6_b_D.png	 D	 b	 b	 n.a.	 3.541541e-01
9	 3	 340	 unflanked	 bex	 16	 3.000000	 0.000000	 unflanked_bex_freq_16_amplitude_3_rep_4_l_N.png	 N	 l	 l	 n.a.	 2.708956e-01
9	 3	 341	 unflanked	 bex	 16	 0.500000	 0.000000	 unflanked_bex_freq_16_amplitude_0.5_rep_8_l_D.png	 D	 l	 b	 n.a.	 2.668866e-01
9	 3	 342	 unflanked	 bex	 8	 3.000000	 0.000000	 unflanked_bex_freq_8_amplitude_3_rep_6_b_H.png	 H	 b	 b	 n.a.	 4.573182e-01
9	 3	 343	 unflanked	 bex	 16	 1.000000	 0.000000	 unflanked_bex_freq_16_amplitude_1_rep_2_l_K.png	 K	 l	 b	 n.a.	 6.907013e-01
9	 3	 344	 unflanked	 bex	 8	 0.500000	 0.000000	 unflanked_bex_freq_8_amplitude_0.5_rep_3_t_N.png	 N	 t	 t	 n.a.	 1.054113e+00
9	 3	 345	 unflanked	 bex	 32	 0.500000	 0.000000	 unflanked_bex_freq_32_amplitude_0.5_rep_7_l_N.png	 N	 l	 b	 n.a.	 5.176900e-01
9	 3	 346	 unflanked	 bex	 4	 2.500000	 0.000000	 unflanked_bex_freq_4_amplitude_2.5_rep_8_b_K.png	 K	 b	 b	 n.a.	 2.472282e-01
9	 3	 347	 unflanked	 bex	 8	 2.500000	 0.000000	 unflanked_bex_freq_8_amplitude_2.5_rep_2_b_D.png	 D	 b	 b	 n.a.	 2.333827e-01
9	 3	 348	 unflanked	 bex	 8	 2.000000	 0.000000	 unflanked_bex_freq_8_amplitude_2_rep_8_t_K.png	 K	 t	 t	 n.a.	 3.052998e-01
9	 3	 349	 unflanked	 bex	 8	 1.000000	 0.000000	 unflanked_bex_freq_8_amplitude_1_rep_3_r_N.png	 N	 r	 r	 n.a.	 3.442231e-01
9	 3	 350	 unflanked	 bex	 2	 0.250000	 0.000000	 unflanked_bex_freq_2_amplitude_0.25_rep_4_r_N.png	 N	 r	 t	 n.a.	 6.817659e-01
9	 3	 351	 unflanked	 bex	 2	 2.000000	 0.000000	 unflanked_bex_freq_2_amplitude_2_rep_8_t_D.png	 D	 t	 l	 n.a.	 7.216550e-01
9	 3	 352	 unflanked	 bex	 6	 3.000000	 0.000000	 unflanked_bex_freq_6_amplitude_3_rep_4_l_N.png	 N	 l	 l	 n.a.	 3.187836e-01
9	 3	 353	 unflanked	 bex	 6	 1.000000	 0.000000	 unflanked_bex_freq_6_amplitude_1_rep_4_l_K.png	 K	 l	 l	 n.a.	 2.312355e-01
9	 3	 354	 unflanked	 bex	 8	 2.000000	 0.000000	 unflanked_bex_freq_8_amplitude_2_rep_2_t_N.png	 N	 t	 t	 n.a.	 3.035242e-01
9	 3	 355	 unflanked	 bex	 2	 1.500000	 0.000000	 unflanked_bex_freq_2_amplitude_1.5_rep_5_l_H.png	 H	 l	 l	 n.a.	 4.887915e-01
9	 3	 356	 unflanked	 bex	 32	 2.500000	 0.000000	 unflanked_bex_freq_32_amplitude_2.5_rep_3_b_N.png	 N	 b	 b	 n.a.	 4.431211e-01
9	 3	 357	 unflanked	 bex	 32	 0.500000	 0.000000	 unflanked_bex_freq_32_amplitude_0.5_rep_1_b_K.png	 K	 b	 b	 n.a.	 2.692223e-01
9	 3	 358	 unflanked	 bex	 6	 3.000000	 0.000000	 unflanked_bex_freq_6_amplitude_3_rep_6_l_K.png	 K	 l	 l	 n.a.	 2.581515e-01
9	 3	 359	 unflanked	 bex	 2	 0.500000	 0.000000	 unflanked_bex_freq_2_amplitude_0.5_rep_6_l_H.png	 H	 l	 b	 n.a.	 5.119151e-01
9	 3	 360	 unflanked	 bex	 8	 1.500000	 0.000000	 unflanked_bex_freq_8_amplitude_1.5_rep_7_r_K.png	 K	 r	 r	 n.a.	 7.588733e-01
9	 3	 361	 unflanked	 bex	 4	 1.500000	 0.000000	 unflanked_bex_freq_4_amplitude_1.5_rep_8_t_K.png	 K	 t	 t	 n.a.	 2.751562e-01
9	 3	 362	 unflanked	 bex	 16	 1.500000	 0.000000	 unflanked_bex_freq_16_amplitude_1.5_rep_8_r_D.png	 D	 r	 t	 n.a.	 6.179809e-01
9	 3	 363	 unflanked	 bex	 4	 1.500000	 0.000000	 unflanked_bex_freq_4_amplitude_1.5_rep_0_l_H.png	 H	 l	 l	 n.a.	 3.034562e-01
9	 3	 364	 unflanked	 bex	 32	 2.500000	 0.000000	 unflanked_bex_freq_32_amplitude_2.5_rep_4_r_N.png	 N	 r	 r	 n.a.	 2.231694e-01
9	 3	 365	 unflanked	 bex	 8	 0.250000	 0.000000	 unflanked_bex_freq_8_amplitude_0.25_rep_7_r_N.png	 N	 r	 t	 n.a.	 5.444235e-01
9	 3	 366	 unflanked	 bex	 8	 1.000000	 0.000000	 unflanked_bex_freq_8_amplitude_1_rep_4_b_H.png	 H	 b	 b	 n.a.	 5.732684e-01
9	 3	 367	 unflanked	 bex	 2	 0.250000	 0.000000	 unflanked_bex_freq_2_amplitude_0.25_rep_7_r_H.png	 H	 r	 t	 n.a.	 3.019401e-01
9	 3	 368	 unflanked	 bex	 2	 2.000000	 0.000000	 unflanked_bex_freq_2_amplitude_2_rep_2_r_D.png	 D	 r	 b	 n.a.	 4.801776e-01
9	 3	 369	 unflanked	 bex	 16	 0.250000	 0.000000	 unflanked_bex_freq_16_amplitude_0.25_rep_3_r_N.png	 N	 r	 b	 n.a.	 4.267497e-01
9	 3	 370	 unflanked	 bex	 32	 0.500000	 0.000000	 unflanked_bex_freq_32_amplitude_0.5_rep_4_b_H.png	 H	 b	 t	 n.a.	 5.840893e-01
9	 3	 371	 unflanked	 bex	 32	 0.250000	 0.000000	 unflanked_bex_freq_32_amplitude_0.25_rep_5_t_K.png	 K	 t	 t	 n.a.	 6.042562e-01
9	 3	 372	 unflanked	 bex	 32	 3.000000	 0.000000	 unflanked_bex_freq_32_amplitude_3_rep_9_r_H.png	 H	 r	 r	 n.a.	 2.648252e-01
9	 3	 373	 unflanked	 bex	 4	 1.000000	 0.000000	 unflanked_bex_freq_4_amplitude_1_rep_9_t_K.png	 K	 t	 t	 n.a.	 7.419381e-01
9	 3	 374	 unflanked	 bex	 32	 0.500000	 0.000000	 unflanked_bex_freq_32_amplitude_0.5_rep_8_l_D.png	 D	 l	 b	 n.a.	 3.657589e-01
9	 3	 375	 unflanked	 bex	 4	 0.250000	 0.000000	 unflanked_bex_freq_4_amplitude_0.25_rep_5_t_D.png	 D	 t	 r	 n.a.	 3.236285e-01
9	 3	 376	 unflanked	 bex	 16	 2.500000	 0.000000	 unflanked_bex_freq_16_amplitude_2.5_rep_8_t_K.png	 K	 t	 t	 n.a.	 2.902465e-01
9	 3	 377	 unflanked	 bex	 32	 1.000000	 0.000000	 unflanked_bex_freq_32_amplitude_1_rep_2_t_N.png	 N	 t	 r	 n.a.	 6.395462e-01
9	 3	 378	 unflanked	 bex	 4	 2.000000	 0.000000	 unflanked_bex_freq_4_amplitude_2_rep_0_r_K.png	 K	 r	 r	 n.a.	 3.037382e-01
9	 3	 379	 unflanked	 bex	 6	 1.000000	 0.000000	 unflanked_bex_freq_6_amplitude_1_rep_0_r_H.png	 H	 r	 r	 n.a.	 3.132338e-01
9	 3	 380	 unflanked	 bex	 2	 0.250000	 0.000000	 unflanked_bex_freq_2_amplitude_0.25_rep_9_t_D.png	 D	 t	 r	 n.a.	 2.681004e-01
9	 3	 381	 unflanked	 bex	 8	 3.000000	 0.000000	 unflanked_bex_freq_8_amplitude_3_rep_2_l_D.png	 D	 l	 l	 n.a.	 5.990294e-01
9	 3	 382	 unflanked	 bex	 4	 1.500000	 0.000000	 unflanked_bex_freq_4_amplitude_1.5_rep_5_r_K.png	 K	 r	 r	 n.a.	 3.297512e-01
9	 3	 383	 unflanked	 bex	 16	 1.000000	 0.000000	 unflanked_bex_freq_16_amplitude_1_rep_6_t_D.png	 D	 t	 r	 n.a.	 4.749879e-01
9	 3	 384	 unflanked	 bex	 4	 1.500000	 0.000000	 unflanked_bex_freq_4_amplitude_1.5_rep_4_l_H.png	 H	 l	 l	 n.a.	 2.800903e-01
9	 3	 385	 unflanked	 bex	 8	 0.250000	 0.000000	 unflanked_bex_freq_8_amplitude_0.25_rep_8_l_H.png	 H	 l	 r	 n.a.	 3.631080e-01
9	 3	 386	 unflanked	 bex	 8	 1.500000	 0.000000	 unflanked_bex_freq_8_amplitude_1.5_rep_8_l_D.png	 D	 l	 l	 n.a.	 2.756912e-01
9	 3	 387	 unflanked	 bex	 32	 1.500000	 0.000000	 unflanked_bex_freq_32_amplitude_1.5_rep_5_t_H.png	 H	 t	 b	 n.a.	 2.431170e-01
9	 3	 388	 unflanked	 bex	 2	 0.500000	 0.000000	 unflanked_bex_freq_2_amplitude_0.5_rep_7_r_K.png	 K	 r	 r	 n.a.	 3.700388e-01
9	 3	 389	 unflanked	 bex	 32	 3.000000	 0.000000	 unflanked_bex_freq_32_amplitude_3_rep_4_t_D.png	 D	 t	 b	 n.a.	 8.642895e-01
9	 3	 390	 unflanked	 bex	 6	 2.000000	 0.000000	 unflanked_bex_freq_6_amplitude_2_rep_4_b_K.png	 K	 b	 b	 n.a.	 2.423917e-01
9	 3	 391	 unflanked	 bex	 16	 2.000000	 0.000000	 unflanked_bex_freq_16_amplitude_2_rep_2_t_H.png	 H	 t	 r	 n.a.	 4.264209e-01
9	 3	 392	 unflanked	 bex	 4	 2.500000	 0.000000	 unflanked_bex_freq_4_amplitude_2.5_rep_7_t_K.png	 K	 t	 t	 n.a.	 2.479194e-01
9	 3	 393	 unflanked	 bex	 2	 1.000000	 0.000000	 unflanked_bex_freq_2_amplitude_1_rep_9_t_N.png	 N	 t	 b	 n.a.	 2.914165e-01
9	 3	 394	 unflanked	 bex	 4	 0.250000	 0.000000	 unflanked_bex_freq_4_amplitude_0.25_rep_6_t_N.png	 N	 t	 r	 n.a.	 3.762408e-01
9	 3	 395	 unflanked	 bex	 2	 1.500000	 0.000000	 unflanked_bex_freq_2_amplitude_1.5_rep_2_r_K.png	 K	 r	 r	 n.a.	 3.219251e-01
9	 3	 396	 unflanked	 bex	 6	 0.500000	 0.000000	 unflanked_bex_freq_6_amplitude_0.5_rep_9_t_H.png	 H	 t	 r	 n.a.	 4.886399e-01
9	 3	 397	 unflanked	 bex	 16	 1.500000	 0.000000	 unflanked_bex_freq_16_amplitude_1.5_rep_1_b_H.png	 H	 b	 b	 n.a.	 5.199265e-01
9	 3	 398	 unflanked	 bex	 8	 2.000000	 0.000000	 unflanked_bex_freq_8_amplitude_2_rep_4_b_H.png	 H	 b	 b	 n.a.	 3.034956e-01
9	 3	 399	 unflanked	 bex	 32	 1.000000	 0.000000	 unflanked_bex_freq_32_amplitude_1_rep_6_b_K.png	 K	 b	 r	 n.a.	 4.715897e-01
9	 3	 400	 unflanked	 bex	 4	 0.500000	 0.000000	 unflanked_bex_freq_4_amplitude_0.5_rep_6_b_H.png	 H	 b	 r	 n.a.	 5.475008e-01
9	 3	 401	 unflanked	 bex	 4	 2.500000	 0.000000	 unflanked_bex_freq_4_amplitude_2.5_rep_6_l_K.png	 K	 l	 l	 n.a.	 2.354386e-01
9	 3	 402	 unflanked	 bex	 8	 0.250000	 0.000000	 unflanked_bex_freq_8_amplitude_0.25_rep_1_l_D.png	 D	 l	 r	 n.a.	 4.298511e-01
9	 3	 403	 unflanked	 bex	 4	 0.500000	 0.000000	 unflanked_bex_freq_4_amplitude_0.5_rep_8_r_H.png	 H	 r	 r	 n.a.	 4.241855e-01
9	 3	 404	 unflanked	 bex	 6	 2.000000	 0.000000	 unflanked_bex_freq_6_amplitude_2_rep_0_r_H.png	 H	 r	 r	 n.a.	 2.720184e-01
9	 3	 405	 unflanked	 bex	 16	 1.500000	 0.000000	 unflanked_bex_freq_16_amplitude_1.5_rep_9_t_H.png	 H	 t	 b	 n.a.	 5.141991e-01
9	 3	 406	 unflanked	 bex	 16	 2.500000	 0.000000	 unflanked_bex_freq_16_amplitude_2.5_rep_0_t_H.png	 H	 t	 t	 n.a.	 3.659762e-01
9	 3	 407	 unflanked	 bex	 32	 2.500000	 0.000000	 unflanked_bex_freq_32_amplitude_2.5_rep_5_r_H.png	 H	 r	 r	 n.a.	 2.557463e-01
9	 3	 408	 unflanked	 bex	 16	 2.500000	 0.000000	 unflanked_bex_freq_16_amplitude_2.5_rep_2_r_N.png	 N	 r	 r	 n.a.	 2.224837e-01
9	 3	 409	 unflanked	 bex	 32	 0.250000	 0.000000	 unflanked_bex_freq_32_amplitude_0.25_rep_9_t_K.png	 K	 t	 r	 n.a.	 3.386865e-01
9	 3	 410	 unflanked	 bex	 6	 3.000000	 0.000000	 unflanked_bex_freq_6_amplitude_3_rep_5_b_K.png	 K	 b	 b	 n.a.	 2.597379e-01
9	 3	 411	 unflanked	 bex	 6	 1.000000	 0.000000	 unflanked_bex_freq_6_amplitude_1_rep_5_b_N.png	 N	 b	 b	 n.a.	 3.631161e-01
9	 3	 412	 unflanked	 bex	 8	 1.500000	 0.000000	 unflanked_bex_freq_8_amplitude_1.5_rep_3_l_N.png	 N	 l	 l	 n.a.	 3.131416e-01
9	 3	 413	 unflanked	 bex	 16	 0.250000	 0.000000	 unflanked_bex_freq_16_amplitude_0.25_rep_6_l_N.png	 N	 l	 t	 n.a.	 2.978307e-01
9	 3	 414	 unflanked	 bex	 6	 1.500000	 0.000000	 unflanked_bex_freq_6_amplitude_1.5_rep_7_b_K.png	 K	 b	 b	 n.a.	 2.722266e-01
9	 3	 415	 unflanked	 bex	 2	 0.500000	 0.000000	 unflanked_bex_freq_2_amplitude_0.5_rep_8_t_D.png	 D	 t	 b	 n.a.	 7.042813e-01
9	 3	 416	 unflanked	 bex	 8	 0.500000	 0.000000	 unflanked_bex_freq_8_amplitude_0.5_rep_5_b_N.png	 N	 b	 b	 n.a.	 9.050350e-01
9	 3	 417	 unflanked	 bex	 16	 0.500000	 0.000000	 unflanked_bex_freq_16_amplitude_0.5_rep_7_t_D.png	 D	 t	 b	 n.a.	 5.947950e-01
9	 3	 418	 unflanked	 bex	 16	 1.500000	 0.000000	 unflanked_bex_freq_16_amplitude_1.5_rep_7_r_K.png	 K	 r	 r	 n.a.	 2.940123e-01
9	 3	 419	 unflanked	 bex	 16	 0.500000	 0.000000	 unflanked_bex_freq_16_amplitude_0.5_rep_3_r_K.png	 K	 r	 r	 n.a.	 3.792522e-01
9	 3	 420	 unflanked	 bex	 16	 2.000000	 0.000000	 unflanked_bex_freq_16_amplitude_2_rep_9_r_H.png	 H	 r	 r	 n.a.	 2.408034e-01
