subject	 session	 trial	 flanked	 distortion	 freq	 amplitude	 spacing	 im_name	 targ_letter	 targ_pos	 response	 eyemovement	 RT
7	 5	 1	 unflanked	 rf	 8	 0.061700	 0.000000	 unflanked_rf_freq_8_amplitude_0.0617_rep_5_t_K.png	 K	 t	 t	 n.a.	 3.826437e-01
7	 5	 2	 unflanked	 rf	 3	 0.113300	 0.000000	 unflanked_rf_freq_3_amplitude_0.1133_rep_3_b_N.png	 N	 b	 b	 n.a.	 4.362396e-01
7	 5	 3	 unflanked	 rf	 5	 0.061700	 0.000000	 unflanked_rf_freq_5_amplitude_0.0617_rep_6_r_D.png	 D	 r	 r	 n.a.	 3.823541e-01
7	 5	 4	 unflanked	 rf	 4	 0.216700	 0.000000	 unflanked_rf_freq_4_amplitude_0.2167_rep_6_b_D.png	 D	 b	 b	 n.a.	 3.747798e-01
7	 5	 5	 unflanked	 rf	 12	 0.061700	 0.000000	 unflanked_rf_freq_12_amplitude_0.0617_rep_1_t_N.png	 N	 t	 t	 n.a.	 3.871071e-01
7	 5	 6	 unflanked	 rf	 8	 0.216700	 0.000000	 unflanked_rf_freq_8_amplitude_0.2167_rep_3_l_D.png	 D	 l	 l	 n.a.	 3.279962e-01
7	 5	 7	 unflanked	 rf	 12	 0.061700	 0.000000	 unflanked_rf_freq_12_amplitude_0.0617_rep_2_b_H.png	 H	 b	 b	 n.a.	 5.983923e-01
7	 5	 8	 unflanked	 rf	 12	 0.007500	 0.000000	 unflanked_rf_freq_12_amplitude_0.0075_rep_4_t_K.png	 K	 t	 t	 n.a.	 1.109467e+00
7	 5	 9	 unflanked	 rf	 5	 0.113300	 0.000000	 unflanked_rf_freq_5_amplitude_0.1133_rep_4_l_K.png	 K	 l	 t	 n.a.	 8.404302e-01
7	 5	 10	 unflanked	 rf	 12	 0.061700	 0.000000	 unflanked_rf_freq_12_amplitude_0.0617_rep_8_l_K.png	 K	 l	 l	 n.a.	 8.075980e-01
7	 5	 11	 unflanked	 rf	 4	 0.113300	 0.000000	 unflanked_rf_freq_4_amplitude_0.1133_rep_7_t_K.png	 K	 t	 t	 n.a.	 9.014298e-01
7	 5	 12	 unflanked	 rf	 4	 0.268300	 0.000000	 unflanked_rf_freq_4_amplitude_0.2683_rep_2_l_N.png	 N	 l	 l	 n.a.	 3.431718e-01
7	 5	 13	 unflanked	 rf	 8	 0.007500	 0.000000	 unflanked_rf_freq_8_amplitude_0.0075_rep_2_r_N.png	 N	 r	 l	 n.a.	 5.235157e-01
7	 5	 14	 unflanked	 rf	 4	 0.165000	 0.000000	 unflanked_rf_freq_4_amplitude_0.165_rep_8_l_K.png	 K	 l	 l	 n.a.	 3.067755e-01
7	 5	 15	 unflanked	 rf	 3	 0.010000	 0.000000	 unflanked_rf_freq_3_amplitude_0.01_rep_2_r_H.png	 H	 r	 b	 n.a.	 7.461064e-01
7	 5	 16	 unflanked	 rf	 3	 0.268300	 0.000000	 unflanked_rf_freq_3_amplitude_0.2683_rep_7_r_K.png	 K	 r	 r	 n.a.	 2.654044e-01
7	 5	 17	 unflanked	 rf	 2	 0.061700	 0.000000	 unflanked_rf_freq_2_amplitude_0.0617_rep_4_r_K.png	 K	 r	 l	 n.a.	 5.081936e-01
7	 5	 18	 unflanked	 rf	 2	 0.165000	 0.000000	 unflanked_rf_freq_2_amplitude_0.165_rep_5_r_K.png	 K	 r	 r	 n.a.	 2.877975e-01
7	 5	 19	 unflanked	 rf	 8	 0.113300	 0.000000	 unflanked_rf_freq_8_amplitude_0.1133_rep_5_l_H.png	 H	 l	 l	 n.a.	 4.447498e-01
7	 5	 20	 unflanked	 rf	 2	 0.216700	 0.000000	 unflanked_rf_freq_2_amplitude_0.2167_rep_5_r_H.png	 H	 r	 r	 n.a.	 3.392386e-01
7	 5	 21	 unflanked	 rf	 12	 0.216700	 0.000000	 unflanked_rf_freq_12_amplitude_0.2167_rep_0_b_N.png	 N	 b	 b	 n.a.	 3.171897e-01
7	 5	 22	 unflanked	 rf	 4	 0.268300	 0.000000	 unflanked_rf_freq_4_amplitude_0.2683_rep_0_r_K.png	 K	 r	 r	 n.a.	 4.658621e-01
7	 5	 23	 unflanked	 rf	 12	 0.165000	 0.000000	 unflanked_rf_freq_12_amplitude_0.165_rep_0_b_N.png	 N	 b	 b	 n.a.	 2.444637e-01
7	 5	 24	 unflanked	 rf	 3	 0.165000	 0.000000	 unflanked_rf_freq_3_amplitude_0.165_rep_4_r_N.png	 N	 r	 r	 n.a.	 6.528365e-01
7	 5	 25	 unflanked	 rf	 3	 0.010000	 0.000000	 unflanked_rf_freq_3_amplitude_0.01_rep_4_b_K.png	 K	 b	 b	 n.a.	 5.271969e-01
7	 5	 26	 unflanked	 rf	 8	 0.113300	 0.000000	 unflanked_rf_freq_8_amplitude_0.1133_rep_2_r_D.png	 D	 r	 r	 n.a.	 2.783720e-01
7	 5	 27	 unflanked	 rf	 4	 0.010000	 0.000000	 unflanked_rf_freq_4_amplitude_0.01_rep_2_l_K.png	 K	 l	 b	 n.a.	 7.219721e-01
7	 5	 28	 unflanked	 rf	 5	 0.165000	 0.000000	 unflanked_rf_freq_5_amplitude_0.165_rep_7_t_K.png	 K	 t	 t	 n.a.	 4.064853e-01
7	 5	 29	 unflanked	 rf	 4	 0.165000	 0.000000	 unflanked_rf_freq_4_amplitude_0.165_rep_7_b_D.png	 D	 b	 b	 n.a.	 3.972563e-01
7	 5	 30	 unflanked	 rf	 8	 0.010000	 0.000000	 unflanked_rf_freq_8_amplitude_0.01_rep_1_r_H.png	 H	 r	 t	 n.a.	 4.407112e-01
7	 5	 31	 unflanked	 rf	 12	 0.010000	 0.000000	 unflanked_rf_freq_12_amplitude_0.01_rep_9_t_K.png	 K	 t	 b	 n.a.	 6.738220e-01
7	 5	 32	 unflanked	 rf	 2	 0.061700	 0.000000	 unflanked_rf_freq_2_amplitude_0.0617_rep_6_l_D.png	 D	 l	 b	 n.a.	 3.834371e-01
7	 5	 33	 unflanked	 rf	 4	 0.007500	 0.000000	 unflanked_rf_freq_4_amplitude_0.0075_rep_7_t_N.png	 N	 t	 t	 n.a.	 4.885627e-01
7	 5	 34	 unflanked	 rf	 5	 0.007500	 0.000000	 unflanked_rf_freq_5_amplitude_0.0075_rep_0_b_N.png	 N	 b	 l	 n.a.	 6.574801e-01
7	 5	 35	 unflanked	 rf	 3	 0.216700	 0.000000	 unflanked_rf_freq_3_amplitude_0.2167_rep_4_t_N.png	 N	 t	 t	 n.a.	 3.082028e-01
7	 5	 36	 unflanked	 rf	 2	 0.061700	 0.000000	 unflanked_rf_freq_2_amplitude_0.0617_rep_9_b_H.png	 H	 b	 l	 n.a.	 3.292026e-01
7	 5	 37	 unflanked	 rf	 5	 0.010000	 0.000000	 unflanked_rf_freq_5_amplitude_0.01_rep_8_r_K.png	 K	 r	 t	 n.a.	 6.585343e-01
7	 5	 38	 unflanked	 rf	 12	 0.010000	 0.000000	 unflanked_rf_freq_12_amplitude_0.01_rep_6_r_K.png	 K	 r	 t	 n.a.	 5.213729e-01
7	 5	 39	 unflanked	 rf	 12	 0.216700	 0.000000	 unflanked_rf_freq_12_amplitude_0.2167_rep_6_b_D.png	 D	 b	 b	 n.a.	 2.512228e-01
7	 5	 40	 unflanked	 rf	 4	 0.061700	 0.000000	 unflanked_rf_freq_4_amplitude_0.0617_rep_9_b_D.png	 D	 b	 b	 n.a.	 3.102234e-01
7	 5	 41	 unflanked	 rf	 4	 0.113300	 0.000000	 unflanked_rf_freq_4_amplitude_0.1133_rep_0_t_K.png	 K	 t	 t	 n.a.	 3.739262e-01
7	 5	 42	 unflanked	 rf	 3	 0.113300	 0.000000	 unflanked_rf_freq_3_amplitude_0.1133_rep_9_l_K.png	 K	 l	 l	 n.a.	 6.166069e-01
7	 5	 43	 unflanked	 rf	 12	 0.216700	 0.000000	 unflanked_rf_freq_12_amplitude_0.2167_rep_2_t_N.png	 N	 t	 t	 n.a.	 4.034249e-01
7	 5	 44	 unflanked	 rf	 4	 0.007500	 0.000000	 unflanked_rf_freq_4_amplitude_0.0075_rep_6_t_H.png	 H	 t	 t	 n.a.	 4.682996e-01
7	 5	 45	 unflanked	 rf	 3	 0.216700	 0.000000	 unflanked_rf_freq_3_amplitude_0.2167_rep_8_l_K.png	 K	 l	 l	 n.a.	 3.020129e-01
7	 5	 46	 unflanked	 rf	 8	 0.007500	 0.000000	 unflanked_rf_freq_8_amplitude_0.0075_rep_3_r_D.png	 D	 r	 t	 n.a.	 6.453102e-01
7	 5	 47	 unflanked	 rf	 5	 0.268300	 0.000000	 unflanked_rf_freq_5_amplitude_0.2683_rep_5_l_N.png	 N	 l	 l	 n.a.	 2.724200e-01
7	 5	 48	 unflanked	 rf	 4	 0.010000	 0.000000	 unflanked_rf_freq_4_amplitude_0.01_rep_0_b_N.png	 N	 b	 b	 n.a.	 9.758915e-01
7	 5	 49	 unflanked	 rf	 4	 0.007500	 0.000000	 unflanked_rf_freq_4_amplitude_0.0075_rep_9_b_N.png	 N	 b	 t	 n.a.	 4.587712e-01
7	 5	 50	 unflanked	 rf	 8	 0.113300	 0.000000	 unflanked_rf_freq_8_amplitude_0.1133_rep_4_b_N.png	 N	 b	 b	 n.a.	 3.466127e-01
7	 5	 51	 unflanked	 rf	 4	 0.010000	 0.000000	 unflanked_rf_freq_4_amplitude_0.01_rep_1_r_D.png	 D	 r	 l	 n.a.	 6.038897e-01
7	 5	 52	 unflanked	 rf	 3	 0.061700	 0.000000	 unflanked_rf_freq_3_amplitude_0.0617_rep_8_t_D.png	 D	 t	 t	 n.a.	 2.890937e-01
7	 5	 53	 unflanked	 rf	 5	 0.010000	 0.000000	 unflanked_rf_freq_5_amplitude_0.01_rep_9_b_K.png	 K	 b	 b	 n.a.	 3.703422e-01
7	 5	 54	 unflanked	 rf	 12	 0.010000	 0.000000	 unflanked_rf_freq_12_amplitude_0.01_rep_3_l_K.png	 K	 l	 t	 n.a.	 6.785542e-01
7	 5	 55	 unflanked	 rf	 5	 0.010000	 0.000000	 unflanked_rf_freq_5_amplitude_0.01_rep_6_t_D.png	 D	 t	 l	 n.a.	 2.522192e-01
7	 5	 56	 unflanked	 rf	 8	 0.268300	 0.000000	 unflanked_rf_freq_8_amplitude_0.2683_rep_9_t_K.png	 K	 t	 t	 n.a.	 2.232126e-01
7	 5	 57	 unflanked	 rf	 3	 0.216700	 0.000000	 unflanked_rf_freq_3_amplitude_0.2167_rep_2_r_N.png	 N	 r	 r	 n.a.	 4.075949e-01
7	 5	 58	 unflanked	 rf	 5	 0.113300	 0.000000	 unflanked_rf_freq_5_amplitude_0.1133_rep_5_r_K.png	 K	 r	 r	 n.a.	 3.344590e-01
7	 5	 59	 unflanked	 rf	 12	 0.113300	 0.000000	 unflanked_rf_freq_12_amplitude_0.1133_rep_4_b_D.png	 D	 b	 b	 n.a.	 3.134844e-01
7	 5	 60	 unflanked	 rf	 4	 0.216700	 0.000000	 unflanked_rf_freq_4_amplitude_0.2167_rep_1_r_D.png	 D	 r	 r	 n.a.	 2.821616e-01
7	 5	 61	 unflanked	 rf	 12	 0.216700	 0.000000	 unflanked_rf_freq_12_amplitude_0.2167_rep_5_l_K.png	 K	 l	 l	 n.a.	 2.789983e-01
7	 5	 62	 unflanked	 rf	 5	 0.216700	 0.000000	 unflanked_rf_freq_5_amplitude_0.2167_rep_2_l_N.png	 N	 l	 l	 n.a.	 4.651444e-01
7	 5	 63	 unflanked	 rf	 5	 0.113300	 0.000000	 unflanked_rf_freq_5_amplitude_0.1133_rep_7_l_D.png	 D	 l	 l	 n.a.	 3.116593e-01
7	 5	 64	 unflanked	 rf	 5	 0.165000	 0.000000	 unflanked_rf_freq_5_amplitude_0.165_rep_5_r_N.png	 N	 r	 r	 n.a.	 3.118675e-01
7	 5	 65	 unflanked	 rf	 8	 0.165000	 0.000000	 unflanked_rf_freq_8_amplitude_0.165_rep_4_r_H.png	 H	 r	 r	 n.a.	 3.229157e-01
7	 5	 66	 unflanked	 rf	 3	 0.007500	 0.000000	 unflanked_rf_freq_3_amplitude_0.0075_rep_5_t_N.png	 N	 t	 t	 n.a.	 3.745619e-01
7	 5	 67	 unflanked	 rf	 12	 0.007500	 0.000000	 unflanked_rf_freq_12_amplitude_0.0075_rep_9_l_D.png	 D	 l	 r	 n.a.	 4.718506e-01
7	 5	 68	 unflanked	 rf	 4	 0.007500	 0.000000	 unflanked_rf_freq_4_amplitude_0.0075_rep_2_r_N.png	 N	 r	 b	 n.a.	 5.967239e-01
7	 5	 69	 unflanked	 rf	 8	 0.268300	 0.000000	 unflanked_rf_freq_8_amplitude_0.2683_rep_3_b_N.png	 N	 b	 b	 n.a.	 3.352429e-01
7	 5	 70	 unflanked	 rf	 4	 0.268300	 0.000000	 unflanked_rf_freq_4_amplitude_0.2683_rep_7_l_D.png	 D	 l	 l	 n.a.	 2.988711e-01
7	 5	 71	 unflanked	 rf	 12	 0.268300	 0.000000	 unflanked_rf_freq_12_amplitude_0.2683_rep_5_l_D.png	 D	 l	 l	 n.a.	 2.520189e-01
7	 5	 72	 unflanked	 rf	 5	 0.165000	 0.000000	 unflanked_rf_freq_5_amplitude_0.165_rep_9_t_H.png	 H	 t	 t	 n.a.	 2.796530e-01
7	 5	 73	 unflanked	 rf	 5	 0.007500	 0.000000	 unflanked_rf_freq_5_amplitude_0.0075_rep_7_l_N.png	 N	 l	 t	 n.a.	 5.265551e-01
7	 5	 74	 unflanked	 rf	 2	 0.007500	 0.000000	 unflanked_rf_freq_2_amplitude_0.0075_rep_8_t_H.png	 H	 t	 b	 n.a.	 4.580668e-01
7	 5	 75	 unflanked	 rf	 4	 0.165000	 0.000000	 unflanked_rf_freq_4_amplitude_0.165_rep_6_b_D.png	 D	 b	 b	 n.a.	 3.299982e-01
7	 5	 76	 unflanked	 rf	 4	 0.165000	 0.000000	 unflanked_rf_freq_4_amplitude_0.165_rep_2_t_K.png	 K	 t	 t	 n.a.	 4.120320e-01
7	 5	 77	 unflanked	 rf	 12	 0.113300	 0.000000	 unflanked_rf_freq_12_amplitude_0.1133_rep_7_r_K.png	 K	 r	 r	 n.a.	 2.990027e-01
7	 5	 78	 unflanked	 rf	 5	 0.113300	 0.000000	 unflanked_rf_freq_5_amplitude_0.1133_rep_3_t_K.png	 K	 t	 t	 n.a.	 6.100124e-01
7	 5	 79	 unflanked	 rf	 3	 0.010000	 0.000000	 unflanked_rf_freq_3_amplitude_0.01_rep_8_l_D.png	 D	 l	 t	 n.a.	 4.832499e-01
7	 5	 80	 unflanked	 rf	 12	 0.007500	 0.000000	 unflanked_rf_freq_12_amplitude_0.0075_rep_5_b_K.png	 K	 b	 t	 n.a.	 3.977101e-01
7	 5	 81	 unflanked	 rf	 8	 0.010000	 0.000000	 unflanked_rf_freq_8_amplitude_0.01_rep_0_t_D.png	 D	 t	 r	 n.a.	 5.640652e-01
7	 5	 82	 unflanked	 rf	 4	 0.061700	 0.000000	 unflanked_rf_freq_4_amplitude_0.0617_rep_5_l_N.png	 N	 l	 l	 n.a.	 2.390870e-01
7	 5	 83	 unflanked	 rf	 2	 0.216700	 0.000000	 unflanked_rf_freq_2_amplitude_0.2167_rep_7_t_H.png	 H	 t	 t	 n.a.	 2.886581e-01
7	 5	 84	 unflanked	 rf	 3	 0.165000	 0.000000	 unflanked_rf_freq_3_amplitude_0.165_rep_6_b_N.png	 N	 b	 b	 n.a.	 3.738893e-01
7	 5	 85	 unflanked	 rf	 4	 0.061700	 0.000000	 unflanked_rf_freq_4_amplitude_0.0617_rep_4_b_H.png	 H	 b	 b	 n.a.	 5.472073e-01
7	 5	 86	 unflanked	 rf	 2	 0.007500	 0.000000	 unflanked_rf_freq_2_amplitude_0.0075_rep_6_r_K.png	 K	 r	 t	 n.a.	 3.273763e-01
7	 5	 87	 unflanked	 rf	 5	 0.007500	 0.000000	 unflanked_rf_freq_5_amplitude_0.0075_rep_3_t_H.png	 H	 t	 t	 n.a.	 4.427312e-01
7	 5	 88	 unflanked	 rf	 5	 0.216700	 0.000000	 unflanked_rf_freq_5_amplitude_0.2167_rep_0_r_H.png	 H	 r	 r	 n.a.	 2.833116e-01
7	 5	 89	 unflanked	 rf	 8	 0.216700	 0.000000	 unflanked_rf_freq_8_amplitude_0.2167_rep_8_t_D.png	 D	 t	 t	 n.a.	 2.335248e-01
7	 5	 90	 unflanked	 rf	 12	 0.007500	 0.000000	 unflanked_rf_freq_12_amplitude_0.0075_rep_3_l_N.png	 N	 l	 r	 n.a.	 8.271074e-01
7	 5	 91	 unflanked	 rf	 8	 0.216700	 0.000000	 unflanked_rf_freq_8_amplitude_0.2167_rep_2_l_K.png	 K	 l	 l	 n.a.	 2.466683e-01
7	 5	 92	 unflanked	 rf	 12	 0.216700	 0.000000	 unflanked_rf_freq_12_amplitude_0.2167_rep_3_r_N.png	 N	 r	 r	 n.a.	 2.879411e-01
7	 5	 93	 unflanked	 rf	 3	 0.061700	 0.000000	 unflanked_rf_freq_3_amplitude_0.0617_rep_5_b_H.png	 H	 b	 t	 n.a.	 2.919611e-01
7	 5	 94	 unflanked	 rf	 8	 0.268300	 0.000000	 unflanked_rf_freq_8_amplitude_0.2683_rep_6_b_D.png	 D	 b	 b	 n.a.	 2.375850e-01
7	 5	 95	 unflanked	 rf	 5	 0.113300	 0.000000	 unflanked_rf_freq_5_amplitude_0.1133_rep_1_l_K.png	 K	 l	 l	 n.a.	 3.008258e-01
7	 5	 96	 unflanked	 rf	 5	 0.113300	 0.000000	 unflanked_rf_freq_5_amplitude_0.1133_rep_6_l_H.png	 H	 l	 t	 n.a.	 3.107365e-01
7	 5	 97	 unflanked	 rf	 8	 0.010000	 0.000000	 unflanked_rf_freq_8_amplitude_0.01_rep_9_l_N.png	 N	 l	 t	 n.a.	 5.943081e-01
7	 5	 98	 unflanked	 rf	 3	 0.007500	 0.000000	 unflanked_rf_freq_3_amplitude_0.0075_rep_9_r_N.png	 N	 r	 r	 n.a.	 5.061863e-01
7	 5	 99	 unflanked	 rf	 5	 0.007500	 0.000000	 unflanked_rf_freq_5_amplitude_0.0075_rep_2_r_D.png	 D	 r	 t	 n.a.	 6.173059e-01
7	 5	 100	 unflanked	 rf	 2	 0.216700	 0.000000	 unflanked_rf_freq_2_amplitude_0.2167_rep_9_b_D.png	 D	 b	 r	 n.a.	 3.063057e-01
7	 5	 101	 unflanked	 rf	 5	 0.113300	 0.000000	 unflanked_rf_freq_5_amplitude_0.1133_rep_0_t_H.png	 H	 t	 t	 n.a.	 4.121616e-01
7	 5	 102	 unflanked	 rf	 2	 0.165000	 0.000000	 unflanked_rf_freq_2_amplitude_0.165_rep_4_t_D.png	 D	 t	 t	 n.a.	 4.146002e-01
7	 5	 103	 unflanked	 rf	 8	 0.216700	 0.000000	 unflanked_rf_freq_8_amplitude_0.2167_rep_6_r_K.png	 K	 r	 r	 n.a.	 2.795255e-01
7	 5	 104	 unflanked	 rf	 3	 0.268300	 0.000000	 unflanked_rf_freq_3_amplitude_0.2683_rep_9_l_H.png	 H	 l	 l	 n.a.	 2.885994e-01
7	 5	 105	 unflanked	 rf	 5	 0.010000	 0.000000	 unflanked_rf_freq_5_amplitude_0.01_rep_0_r_N.png	 N	 r	 b	 n.a.	 7.434952e-01
7	 5	 106	 unflanked	 rf	 4	 0.113300	 0.000000	 unflanked_rf_freq_4_amplitude_0.1133_rep_1_l_D.png	 D	 l	 r	 n.a.	 6.429602e-01
7	 5	 107	 unflanked	 rf	 5	 0.268300	 0.000000	 unflanked_rf_freq_5_amplitude_0.2683_rep_3_r_K.png	 K	 r	 r	 n.a.	 2.217648e-01
7	 5	 108	 unflanked	 rf	 8	 0.113300	 0.000000	 unflanked_rf_freq_8_amplitude_0.1133_rep_7_r_K.png	 K	 r	 r	 n.a.	 2.588517e-01
7	 5	 109	 unflanked	 rf	 8	 0.113300	 0.000000	 unflanked_rf_freq_8_amplitude_0.1133_rep_1_t_H.png	 H	 t	 t	 n.a.	 2.653776e-01
7	 5	 110	 unflanked	 rf	 8	 0.216700	 0.000000	 unflanked_rf_freq_8_amplitude_0.2167_rep_9_r_N.png	 N	 r	 r	 n.a.	 2.513916e-01
7	 5	 111	 unflanked	 rf	 3	 0.113300	 0.000000	 unflanked_rf_freq_3_amplitude_0.1133_rep_8_b_D.png	 D	 b	 b	 n.a.	 3.597622e-01
7	 5	 112	 unflanked	 rf	 12	 0.165000	 0.000000	 unflanked_rf_freq_12_amplitude_0.165_rep_6_b_K.png	 K	 b	 b	 n.a.	 3.172108e-01
7	 5	 113	 unflanked	 rf	 3	 0.061700	 0.000000	 unflanked_rf_freq_3_amplitude_0.0617_rep_7_b_K.png	 K	 b	 b	 n.a.	 4.066509e-01
7	 5	 114	 unflanked	 rf	 8	 0.061700	 0.000000	 unflanked_rf_freq_8_amplitude_0.0617_rep_3_l_D.png	 D	 l	 l	 n.a.	 4.104042e-01
7	 5	 115	 unflanked	 rf	 8	 0.061700	 0.000000	 unflanked_rf_freq_8_amplitude_0.0617_rep_8_b_N.png	 N	 b	 r	 n.a.	 3.515801e-01
7	 5	 116	 unflanked	 rf	 4	 0.061700	 0.000000	 unflanked_rf_freq_4_amplitude_0.0617_rep_2_l_D.png	 D	 l	 t	 n.a.	 3.967329e-01
7	 5	 117	 unflanked	 rf	 2	 0.010000	 0.000000	 unflanked_rf_freq_2_amplitude_0.01_rep_4_t_D.png	 D	 t	 r	 n.a.	 6.367452e-01
7	 5	 118	 unflanked	 rf	 12	 0.216700	 0.000000	 unflanked_rf_freq_12_amplitude_0.2167_rep_8_b_N.png	 N	 b	 b	 n.a.	 2.780242e-01
7	 5	 119	 unflanked	 rf	 3	 0.165000	 0.000000	 unflanked_rf_freq_3_amplitude_0.165_rep_7_r_D.png	 D	 r	 r	 n.a.	 2.543318e-01
7	 5	 120	 unflanked	 rf	 3	 0.113300	 0.000000	 unflanked_rf_freq_3_amplitude_0.1133_rep_6_t_D.png	 D	 t	 t	 n.a.	 3.552297e-01
7	 5	 121	 unflanked	 rf	 4	 0.165000	 0.000000	 unflanked_rf_freq_4_amplitude_0.165_rep_0_r_K.png	 K	 r	 r	 n.a.	 2.710583e-01
7	 5	 122	 unflanked	 rf	 2	 0.165000	 0.000000	 unflanked_rf_freq_2_amplitude_0.165_rep_2_r_H.png	 H	 r	 r	 n.a.	 4.267504e-01
7	 5	 123	 unflanked	 rf	 12	 0.113300	 0.000000	 unflanked_rf_freq_12_amplitude_0.1133_rep_9_l_K.png	 K	 l	 l	 n.a.	 2.741014e-01
7	 5	 124	 unflanked	 rf	 4	 0.007500	 0.000000	 unflanked_rf_freq_4_amplitude_0.0075_rep_4_b_K.png	 K	 b	 t	 n.a.	 3.819813e-01
7	 5	 125	 unflanked	 rf	 2	 0.165000	 0.000000	 unflanked_rf_freq_2_amplitude_0.165_rep_9_l_K.png	 K	 l	 l	 n.a.	 3.311290e-01
7	 5	 126	 unflanked	 rf	 3	 0.165000	 0.000000	 unflanked_rf_freq_3_amplitude_0.165_rep_5_b_D.png	 D	 b	 b	 n.a.	 4.520153e-01
7	 5	 127	 unflanked	 rf	 3	 0.007500	 0.000000	 unflanked_rf_freq_3_amplitude_0.0075_rep_6_r_D.png	 D	 r	 t	 n.a.	 3.315207e-01
7	 5	 128	 unflanked	 rf	 12	 0.113300	 0.000000	 unflanked_rf_freq_12_amplitude_0.1133_rep_3_r_H.png	 H	 r	 r	 n.a.	 2.579775e-01
7	 5	 129	 unflanked	 rf	 5	 0.216700	 0.000000	 unflanked_rf_freq_5_amplitude_0.2167_rep_1_r_N.png	 N	 r	 r	 n.a.	 2.913188e-01
7	 5	 130	 unflanked	 rf	 12	 0.268300	 0.000000	 unflanked_rf_freq_12_amplitude_0.2683_rep_9_l_K.png	 K	 l	 l	 n.a.	 2.965904e-01
7	 5	 131	 unflanked	 rf	 3	 0.061700	 0.000000	 unflanked_rf_freq_3_amplitude_0.0617_rep_4_l_N.png	 N	 l	 t	 n.a.	 6.277126e-01
7	 5	 132	 unflanked	 rf	 8	 0.165000	 0.000000	 unflanked_rf_freq_8_amplitude_0.165_rep_1_b_N.png	 N	 b	 b	 n.a.	 2.531380e-01
7	 5	 133	 unflanked	 rf	 3	 0.061700	 0.000000	 unflanked_rf_freq_3_amplitude_0.0617_rep_3_b_N.png	 N	 b	 r	 n.a.	 4.387611e-01
7	 5	 134	 unflanked	 rf	 5	 0.061700	 0.000000	 unflanked_rf_freq_5_amplitude_0.0617_rep_0_r_H.png	 H	 r	 r	 n.a.	 4.045116e-01
7	 5	 135	 unflanked	 rf	 12	 0.113300	 0.000000	 unflanked_rf_freq_12_amplitude_0.1133_rep_8_r_H.png	 H	 r	 r	 n.a.	 3.068145e-01
7	 5	 136	 unflanked	 rf	 12	 0.007500	 0.000000	 unflanked_rf_freq_12_amplitude_0.0075_rep_6_l_N.png	 N	 l	 b	 n.a.	 5.571437e-01
7	 5	 137	 unflanked	 rf	 3	 0.061700	 0.000000	 unflanked_rf_freq_3_amplitude_0.0617_rep_9_l_H.png	 H	 l	 t	 n.a.	 4.367086e-01
7	 5	 138	 unflanked	 rf	 8	 0.113300	 0.000000	 unflanked_rf_freq_8_amplitude_0.1133_rep_8_t_H.png	 H	 t	 t	 n.a.	 2.824120e-01
7	 5	 139	 unflanked	 rf	 2	 0.268300	 0.000000	 unflanked_rf_freq_2_amplitude_0.2683_rep_9_t_H.png	 H	 t	 t	 n.a.	 4.166769e-01
7	 5	 140	 unflanked	 rf	 3	 0.007500	 0.000000	 unflanked_rf_freq_3_amplitude_0.0075_rep_1_t_D.png	 D	 t	 t	 n.a.	 5.708127e-01
7	 5	 141	 unflanked	 rf	 3	 0.113300	 0.000000	 unflanked_rf_freq_3_amplitude_0.1133_rep_4_l_D.png	 D	 l	 t	 n.a.	 3.519238e-01
7	 5	 142	 unflanked	 rf	 12	 0.061700	 0.000000	 unflanked_rf_freq_12_amplitude_0.0617_rep_5_r_D.png	 D	 r	 r	 n.a.	 2.422558e-01
7	 5	 143	 unflanked	 rf	 5	 0.007500	 0.000000	 unflanked_rf_freq_5_amplitude_0.0075_rep_1_l_K.png	 K	 l	 t	 n.a.	 7.026126e-01
7	 5	 144	 unflanked	 rf	 4	 0.268300	 0.000000	 unflanked_rf_freq_4_amplitude_0.2683_rep_9_t_N.png	 N	 t	 t	 n.a.	 3.493919e-01
7	 5	 145	 unflanked	 rf	 2	 0.268300	 0.000000	 unflanked_rf_freq_2_amplitude_0.2683_rep_7_t_N.png	 N	 t	 t	 n.a.	 3.088747e-01
7	 5	 146	 unflanked	 rf	 12	 0.216700	 0.000000	 unflanked_rf_freq_12_amplitude_0.2167_rep_9_t_D.png	 D	 t	 t	 n.a.	 2.243033e-01
7	 5	 147	 unflanked	 rf	 12	 0.165000	 0.000000	 unflanked_rf_freq_12_amplitude_0.165_rep_5_t_N.png	 N	 t	 t	 n.a.	 2.243828e-01
7	 5	 148	 unflanked	 rf	 5	 0.268300	 0.000000	 unflanked_rf_freq_5_amplitude_0.2683_rep_9_l_K.png	 K	 l	 l	 n.a.	 2.646266e-01
7	 5	 149	 unflanked	 rf	 8	 0.010000	 0.000000	 unflanked_rf_freq_8_amplitude_0.01_rep_2_r_N.png	 N	 r	 l	 n.a.	 4.693936e-01
7	 5	 150	 unflanked	 rf	 5	 0.010000	 0.000000	 unflanked_rf_freq_5_amplitude_0.01_rep_5_b_D.png	 D	 b	 t	 n.a.	 4.203533e-01
7	 5	 151	 unflanked	 rf	 8	 0.216700	 0.000000	 unflanked_rf_freq_8_amplitude_0.2167_rep_1_l_N.png	 N	 l	 l	 n.a.	 2.027236e-01
7	 5	 152	 unflanked	 rf	 3	 0.165000	 0.000000	 unflanked_rf_freq_3_amplitude_0.165_rep_0_b_H.png	 H	 b	 b	 n.a.	 3.850784e-01
7	 5	 153	 unflanked	 rf	 5	 0.216700	 0.000000	 unflanked_rf_freq_5_amplitude_0.2167_rep_5_t_N.png	 N	 t	 t	 n.a.	 2.491870e-01
7	 5	 154	 unflanked	 rf	 2	 0.216700	 0.000000	 unflanked_rf_freq_2_amplitude_0.2167_rep_8_t_D.png	 D	 t	 t	 n.a.	 3.582515e-01
7	 5	 155	 unflanked	 rf	 4	 0.113300	 0.000000	 unflanked_rf_freq_4_amplitude_0.1133_rep_6_t_N.png	 N	 t	 t	 n.a.	 3.334250e-01
7	 5	 156	 unflanked	 rf	 8	 0.268300	 0.000000	 unflanked_rf_freq_8_amplitude_0.2683_rep_4_r_H.png	 H	 r	 r	 n.a.	 2.830437e-01
7	 5	 157	 unflanked	 rf	 12	 0.113300	 0.000000	 unflanked_rf_freq_12_amplitude_0.1133_rep_5_t_H.png	 H	 t	 t	 n.a.	 3.071168e-01
7	 5	 158	 unflanked	 rf	 8	 0.010000	 0.000000	 unflanked_rf_freq_8_amplitude_0.01_rep_7_t_D.png	 D	 t	 t	 n.a.	 4.385832e-01
7	 5	 159	 unflanked	 rf	 5	 0.216700	 0.000000	 unflanked_rf_freq_5_amplitude_0.2167_rep_9_t_K.png	 K	 t	 t	 n.a.	 2.573546e-01
7	 5	 160	 unflanked	 rf	 2	 0.061700	 0.000000	 unflanked_rf_freq_2_amplitude_0.0617_rep_8_t_K.png	 K	 t	 t	 n.a.	 2.579350e-01
7	 5	 161	 unflanked	 rf	 8	 0.061700	 0.000000	 unflanked_rf_freq_8_amplitude_0.0617_rep_7_l_D.png	 D	 l	 l	 n.a.	 2.777413e-01
7	 5	 162	 unflanked	 rf	 2	 0.007500	 0.000000	 unflanked_rf_freq_2_amplitude_0.0075_rep_5_b_K.png	 K	 b	 b	 n.a.	 7.492129e-01
7	 5	 163	 unflanked	 rf	 3	 0.007500	 0.000000	 unflanked_rf_freq_3_amplitude_0.0075_rep_0_l_D.png	 D	 l	 t	 n.a.	 7.240705e-01
7	 5	 164	 unflanked	 rf	 4	 0.113300	 0.000000	 unflanked_rf_freq_4_amplitude_0.1133_rep_3_b_H.png	 H	 b	 r	 n.a.	 2.774910e-01
7	 5	 165	 unflanked	 rf	 8	 0.007500	 0.000000	 unflanked_rf_freq_8_amplitude_0.0075_rep_6_t_H.png	 H	 t	 b	 n.a.	 7.171183e-01
7	 5	 166	 unflanked	 rf	 5	 0.007500	 0.000000	 unflanked_rf_freq_5_amplitude_0.0075_rep_6_r_K.png	 K	 r	 r	 n.a.	 1.100935e+00
7	 5	 167	 unflanked	 rf	 12	 0.268300	 0.000000	 unflanked_rf_freq_12_amplitude_0.2683_rep_3_l_K.png	 K	 l	 l	 n.a.	 2.671415e-01
7	 5	 168	 unflanked	 rf	 8	 0.007500	 0.000000	 unflanked_rf_freq_8_amplitude_0.0075_rep_5_b_N.png	 N	 b	 r	 n.a.	 7.958870e-01
7	 5	 169	 unflanked	 rf	 4	 0.216700	 0.000000	 unflanked_rf_freq_4_amplitude_0.2167_rep_7_t_N.png	 N	 t	 t	 n.a.	 2.895402e-01
7	 5	 170	 unflanked	 rf	 3	 0.010000	 0.000000	 unflanked_rf_freq_3_amplitude_0.01_rep_3_t_N.png	 N	 t	 t	 n.a.	 3.494335e-01
7	 5	 171	 unflanked	 rf	 3	 0.216700	 0.000000	 unflanked_rf_freq_3_amplitude_0.2167_rep_9_b_N.png	 N	 b	 b	 n.a.	 3.173245e-01
7	 5	 172	 unflanked	 rf	 4	 0.010000	 0.000000	 unflanked_rf_freq_4_amplitude_0.01_rep_3_t_D.png	 D	 t	 t	 n.a.	 6.935504e-01
7	 5	 173	 unflanked	 rf	 12	 0.113300	 0.000000	 unflanked_rf_freq_12_amplitude_0.1133_rep_1_b_D.png	 D	 b	 b	 n.a.	 5.114902e-01
7	 5	 174	 unflanked	 rf	 3	 0.061700	 0.000000	 unflanked_rf_freq_3_amplitude_0.0617_rep_0_l_H.png	 H	 l	 l	 n.a.	 3.727529e-01
7	 5	 175	 unflanked	 rf	 8	 0.113300	 0.000000	 unflanked_rf_freq_8_amplitude_0.1133_rep_0_r_H.png	 H	 r	 r	 n.a.	 2.629311e-01
7	 5	 176	 unflanked	 rf	 2	 0.216700	 0.000000	 unflanked_rf_freq_2_amplitude_0.2167_rep_2_b_H.png	 H	 b	 b	 n.a.	 4.168587e-01
7	 5	 177	 unflanked	 rf	 4	 0.061700	 0.000000	 unflanked_rf_freq_4_amplitude_0.0617_rep_6_b_N.png	 N	 b	 t	 n.a.	 4.612296e-01
7	 5	 178	 unflanked	 rf	 3	 0.007500	 0.000000	 unflanked_rf_freq_3_amplitude_0.0075_rep_2_r_N.png	 N	 r	 b	 n.a.	 8.307387e-01
7	 5	 179	 unflanked	 rf	 2	 0.010000	 0.000000	 unflanked_rf_freq_2_amplitude_0.01_rep_3_t_N.png	 N	 t	 b	 n.a.	 5.956713e-01
7	 5	 180	 unflanked	 rf	 8	 0.216700	 0.000000	 unflanked_rf_freq_8_amplitude_0.2167_rep_4_l_K.png	 K	 l	 l	 n.a.	 3.915958e-01
7	 5	 181	 unflanked	 rf	 12	 0.010000	 0.000000	 unflanked_rf_freq_12_amplitude_0.01_rep_2_r_N.png	 N	 r	 b	 n.a.	 6.565065e-01
7	 5	 182	 unflanked	 rf	 4	 0.010000	 0.000000	 unflanked_rf_freq_4_amplitude_0.01_rep_8_t_N.png	 N	 t	 b	 n.a.	 7.244019e-01
7	 5	 183	 unflanked	 rf	 2	 0.165000	 0.000000	 unflanked_rf_freq_2_amplitude_0.165_rep_0_l_D.png	 D	 l	 t	 n.a.	 5.349793e-01
7	 5	 184	 unflanked	 rf	 12	 0.010000	 0.000000	 unflanked_rf_freq_12_amplitude_0.01_rep_5_t_H.png	 H	 t	 t	 n.a.	 9.632236e-01
7	 5	 185	 unflanked	 rf	 5	 0.061700	 0.000000	 unflanked_rf_freq_5_amplitude_0.0617_rep_9_r_H.png	 H	 r	 t	 n.a.	 7.424901e-01
7	 5	 186	 unflanked	 rf	 4	 0.007500	 0.000000	 unflanked_rf_freq_4_amplitude_0.0075_rep_0_b_H.png	 H	 b	 b	 n.a.	 6.940645e-01
7	 5	 187	 unflanked	 rf	 5	 0.113300	 0.000000	 unflanked_rf_freq_5_amplitude_0.1133_rep_2_b_N.png	 N	 b	 b	 n.a.	 3.761725e-01
7	 5	 188	 unflanked	 rf	 4	 0.165000	 0.000000	 unflanked_rf_freq_4_amplitude_0.165_rep_4_l_N.png	 N	 l	 l	 n.a.	 2.976119e-01
7	 5	 189	 unflanked	 rf	 12	 0.216700	 0.000000	 unflanked_rf_freq_12_amplitude_0.2167_rep_1_l_D.png	 D	 l	 l	 n.a.	 2.627173e-01
7	 5	 190	 unflanked	 rf	 3	 0.007500	 0.000000	 unflanked_rf_freq_3_amplitude_0.0075_rep_8_r_N.png	 N	 r	 l	 n.a.	 4.356107e-01
7	 5	 191	 unflanked	 rf	 4	 0.268300	 0.000000	 unflanked_rf_freq_4_amplitude_0.2683_rep_5_t_N.png	 N	 t	 t	 n.a.	 2.769551e-01
7	 5	 192	 unflanked	 rf	 4	 0.216700	 0.000000	 unflanked_rf_freq_4_amplitude_0.2167_rep_8_t_H.png	 H	 t	 t	 n.a.	 3.223921e-01
7	 5	 193	 unflanked	 rf	 8	 0.010000	 0.000000	 unflanked_rf_freq_8_amplitude_0.01_rep_6_t_H.png	 H	 t	 r	 n.a.	 4.623776e-01
7	 5	 194	 unflanked	 rf	 4	 0.165000	 0.000000	 unflanked_rf_freq_4_amplitude_0.165_rep_1_b_H.png	 H	 b	 b	 n.a.	 2.641172e-01
7	 5	 195	 unflanked	 rf	 2	 0.061700	 0.000000	 unflanked_rf_freq_2_amplitude_0.0617_rep_2_r_D.png	 D	 r	 t	 n.a.	 7.045529e-01
7	 5	 196	 unflanked	 rf	 8	 0.010000	 0.000000	 unflanked_rf_freq_8_amplitude_0.01_rep_3_l_N.png	 N	 l	 r	 n.a.	 6.082245e-01
7	 5	 197	 unflanked	 rf	 3	 0.007500	 0.000000	 unflanked_rf_freq_3_amplitude_0.0075_rep_3_r_K.png	 K	 r	 l	 n.a.	 7.310662e-01
7	 5	 198	 unflanked	 rf	 12	 0.061700	 0.000000	 unflanked_rf_freq_12_amplitude_0.0617_rep_6_b_N.png	 N	 b	 b	 n.a.	 7.417096e-01
7	 5	 199	 unflanked	 rf	 5	 0.268300	 0.000000	 unflanked_rf_freq_5_amplitude_0.2683_rep_6_l_D.png	 D	 l	 b	 n.a.	 7.243593e-01
7	 5	 200	 unflanked	 rf	 4	 0.061700	 0.000000	 unflanked_rf_freq_4_amplitude_0.0617_rep_1_l_H.png	 H	 l	 t	 n.a.	 6.439476e-01
7	 5	 201	 unflanked	 rf	 5	 0.216700	 0.000000	 unflanked_rf_freq_5_amplitude_0.2167_rep_3_b_N.png	 N	 b	 b	 n.a.	 3.099958e-01
7	 5	 202	 unflanked	 rf	 2	 0.113300	 0.000000	 unflanked_rf_freq_2_amplitude_0.1133_rep_8_l_N.png	 N	 l	 t	 n.a.	 7.522757e-01
7	 5	 203	 unflanked	 rf	 3	 0.268300	 0.000000	 unflanked_rf_freq_3_amplitude_0.2683_rep_0_r_D.png	 D	 r	 r	 n.a.	 2.521231e-01
7	 5	 204	 unflanked	 rf	 2	 0.007500	 0.000000	 unflanked_rf_freq_2_amplitude_0.0075_rep_0_t_N.png	 N	 t	 t	 n.a.	 4.101556e-01
7	 5	 205	 unflanked	 rf	 12	 0.165000	 0.000000	 unflanked_rf_freq_12_amplitude_0.165_rep_1_l_H.png	 H	 l	 l	 n.a.	 3.699881e-01
7	 5	 206	 unflanked	 rf	 8	 0.216700	 0.000000	 unflanked_rf_freq_8_amplitude_0.2167_rep_7_l_N.png	 N	 l	 l	 n.a.	 2.862831e-01
7	 5	 207	 unflanked	 rf	 2	 0.007500	 0.000000	 unflanked_rf_freq_2_amplitude_0.0075_rep_7_r_H.png	 H	 r	 t	 n.a.	 5.557167e-01
7	 5	 208	 unflanked	 rf	 5	 0.007500	 0.000000	 unflanked_rf_freq_5_amplitude_0.0075_rep_5_t_D.png	 D	 t	 b	 n.a.	 6.050668e-01
7	 5	 209	 unflanked	 rf	 3	 0.268300	 0.000000	 unflanked_rf_freq_3_amplitude_0.2683_rep_1_b_H.png	 H	 b	 b	 n.a.	 3.853717e-01
7	 5	 210	 unflanked	 rf	 8	 0.061700	 0.000000	 unflanked_rf_freq_8_amplitude_0.0617_rep_4_r_N.png	 N	 r	 r	 n.a.	 3.080638e-01
7	 5	 211	 unflanked	 rf	 3	 0.268300	 0.000000	 unflanked_rf_freq_3_amplitude_0.2683_rep_5_b_D.png	 D	 b	 b	 n.a.	 2.714967e-01
7	 5	 212	 unflanked	 rf	 2	 0.216700	 0.000000	 unflanked_rf_freq_2_amplitude_0.2167_rep_1_l_D.png	 D	 l	 l	 n.a.	 2.983909e-01
7	 5	 213	 unflanked	 rf	 3	 0.010000	 0.000000	 unflanked_rf_freq_3_amplitude_0.01_rep_6_r_K.png	 K	 r	 t	 n.a.	 3.036960e-01
7	 5	 214	 unflanked	 rf	 4	 0.165000	 0.000000	 unflanked_rf_freq_4_amplitude_0.165_rep_5_b_H.png	 H	 b	 b	 n.a.	 2.709085e-01
7	 5	 215	 unflanked	 rf	 3	 0.268300	 0.000000	 unflanked_rf_freq_3_amplitude_0.2683_rep_8_r_H.png	 H	 r	 r	 n.a.	 2.317309e-01
7	 5	 216	 unflanked	 rf	 12	 0.216700	 0.000000	 unflanked_rf_freq_12_amplitude_0.2167_rep_7_l_K.png	 K	 l	 l	 n.a.	 2.659322e-01
7	 5	 217	 unflanked	 rf	 12	 0.007500	 0.000000	 unflanked_rf_freq_12_amplitude_0.0075_rep_2_t_D.png	 D	 t	 b	 n.a.	 3.398906e-01
7	 5	 218	 unflanked	 rf	 2	 0.061700	 0.000000	 unflanked_rf_freq_2_amplitude_0.0617_rep_7_t_H.png	 H	 t	 t	 n.a.	 5.514974e-01
7	 5	 219	 unflanked	 rf	 3	 0.165000	 0.000000	 unflanked_rf_freq_3_amplitude_0.165_rep_9_l_N.png	 N	 l	 l	 n.a.	 3.617560e-01
7	 5	 220	 unflanked	 rf	 4	 0.268300	 0.000000	 unflanked_rf_freq_4_amplitude_0.2683_rep_3_r_D.png	 D	 r	 r	 n.a.	 2.357935e-01
7	 5	 221	 unflanked	 rf	 3	 0.010000	 0.000000	 unflanked_rf_freq_3_amplitude_0.01_rep_5_t_K.png	 K	 t	 r	 n.a.	 7.807013e-01
7	 5	 222	 unflanked	 rf	 2	 0.113300	 0.000000	 unflanked_rf_freq_2_amplitude_0.1133_rep_3_b_K.png	 K	 b	 t	 n.a.	 4.256352e-01
7	 5	 223	 unflanked	 rf	 2	 0.268300	 0.000000	 unflanked_rf_freq_2_amplitude_0.2683_rep_6_t_D.png	 D	 t	 t	 n.a.	 2.924430e-01
7	 5	 224	 unflanked	 rf	 8	 0.010000	 0.000000	 unflanked_rf_freq_8_amplitude_0.01_rep_4_r_H.png	 H	 r	 t	 n.a.	 6.776112e-01
7	 5	 225	 unflanked	 rf	 4	 0.113300	 0.000000	 unflanked_rf_freq_4_amplitude_0.1133_rep_8_l_H.png	 H	 l	 r	 n.a.	 9.175534e-01
7	 5	 226	 unflanked	 rf	 3	 0.007500	 0.000000	 unflanked_rf_freq_3_amplitude_0.0075_rep_7_t_H.png	 H	 t	 t	 n.a.	 7.466689e-01
7	 5	 227	 unflanked	 rf	 5	 0.061700	 0.000000	 unflanked_rf_freq_5_amplitude_0.0617_rep_5_t_D.png	 D	 t	 t	 n.a.	 2.874068e-01
7	 5	 228	 unflanked	 rf	 2	 0.113300	 0.000000	 unflanked_rf_freq_2_amplitude_0.1133_rep_5_l_N.png	 N	 l	 b	 n.a.	 5.496037e-01
7	 5	 229	 unflanked	 rf	 3	 0.010000	 0.000000	 unflanked_rf_freq_3_amplitude_0.01_rep_0_t_D.png	 D	 t	 t	 n.a.	 4.028539e-01
7	 5	 230	 unflanked	 rf	 8	 0.113300	 0.000000	 unflanked_rf_freq_8_amplitude_0.1133_rep_6_l_N.png	 N	 l	 l	 n.a.	 2.820934e-01
7	 5	 231	 unflanked	 rf	 8	 0.113300	 0.000000	 unflanked_rf_freq_8_amplitude_0.1133_rep_3_r_H.png	 H	 r	 r	 n.a.	 3.022871e-01
7	 5	 232	 unflanked	 rf	 12	 0.113300	 0.000000	 unflanked_rf_freq_12_amplitude_0.1133_rep_2_b_D.png	 D	 b	 b	 n.a.	 3.226284e-01
7	 5	 233	 unflanked	 rf	 5	 0.061700	 0.000000	 unflanked_rf_freq_5_amplitude_0.0617_rep_2_t_D.png	 D	 t	 t	 n.a.	 4.382913e-01
7	 5	 234	 unflanked	 rf	 4	 0.216700	 0.000000	 unflanked_rf_freq_4_amplitude_0.2167_rep_9_l_N.png	 N	 l	 l	 n.a.	 4.747138e-01
7	 5	 235	 unflanked	 rf	 5	 0.216700	 0.000000	 unflanked_rf_freq_5_amplitude_0.2167_rep_6_r_H.png	 H	 r	 r	 n.a.	 3.086268e-01
7	 5	 236	 unflanked	 rf	 5	 0.061700	 0.000000	 unflanked_rf_freq_5_amplitude_0.0617_rep_3_r_K.png	 K	 r	 b	 n.a.	 7.385186e-01
7	 5	 237	 unflanked	 rf	 3	 0.010000	 0.000000	 unflanked_rf_freq_3_amplitude_0.01_rep_9_t_N.png	 N	 t	 t	 n.a.	 4.045255e-01
7	 5	 238	 unflanked	 rf	 2	 0.061700	 0.000000	 unflanked_rf_freq_2_amplitude_0.0617_rep_0_r_H.png	 H	 r	 r	 n.a.	 5.201875e-01
7	 5	 239	 unflanked	 rf	 3	 0.113300	 0.000000	 unflanked_rf_freq_3_amplitude_0.1133_rep_7_b_D.png	 D	 b	 b	 n.a.	 4.452803e-01
7	 5	 240	 unflanked	 rf	 12	 0.268300	 0.000000	 unflanked_rf_freq_12_amplitude_0.2683_rep_8_r_D.png	 D	 r	 r	 n.a.	 3.373516e-01
7	 5	 241	 unflanked	 rf	 8	 0.165000	 0.000000	 unflanked_rf_freq_8_amplitude_0.165_rep_8_r_D.png	 D	 r	 r	 n.a.	 3.493078e-01
7	 5	 242	 unflanked	 rf	 5	 0.113300	 0.000000	 unflanked_rf_freq_5_amplitude_0.1133_rep_8_r_K.png	 K	 r	 t	 n.a.	 6.775984e-01
7	 5	 243	 unflanked	 rf	 5	 0.216700	 0.000000	 unflanked_rf_freq_5_amplitude_0.2167_rep_7_r_N.png	 N	 r	 r	 n.a.	 2.945645e-01
7	 5	 244	 unflanked	 rf	 4	 0.007500	 0.000000	 unflanked_rf_freq_4_amplitude_0.0075_rep_3_b_K.png	 K	 b	 b	 n.a.	 7.375960e-01
7	 5	 245	 unflanked	 rf	 5	 0.061700	 0.000000	 unflanked_rf_freq_5_amplitude_0.0617_rep_8_t_N.png	 N	 t	 t	 n.a.	 3.900469e-01
7	 5	 246	 unflanked	 rf	 5	 0.268300	 0.000000	 unflanked_rf_freq_5_amplitude_0.2683_rep_7_t_K.png	 K	 t	 t	 n.a.	 3.847288e-01
7	 5	 247	 unflanked	 rf	 2	 0.113300	 0.000000	 unflanked_rf_freq_2_amplitude_0.1133_rep_1_b_D.png	 D	 b	 b	 n.a.	 5.500402e-01
7	 5	 248	 unflanked	 rf	 4	 0.061700	 0.000000	 unflanked_rf_freq_4_amplitude_0.0617_rep_8_r_N.png	 N	 r	 b	 n.a.	 8.355496e-01
7	 5	 249	 unflanked	 rf	 5	 0.010000	 0.000000	 unflanked_rf_freq_5_amplitude_0.01_rep_1_l_D.png	 D	 l	 b	 n.a.	 9.357750e-01
7	 5	 250	 unflanked	 rf	 8	 0.165000	 0.000000	 unflanked_rf_freq_8_amplitude_0.165_rep_6_b_H.png	 H	 b	 b	 n.a.	 3.714178e-01
7	 5	 251	 unflanked	 rf	 12	 0.268300	 0.000000	 unflanked_rf_freq_12_amplitude_0.2683_rep_6_l_K.png	 K	 l	 l	 n.a.	 2.773306e-01
7	 5	 252	 unflanked	 rf	 4	 0.268300	 0.000000	 unflanked_rf_freq_4_amplitude_0.2683_rep_6_b_H.png	 H	 b	 b	 n.a.	 3.755622e-01
7	 5	 253	 unflanked	 rf	 8	 0.268300	 0.000000	 unflanked_rf_freq_8_amplitude_0.2683_rep_8_l_K.png	 K	 l	 l	 n.a.	 2.715709e-01
7	 5	 254	 unflanked	 rf	 4	 0.061700	 0.000000	 unflanked_rf_freq_4_amplitude_0.0617_rep_7_r_D.png	 D	 r	 b	 n.a.	 5.631516e-01
7	 5	 255	 unflanked	 rf	 5	 0.007500	 0.000000	 unflanked_rf_freq_5_amplitude_0.0075_rep_4_b_D.png	 D	 b	 t	 n.a.	 4.840590e-01
7	 5	 256	 unflanked	 rf	 12	 0.007500	 0.000000	 unflanked_rf_freq_12_amplitude_0.0075_rep_7_l_H.png	 H	 l	 t	 n.a.	 5.212165e-01
7	 5	 257	 unflanked	 rf	 2	 0.268300	 0.000000	 unflanked_rf_freq_2_amplitude_0.2683_rep_8_r_H.png	 H	 r	 t	 n.a.	 4.636001e-01
7	 5	 258	 unflanked	 rf	 12	 0.010000	 0.000000	 unflanked_rf_freq_12_amplitude_0.01_rep_8_b_D.png	 D	 b	 r	 n.a.	 1.059752e+00
7	 5	 259	 unflanked	 rf	 12	 0.268300	 0.000000	 unflanked_rf_freq_12_amplitude_0.2683_rep_4_r_D.png	 D	 r	 r	 n.a.	 3.102713e-01
7	 5	 260	 unflanked	 rf	 8	 0.216700	 0.000000	 unflanked_rf_freq_8_amplitude_0.2167_rep_5_t_N.png	 N	 t	 t	 n.a.	 3.499253e-01
7	 5	 261	 unflanked	 rf	 4	 0.268300	 0.000000	 unflanked_rf_freq_4_amplitude_0.2683_rep_8_t_H.png	 H	 t	 t	 n.a.	 3.486632e-01
7	 5	 262	 unflanked	 rf	 2	 0.268300	 0.000000	 unflanked_rf_freq_2_amplitude_0.2683_rep_2_t_H.png	 H	 t	 t	 n.a.	 3.860789e-01
7	 5	 263	 unflanked	 rf	 8	 0.268300	 0.000000	 unflanked_rf_freq_8_amplitude_0.2683_rep_0_t_K.png	 K	 t	 t	 n.a.	 3.637622e-01
7	 5	 264	 unflanked	 rf	 5	 0.165000	 0.000000	 unflanked_rf_freq_5_amplitude_0.165_rep_8_r_K.png	 K	 r	 r	 n.a.	 3.321508e-01
7	 5	 265	 unflanked	 rf	 12	 0.007500	 0.000000	 unflanked_rf_freq_12_amplitude_0.0075_rep_1_b_N.png	 N	 b	 r	 n.a.	 8.932457e-01
7	 5	 266	 unflanked	 rf	 4	 0.216700	 0.000000	 unflanked_rf_freq_4_amplitude_0.2167_rep_4_b_D.png	 D	 b	 t	 n.a.	 3.201520e-01
7	 5	 267	 unflanked	 rf	 4	 0.268300	 0.000000	 unflanked_rf_freq_4_amplitude_0.2683_rep_1_l_N.png	 N	 l	 l	 n.a.	 3.556965e-01
7	 5	 268	 unflanked	 rf	 3	 0.061700	 0.000000	 unflanked_rf_freq_3_amplitude_0.0617_rep_2_r_N.png	 N	 r	 b	 n.a.	 4.935048e-01
7	 5	 269	 unflanked	 rf	 2	 0.010000	 0.000000	 unflanked_rf_freq_2_amplitude_0.01_rep_0_r_H.png	 H	 r	 t	 n.a.	 2.766560e-01
7	 5	 270	 unflanked	 rf	 8	 0.061700	 0.000000	 unflanked_rf_freq_8_amplitude_0.0617_rep_0_b_H.png	 H	 b	 b	 n.a.	 4.664800e-01
7	 5	 271	 unflanked	 rf	 4	 0.010000	 0.000000	 unflanked_rf_freq_4_amplitude_0.01_rep_4_b_D.png	 D	 b	 r	 n.a.	 5.256139e-01
7	 5	 272	 unflanked	 rf	 8	 0.061700	 0.000000	 unflanked_rf_freq_8_amplitude_0.0617_rep_2_r_K.png	 K	 r	 r	 n.a.	 3.993154e-01
7	 5	 273	 unflanked	 rf	 12	 0.268300	 0.000000	 unflanked_rf_freq_12_amplitude_0.2683_rep_7_r_H.png	 H	 r	 r	 n.a.	 3.086129e-01
7	 5	 274	 unflanked	 rf	 3	 0.268300	 0.000000	 unflanked_rf_freq_3_amplitude_0.2683_rep_3_t_H.png	 H	 t	 t	 n.a.	 2.852600e-01
7	 5	 275	 unflanked	 rf	 12	 0.268300	 0.000000	 unflanked_rf_freq_12_amplitude_0.2683_rep_2_l_H.png	 H	 l	 l	 n.a.	 3.463767e-01
7	 5	 276	 unflanked	 rf	 4	 0.216700	 0.000000	 unflanked_rf_freq_4_amplitude_0.2167_rep_3_l_H.png	 H	 l	 t	 n.a.	 4.495322e-01
7	 5	 277	 unflanked	 rf	 4	 0.007500	 0.000000	 unflanked_rf_freq_4_amplitude_0.0075_rep_1_b_D.png	 D	 b	 t	 n.a.	 7.886336e-01
7	 5	 278	 unflanked	 rf	 12	 0.061700	 0.000000	 unflanked_rf_freq_12_amplitude_0.0617_rep_4_t_K.png	 K	 t	 t	 n.a.	 3.140602e-01
7	 5	 279	 unflanked	 rf	 2	 0.010000	 0.000000	 unflanked_rf_freq_2_amplitude_0.01_rep_5_l_H.png	 H	 l	 t	 n.a.	 4.149485e-01
7	 5	 280	 unflanked	 rf	 2	 0.268300	 0.000000	 unflanked_rf_freq_2_amplitude_0.2683_rep_5_l_K.png	 K	 l	 l	 n.a.	 3.215616e-01
7	 5	 281	 unflanked	 rf	 12	 0.165000	 0.000000	 unflanked_rf_freq_12_amplitude_0.165_rep_7_b_K.png	 K	 b	 b	 n.a.	 3.250690e-01
7	 5	 282	 unflanked	 rf	 3	 0.113300	 0.000000	 unflanked_rf_freq_3_amplitude_0.1133_rep_2_r_H.png	 H	 r	 t	 n.a.	 6.848413e-01
7	 5	 283	 unflanked	 rf	 12	 0.113300	 0.000000	 unflanked_rf_freq_12_amplitude_0.1133_rep_0_l_K.png	 K	 l	 l	 n.a.	 2.092422e-01
7	 5	 284	 unflanked	 rf	 8	 0.165000	 0.000000	 unflanked_rf_freq_8_amplitude_0.165_rep_9_b_D.png	 D	 b	 b	 n.a.	 3.944086e-01
7	 5	 285	 unflanked	 rf	 5	 0.268300	 0.000000	 unflanked_rf_freq_5_amplitude_0.2683_rep_8_b_N.png	 N	 b	 b	 n.a.	 2.900660e-01
7	 5	 286	 unflanked	 rf	 2	 0.268300	 0.000000	 unflanked_rf_freq_2_amplitude_0.2683_rep_3_r_H.png	 H	 r	 r	 n.a.	 3.086362e-01
7	 5	 287	 unflanked	 rf	 3	 0.113300	 0.000000	 unflanked_rf_freq_3_amplitude_0.1133_rep_1_t_N.png	 N	 t	 t	 n.a.	 3.813911e-01
7	 5	 288	 unflanked	 rf	 2	 0.010000	 0.000000	 unflanked_rf_freq_2_amplitude_0.01_rep_9_t_N.png	 N	 t	 t	 n.a.	 6.076462e-01
7	 5	 289	 unflanked	 rf	 5	 0.165000	 0.000000	 unflanked_rf_freq_5_amplitude_0.165_rep_2_r_D.png	 D	 r	 r	 n.a.	 3.147310e-01
7	 5	 290	 unflanked	 rf	 4	 0.010000	 0.000000	 unflanked_rf_freq_4_amplitude_0.01_rep_9_t_K.png	 K	 t	 t	 n.a.	 3.100640e-01
7	 5	 291	 unflanked	 rf	 2	 0.216700	 0.000000	 unflanked_rf_freq_2_amplitude_0.2167_rep_6_t_H.png	 H	 t	 t	 n.a.	 3.004282e-01
7	 5	 292	 unflanked	 rf	 4	 0.268300	 0.000000	 unflanked_rf_freq_4_amplitude_0.2683_rep_4_l_N.png	 N	 l	 l	 n.a.	 2.706289e-01
7	 5	 293	 unflanked	 rf	 4	 0.010000	 0.000000	 unflanked_rf_freq_4_amplitude_0.01_rep_7_r_K.png	 K	 r	 t	 n.a.	 3.456591e-01
7	 5	 294	 unflanked	 rf	 5	 0.216700	 0.000000	 unflanked_rf_freq_5_amplitude_0.2167_rep_8_b_H.png	 H	 b	 b	 n.a.	 2.607915e-01
7	 5	 295	 unflanked	 rf	 3	 0.216700	 0.000000	 unflanked_rf_freq_3_amplitude_0.2167_rep_7_b_K.png	 K	 b	 b	 n.a.	 4.267295e-01
7	 5	 296	 unflanked	 rf	 2	 0.007500	 0.000000	 unflanked_rf_freq_2_amplitude_0.0075_rep_1_t_N.png	 N	 t	 t	 n.a.	 4.914015e-01
7	 5	 297	 unflanked	 rf	 12	 0.165000	 0.000000	 unflanked_rf_freq_12_amplitude_0.165_rep_4_b_H.png	 H	 b	 b	 n.a.	 2.754283e-01
7	 5	 298	 unflanked	 rf	 2	 0.113300	 0.000000	 unflanked_rf_freq_2_amplitude_0.1133_rep_0_t_N.png	 N	 t	 r	 n.a.	 2.967379e-01
7	 5	 299	 unflanked	 rf	 8	 0.113300	 0.000000	 unflanked_rf_freq_8_amplitude_0.1133_rep_9_r_H.png	 H	 r	 r	 n.a.	 4.317801e-01
7	 5	 300	 unflanked	 rf	 12	 0.061700	 0.000000	 unflanked_rf_freq_12_amplitude_0.0617_rep_9_b_K.png	 K	 b	 b	 n.a.	 2.818217e-01
7	 5	 301	 unflanked	 rf	 8	 0.007500	 0.000000	 unflanked_rf_freq_8_amplitude_0.0075_rep_0_r_D.png	 D	 r	 t	 n.a.	 3.313481e-01
7	 5	 302	 unflanked	 rf	 3	 0.216700	 0.000000	 unflanked_rf_freq_3_amplitude_0.2167_rep_6_l_D.png	 D	 l	 l	 n.a.	 2.870672e-01
7	 5	 303	 unflanked	 rf	 2	 0.007500	 0.000000	 unflanked_rf_freq_2_amplitude_0.0075_rep_3_r_N.png	 N	 r	 t	 n.a.	 6.252856e-01
7	 5	 304	 unflanked	 rf	 4	 0.113300	 0.000000	 unflanked_rf_freq_4_amplitude_0.1133_rep_2_b_H.png	 H	 b	 b	 n.a.	 3.803730e-01
7	 5	 305	 unflanked	 rf	 3	 0.113300	 0.000000	 unflanked_rf_freq_3_amplitude_0.1133_rep_0_t_N.png	 N	 t	 t	 n.a.	 3.974952e-01
7	 5	 306	 unflanked	 rf	 8	 0.216700	 0.000000	 unflanked_rf_freq_8_amplitude_0.2167_rep_0_t_K.png	 K	 t	 t	 n.a.	 2.837168e-01
7	 5	 307	 unflanked	 rf	 3	 0.216700	 0.000000	 unflanked_rf_freq_3_amplitude_0.2167_rep_5_b_D.png	 D	 b	 b	 n.a.	 3.498447e-01
7	 5	 308	 unflanked	 rf	 4	 0.113300	 0.000000	 unflanked_rf_freq_4_amplitude_0.1133_rep_9_l_D.png	 D	 l	 l	 n.a.	 3.942875e-01
7	 5	 309	 unflanked	 rf	 3	 0.216700	 0.000000	 unflanked_rf_freq_3_amplitude_0.2167_rep_0_r_D.png	 D	 r	 r	 n.a.	 3.674711e-01
7	 5	 310	 unflanked	 rf	 2	 0.007500	 0.000000	 unflanked_rf_freq_2_amplitude_0.0075_rep_4_b_H.png	 H	 b	 t	 n.a.	 4.537028e-01
7	 5	 311	 unflanked	 rf	 8	 0.007500	 0.000000	 unflanked_rf_freq_8_amplitude_0.0075_rep_8_t_N.png	 N	 t	 t	 n.a.	 3.398816e-01
7	 5	 312	 unflanked	 rf	 5	 0.268300	 0.000000	 unflanked_rf_freq_5_amplitude_0.2683_rep_2_t_D.png	 D	 t	 t	 n.a.	 3.000430e-01
7	 5	 313	 unflanked	 rf	 2	 0.165000	 0.000000	 unflanked_rf_freq_2_amplitude_0.165_rep_6_l_K.png	 K	 l	 l	 n.a.	 3.889818e-01
7	 5	 314	 unflanked	 rf	 2	 0.061700	 0.000000	 unflanked_rf_freq_2_amplitude_0.0617_rep_1_r_N.png	 N	 r	 t	 n.a.	 5.315890e-01
7	 5	 315	 unflanked	 rf	 12	 0.010000	 0.000000	 unflanked_rf_freq_12_amplitude_0.01_rep_0_b_K.png	 K	 b	 b	 n.a.	 5.440193e-01
7	 5	 316	 unflanked	 rf	 12	 0.061700	 0.000000	 unflanked_rf_freq_12_amplitude_0.0617_rep_7_b_D.png	 D	 b	 r	 n.a.	 6.718791e-01
7	 5	 317	 unflanked	 rf	 3	 0.010000	 0.000000	 unflanked_rf_freq_3_amplitude_0.01_rep_7_b_K.png	 K	 b	 l	 n.a.	 7.187013e-01
7	 5	 318	 unflanked	 rf	 8	 0.165000	 0.000000	 unflanked_rf_freq_8_amplitude_0.165_rep_5_l_N.png	 N	 l	 l	 n.a.	 4.606405e-01
7	 5	 319	 unflanked	 rf	 2	 0.010000	 0.000000	 unflanked_rf_freq_2_amplitude_0.01_rep_7_l_H.png	 H	 l	 r	 n.a.	 7.553302e-01
7	 5	 320	 unflanked	 rf	 4	 0.216700	 0.000000	 unflanked_rf_freq_4_amplitude_0.2167_rep_0_b_N.png	 N	 b	 b	 n.a.	 3.520101e-01
7	 5	 321	 unflanked	 rf	 5	 0.010000	 0.000000	 unflanked_rf_freq_5_amplitude_0.01_rep_2_b_K.png	 K	 b	 t	 n.a.	 4.959831e-01
7	 5	 322	 unflanked	 rf	 5	 0.165000	 0.000000	 unflanked_rf_freq_5_amplitude_0.165_rep_4_l_N.png	 N	 l	 l	 n.a.	 3.442909e-01
7	 5	 323	 unflanked	 rf	 2	 0.113300	 0.000000	 unflanked_rf_freq_2_amplitude_0.1133_rep_2_r_D.png	 D	 r	 t	 n.a.	 5.900237e-01
7	 5	 324	 unflanked	 rf	 2	 0.113300	 0.000000	 unflanked_rf_freq_2_amplitude_0.1133_rep_9_t_D.png	 D	 t	 t	 n.a.	 4.277612e-01
7	 5	 325	 unflanked	 rf	 4	 0.061700	 0.000000	 unflanked_rf_freq_4_amplitude_0.0617_rep_3_b_D.png	 D	 b	 t	 n.a.	 6.330646e-01
7	 5	 326	 unflanked	 rf	 4	 0.010000	 0.000000	 unflanked_rf_freq_4_amplitude_0.01_rep_6_b_N.png	 N	 b	 l	 n.a.	 5.165651e-01
7	 5	 327	 unflanked	 rf	 12	 0.268300	 0.000000	 unflanked_rf_freq_12_amplitude_0.2683_rep_0_b_K.png	 K	 b	 b	 n.a.	 2.860445e-01
7	 5	 328	 unflanked	 rf	 2	 0.010000	 0.000000	 unflanked_rf_freq_2_amplitude_0.01_rep_2_r_D.png	 D	 r	 r	 n.a.	 5.447950e-01
7	 5	 329	 unflanked	 rf	 5	 0.010000	 0.000000	 unflanked_rf_freq_5_amplitude_0.01_rep_7_l_N.png	 N	 l	 t	 n.a.	 6.501355e-01
7	 5	 330	 unflanked	 rf	 5	 0.268300	 0.000000	 unflanked_rf_freq_5_amplitude_0.2683_rep_4_l_D.png	 D	 l	 l	 n.a.	 2.735546e-01
7	 5	 331	 unflanked	 rf	 5	 0.165000	 0.000000	 unflanked_rf_freq_5_amplitude_0.165_rep_1_b_N.png	 N	 b	 b	 n.a.	 3.030152e-01
7	 5	 332	 unflanked	 rf	 2	 0.216700	 0.000000	 unflanked_rf_freq_2_amplitude_0.2167_rep_0_b_N.png	 N	 b	 b	 n.a.	 6.335290e-01
7	 5	 333	 unflanked	 rf	 3	 0.268300	 0.000000	 unflanked_rf_freq_3_amplitude_0.2683_rep_4_b_N.png	 N	 b	 b	 n.a.	 4.223772e-01
7	 5	 334	 unflanked	 rf	 5	 0.061700	 0.000000	 unflanked_rf_freq_5_amplitude_0.0617_rep_7_l_D.png	 D	 l	 t	 n.a.	 9.492754e-01
7	 5	 335	 unflanked	 rf	 5	 0.165000	 0.000000	 unflanked_rf_freq_5_amplitude_0.165_rep_0_t_D.png	 D	 t	 t	 n.a.	 3.601116e-01
7	 5	 336	 unflanked	 rf	 12	 0.010000	 0.000000	 unflanked_rf_freq_12_amplitude_0.01_rep_4_t_D.png	 D	 t	 r	 n.a.	 4.185959e-01
7	 5	 337	 unflanked	 rf	 2	 0.113300	 0.000000	 unflanked_rf_freq_2_amplitude_0.1133_rep_4_t_N.png	 N	 t	 t	 n.a.	 4.469289e-01
7	 5	 338	 unflanked	 rf	 2	 0.010000	 0.000000	 unflanked_rf_freq_2_amplitude_0.01_rep_1_l_N.png	 N	 l	 t	 n.a.	 4.465557e-01
7	 5	 339	 unflanked	 rf	 3	 0.165000	 0.000000	 unflanked_rf_freq_3_amplitude_0.165_rep_1_b_H.png	 H	 b	 b	 n.a.	 3.565437e-01
7	 5	 340	 unflanked	 rf	 4	 0.165000	 0.000000	 unflanked_rf_freq_4_amplitude_0.165_rep_9_t_N.png	 N	 t	 t	 n.a.	 4.844635e-01
7	 5	 341	 unflanked	 rf	 2	 0.216700	 0.000000	 unflanked_rf_freq_2_amplitude_0.2167_rep_3_r_D.png	 D	 r	 r	 n.a.	 2.974758e-01
7	 5	 342	 unflanked	 rf	 5	 0.113300	 0.000000	 unflanked_rf_freq_5_amplitude_0.1133_rep_9_r_D.png	 D	 r	 r	 n.a.	 6.505150e-01
7	 5	 343	 unflanked	 rf	 12	 0.007500	 0.000000	 unflanked_rf_freq_12_amplitude_0.0075_rep_0_t_K.png	 K	 t	 r	 n.a.	 6.206002e-01
7	 5	 344	 unflanked	 rf	 2	 0.165000	 0.000000	 unflanked_rf_freq_2_amplitude_0.165_rep_1_r_H.png	 H	 r	 r	 n.a.	 5.657283e-01
7	 5	 345	 unflanked	 rf	 4	 0.113300	 0.000000	 unflanked_rf_freq_4_amplitude_0.1133_rep_4_b_D.png	 D	 b	 t	 n.a.	 7.331532e-01
7	 5	 346	 unflanked	 rf	 2	 0.010000	 0.000000	 unflanked_rf_freq_2_amplitude_0.01_rep_8_b_H.png	 H	 b	 r	 n.a.	 4.289320e-01
7	 5	 347	 unflanked	 rf	 2	 0.165000	 0.000000	 unflanked_rf_freq_2_amplitude_0.165_rep_7_r_K.png	 K	 r	 r	 n.a.	 3.487043e-01
7	 5	 348	 unflanked	 rf	 4	 0.010000	 0.000000	 unflanked_rf_freq_4_amplitude_0.01_rep_5_r_K.png	 K	 r	 b	 n.a.	 4.974111e-01
7	 5	 349	 unflanked	 rf	 2	 0.268300	 0.000000	 unflanked_rf_freq_2_amplitude_0.2683_rep_0_r_H.png	 H	 r	 r	 n.a.	 3.493585e-01
7	 5	 350	 unflanked	 rf	 12	 0.165000	 0.000000	 unflanked_rf_freq_12_amplitude_0.165_rep_2_r_H.png	 H	 r	 r	 n.a.	 2.663134e-01
7	 5	 351	 unflanked	 rf	 12	 0.268300	 0.000000	 unflanked_rf_freq_12_amplitude_0.2683_rep_1_b_N.png	 N	 b	 b	 n.a.	 2.434500e-01
7	 5	 352	 unflanked	 rf	 3	 0.216700	 0.000000	 unflanked_rf_freq_3_amplitude_0.2167_rep_1_r_H.png	 H	 r	 r	 n.a.	 3.392137e-01
7	 5	 353	 unflanked	 rf	 2	 0.007500	 0.000000	 unflanked_rf_freq_2_amplitude_0.0075_rep_9_t_H.png	 H	 t	 t	 n.a.	 4.996116e-01
7	 5	 354	 unflanked	 rf	 5	 0.061700	 0.000000	 unflanked_rf_freq_5_amplitude_0.0617_rep_1_b_H.png	 H	 b	 b	 n.a.	 2.844355e-01
7	 5	 355	 unflanked	 rf	 8	 0.165000	 0.000000	 unflanked_rf_freq_8_amplitude_0.165_rep_0_r_N.png	 N	 r	 r	 n.a.	 2.628493e-01
7	 5	 356	 unflanked	 rf	 5	 0.007500	 0.000000	 unflanked_rf_freq_5_amplitude_0.0075_rep_8_r_K.png	 K	 r	 t	 n.a.	 4.593452e-01
7	 5	 357	 unflanked	 rf	 5	 0.268300	 0.000000	 unflanked_rf_freq_5_amplitude_0.2683_rep_0_r_N.png	 N	 r	 r	 n.a.	 2.266157e-01
7	 5	 358	 unflanked	 rf	 5	 0.165000	 0.000000	 unflanked_rf_freq_5_amplitude_0.165_rep_3_b_N.png	 N	 b	 b	 n.a.	 3.623675e-01
7	 5	 359	 unflanked	 rf	 3	 0.268300	 0.000000	 unflanked_rf_freq_3_amplitude_0.2683_rep_2_r_N.png	 N	 r	 r	 n.a.	 2.887465e-01
7	 5	 360	 unflanked	 rf	 3	 0.061700	 0.000000	 unflanked_rf_freq_3_amplitude_0.0617_rep_1_t_K.png	 K	 t	 b	 n.a.	 4.297715e-01
7	 5	 361	 unflanked	 rf	 5	 0.007500	 0.000000	 unflanked_rf_freq_5_amplitude_0.0075_rep_9_t_K.png	 K	 t	 t	 n.a.	 2.814144e-01
7	 5	 362	 unflanked	 rf	 8	 0.268300	 0.000000	 unflanked_rf_freq_8_amplitude_0.2683_rep_2_l_K.png	 K	 l	 l	 n.a.	 3.438106e-01
7	 5	 363	 unflanked	 rf	 3	 0.165000	 0.000000	 unflanked_rf_freq_3_amplitude_0.165_rep_3_b_H.png	 H	 b	 b	 n.a.	 3.521025e-01
7	 5	 364	 unflanked	 rf	 8	 0.007500	 0.000000	 unflanked_rf_freq_8_amplitude_0.0075_rep_4_l_H.png	 H	 l	 b	 n.a.	 6.071054e-01
7	 5	 365	 unflanked	 rf	 2	 0.061700	 0.000000	 unflanked_rf_freq_2_amplitude_0.0617_rep_3_b_N.png	 N	 b	 t	 n.a.	 2.586644e-01
7	 5	 366	 unflanked	 rf	 2	 0.113300	 0.000000	 unflanked_rf_freq_2_amplitude_0.1133_rep_7_t_D.png	 D	 t	 t	 n.a.	 3.683340e-01
7	 5	 367	 unflanked	 rf	 12	 0.010000	 0.000000	 unflanked_rf_freq_12_amplitude_0.01_rep_7_l_K.png	 K	 l	 l	 n.a.	 8.221369e-01
7	 5	 368	 unflanked	 rf	 3	 0.010000	 0.000000	 unflanked_rf_freq_3_amplitude_0.01_rep_1_r_N.png	 N	 r	 b	 n.a.	 6.207606e-01
7	 5	 369	 unflanked	 rf	 12	 0.165000	 0.000000	 unflanked_rf_freq_12_amplitude_0.165_rep_8_t_N.png	 N	 t	 t	 n.a.	 3.061720e-01
7	 5	 370	 unflanked	 rf	 4	 0.007500	 0.000000	 unflanked_rf_freq_4_amplitude_0.0075_rep_5_t_N.png	 N	 t	 t	 n.a.	 5.552627e-01
7	 5	 371	 unflanked	 rf	 8	 0.061700	 0.000000	 unflanked_rf_freq_8_amplitude_0.0617_rep_6_b_D.png	 D	 b	 t	 n.a.	 6.331732e-01
7	 5	 372	 unflanked	 rf	 12	 0.216700	 0.000000	 unflanked_rf_freq_12_amplitude_0.2167_rep_4_t_H.png	 H	 t	 t	 n.a.	 4.001877e-01
7	 5	 373	 unflanked	 rf	 12	 0.010000	 0.000000	 unflanked_rf_freq_12_amplitude_0.01_rep_1_r_D.png	 D	 r	 l	 n.a.	 4.229129e-01
7	 5	 374	 unflanked	 rf	 8	 0.007500	 0.000000	 unflanked_rf_freq_8_amplitude_0.0075_rep_1_t_K.png	 K	 t	 b	 n.a.	 6.407586e-01
7	 5	 375	 unflanked	 rf	 8	 0.268300	 0.000000	 unflanked_rf_freq_8_amplitude_0.2683_rep_5_b_N.png	 N	 b	 b	 n.a.	 2.530537e-01
7	 5	 376	 unflanked	 rf	 8	 0.268300	 0.000000	 unflanked_rf_freq_8_amplitude_0.2683_rep_1_r_H.png	 H	 r	 r	 n.a.	 2.597945e-01
7	 5	 377	 unflanked	 rf	 4	 0.216700	 0.000000	 unflanked_rf_freq_4_amplitude_0.2167_rep_2_b_D.png	 D	 b	 b	 n.a.	 3.346885e-01
7	 5	 378	 unflanked	 rf	 3	 0.113300	 0.000000	 unflanked_rf_freq_3_amplitude_0.1133_rep_5_t_H.png	 H	 t	 t	 n.a.	 7.379263e-01
7	 5	 379	 unflanked	 rf	 3	 0.216700	 0.000000	 unflanked_rf_freq_3_amplitude_0.2167_rep_3_r_K.png	 K	 r	 r	 n.a.	 3.820495e-01
7	 5	 380	 unflanked	 rf	 12	 0.165000	 0.000000	 unflanked_rf_freq_12_amplitude_0.165_rep_3_r_H.png	 H	 r	 r	 n.a.	 2.959219e-01
7	 5	 381	 unflanked	 rf	 12	 0.061700	 0.000000	 unflanked_rf_freq_12_amplitude_0.0617_rep_0_r_N.png	 N	 r	 r	 n.a.	 2.795222e-01
7	 5	 382	 unflanked	 rf	 3	 0.007500	 0.000000	 unflanked_rf_freq_3_amplitude_0.0075_rep_4_l_K.png	 K	 l	 r	 n.a.	 4.146699e-01
7	 5	 383	 unflanked	 rf	 8	 0.165000	 0.000000	 unflanked_rf_freq_8_amplitude_0.165_rep_7_b_D.png	 D	 b	 b	 n.a.	 2.790527e-01
7	 5	 384	 unflanked	 rf	 5	 0.010000	 0.000000	 unflanked_rf_freq_5_amplitude_0.01_rep_4_r_K.png	 K	 r	 t	 n.a.	 4.302745e-01
7	 5	 385	 unflanked	 rf	 12	 0.113300	 0.000000	 unflanked_rf_freq_12_amplitude_0.1133_rep_6_b_D.png	 D	 b	 b	 n.a.	 3.702878e-01
7	 5	 386	 unflanked	 rf	 5	 0.268300	 0.000000	 unflanked_rf_freq_5_amplitude_0.2683_rep_1_l_N.png	 N	 l	 l	 n.a.	 2.995251e-01
7	 5	 387	 unflanked	 rf	 2	 0.165000	 0.000000	 unflanked_rf_freq_2_amplitude_0.165_rep_8_r_K.png	 K	 r	 r	 n.a.	 4.858055e-01
7	 5	 388	 unflanked	 rf	 12	 0.165000	 0.000000	 unflanked_rf_freq_12_amplitude_0.165_rep_9_l_K.png	 K	 l	 l	 n.a.	 3.014585e-01
7	 5	 389	 unflanked	 rf	 5	 0.061700	 0.000000	 unflanked_rf_freq_5_amplitude_0.0617_rep_4_r_H.png	 H	 r	 r	 n.a.	 5.627664e-01
7	 5	 390	 unflanked	 rf	 2	 0.007500	 0.000000	 unflanked_rf_freq_2_amplitude_0.0075_rep_2_l_H.png	 H	 l	 b	 n.a.	 7.309346e-01
7	 5	 391	 unflanked	 rf	 2	 0.268300	 0.000000	 unflanked_rf_freq_2_amplitude_0.2683_rep_4_t_D.png	 D	 t	 t	 n.a.	 5.409635e-01
7	 5	 392	 unflanked	 rf	 4	 0.113300	 0.000000	 unflanked_rf_freq_4_amplitude_0.1133_rep_5_t_K.png	 K	 t	 t	 n.a.	 5.006992e-01
7	 5	 393	 unflanked	 rf	 4	 0.165000	 0.000000	 unflanked_rf_freq_4_amplitude_0.165_rep_3_b_D.png	 D	 b	 b	 n.a.	 3.991455e-01
7	 5	 394	 unflanked	 rf	 2	 0.113300	 0.000000	 unflanked_rf_freq_2_amplitude_0.1133_rep_6_l_N.png	 N	 l	 t	 n.a.	 5.421587e-01
7	 5	 395	 unflanked	 rf	 8	 0.061700	 0.000000	 unflanked_rf_freq_8_amplitude_0.0617_rep_9_r_N.png	 N	 r	 t	 n.a.	 5.135329e-01
7	 5	 396	 unflanked	 rf	 5	 0.216700	 0.000000	 unflanked_rf_freq_5_amplitude_0.2167_rep_4_t_D.png	 D	 t	 t	 n.a.	 3.228303e-01
7	 5	 397	 unflanked	 rf	 2	 0.216700	 0.000000	 unflanked_rf_freq_2_amplitude_0.2167_rep_4_l_N.png	 N	 l	 l	 n.a.	 3.477327e-01
7	 5	 398	 unflanked	 rf	 3	 0.061700	 0.000000	 unflanked_rf_freq_3_amplitude_0.0617_rep_6_t_D.png	 D	 t	 t	 n.a.	 5.054310e-01
7	 5	 399	 unflanked	 rf	 8	 0.165000	 0.000000	 unflanked_rf_freq_8_amplitude_0.165_rep_3_t_N.png	 N	 t	 t	 n.a.	 3.542810e-01
7	 5	 400	 unflanked	 rf	 5	 0.010000	 0.000000	 unflanked_rf_freq_5_amplitude_0.01_rep_3_t_K.png	 K	 t	 l	 n.a.	 4.456094e-01
7	 5	 401	 unflanked	 rf	 3	 0.268300	 0.000000	 unflanked_rf_freq_3_amplitude_0.2683_rep_6_r_H.png	 H	 r	 r	 n.a.	 3.477726e-01
7	 5	 402	 unflanked	 rf	 4	 0.061700	 0.000000	 unflanked_rf_freq_4_amplitude_0.0617_rep_0_r_D.png	 D	 r	 t	 n.a.	 6.296056e-01
7	 5	 403	 unflanked	 rf	 4	 0.007500	 0.000000	 unflanked_rf_freq_4_amplitude_0.0075_rep_8_b_N.png	 N	 b	 r	 n.a.	 7.170970e-01
7	 5	 404	 unflanked	 rf	 8	 0.007500	 0.000000	 unflanked_rf_freq_8_amplitude_0.0075_rep_7_b_D.png	 D	 b	 l	 n.a.	 4.265454e-01
7	 5	 405	 unflanked	 rf	 8	 0.165000	 0.000000	 unflanked_rf_freq_8_amplitude_0.165_rep_2_r_D.png	 D	 r	 r	 n.a.	 2.921215e-01
7	 5	 406	 unflanked	 rf	 8	 0.061700	 0.000000	 unflanked_rf_freq_8_amplitude_0.0617_rep_1_l_H.png	 H	 l	 l	 n.a.	 6.219683e-01
7	 5	 407	 unflanked	 rf	 8	 0.268300	 0.000000	 unflanked_rf_freq_8_amplitude_0.2683_rep_7_r_H.png	 H	 r	 r	 n.a.	 2.899315e-01
7	 5	 408	 unflanked	 rf	 2	 0.061700	 0.000000	 unflanked_rf_freq_2_amplitude_0.0617_rep_5_r_N.png	 N	 r	 l	 n.a.	 5.796442e-01
7	 5	 409	 unflanked	 rf	 2	 0.165000	 0.000000	 unflanked_rf_freq_2_amplitude_0.165_rep_3_b_H.png	 H	 b	 b	 n.a.	 3.611913e-01
7	 5	 410	 unflanked	 rf	 8	 0.010000	 0.000000	 unflanked_rf_freq_8_amplitude_0.01_rep_5_r_H.png	 H	 r	 t	 n.a.	 4.403712e-01
7	 5	 411	 unflanked	 rf	 8	 0.007500	 0.000000	 unflanked_rf_freq_8_amplitude_0.0075_rep_9_r_D.png	 D	 r	 l	 n.a.	 6.474741e-01
7	 5	 412	 unflanked	 rf	 3	 0.165000	 0.000000	 unflanked_rf_freq_3_amplitude_0.165_rep_2_l_D.png	 D	 l	 r	 n.a.	 8.731268e-01
7	 5	 413	 unflanked	 rf	 3	 0.165000	 0.000000	 unflanked_rf_freq_3_amplitude_0.165_rep_8_t_H.png	 H	 t	 t	 n.a.	 4.511158e-01
7	 5	 414	 unflanked	 rf	 12	 0.007500	 0.000000	 unflanked_rf_freq_12_amplitude_0.0075_rep_8_b_D.png	 D	 b	 t	 n.a.	 6.258414e-01
7	 5	 415	 unflanked	 rf	 2	 0.010000	 0.000000	 unflanked_rf_freq_2_amplitude_0.01_rep_6_t_H.png	 H	 t	 r	 n.a.	 7.717456e-01
7	 5	 416	 unflanked	 rf	 12	 0.061700	 0.000000	 unflanked_rf_freq_12_amplitude_0.0617_rep_3_b_H.png	 H	 b	 b	 n.a.	 6.603811e-01
7	 5	 417	 unflanked	 rf	 4	 0.216700	 0.000000	 unflanked_rf_freq_4_amplitude_0.2167_rep_5_l_N.png	 N	 l	 l	 n.a.	 3.489233e-01
7	 5	 418	 unflanked	 rf	 5	 0.165000	 0.000000	 unflanked_rf_freq_5_amplitude_0.165_rep_6_t_D.png	 D	 t	 t	 n.a.	 3.215760e-01
7	 5	 419	 unflanked	 rf	 8	 0.010000	 0.000000	 unflanked_rf_freq_8_amplitude_0.01_rep_8_b_D.png	 D	 b	 t	 n.a.	 5.401367e-01
7	 5	 420	 unflanked	 rf	 2	 0.268300	 0.000000	 unflanked_rf_freq_2_amplitude_0.2683_rep_1_l_N.png	 N	 l	 l	 n.a.	 3.595464e-01
