subject	 session	 trial	 flanked	 distortion	 freq	 amplitude	 spacing	 im_name	 targ_letter	 targ_pos	 response	 eyemovement	 RT
7	 2	 1	 flanked	 bex	 2	 2.000000	 2.000000	 flanked_bex_freq_2_amplitude_2_rep_2_r_N_2.0.png	 N	 r	 t	 n.a.	 4.275792e-01
7	 2	 2	 flanked	 bex	 32	 5.000000	 2.000000	 flanked_bex_freq_32_amplitude_5_rep_8_l_K_2.0.png	 K	 l	 l	 n.a.	 2.655639e-01
7	 2	 3	 flanked	 bex	 32	 5.000000	 2.000000	 flanked_bex_freq_32_amplitude_5_rep_3_r_H_2.0.png	 H	 r	 r	 n.a.	 3.570715e-01
7	 2	 4	 flanked	 bex	 6	 3.000000	 2.000000	 flanked_bex_freq_6_amplitude_3_rep_3_l_H_2.0.png	 H	 l	 l	 n.a.	 3.125323e-01
7	 2	 5	 flanked	 bex	 32	 1.000000	 2.000000	 flanked_bex_freq_32_amplitude_1_rep_1_b_K_2.0.png	 K	 b	 b	 n.a.	 3.774098e-01
7	 2	 6	 flanked	 bex	 2	 0.500000	 2.000000	 flanked_bex_freq_2_amplitude_0.5_rep_5_l_D_2.0.png	 D	 l	 r	 n.a.	 3.508673e-01
7	 2	 7	 flanked	 bex	 32	 5.000000	 2.000000	 flanked_bex_freq_32_amplitude_5_rep_7_l_K_2.0.png	 K	 l	 l	 n.a.	 2.558808e-01
7	 2	 8	 flanked	 bex	 8	 5.000000	 2.000000	 flanked_bex_freq_8_amplitude_5_rep_1_l_D_2.0.png	 D	 l	 l	 n.a.	 2.549950e-01
7	 2	 9	 flanked	 bex	 8	 3.000000	 2.000000	 flanked_bex_freq_8_amplitude_3_rep_6_r_H_2.0.png	 H	 r	 r	 n.a.	 2.563141e-01
7	 2	 10	 flanked	 bex	 16	 3.000000	 2.000000	 flanked_bex_freq_16_amplitude_3_rep_2_r_N_2.0.png	 N	 r	 r	 n.a.	 2.592230e-01
7	 2	 11	 flanked	 bex	 16	 5.000000	 2.000000	 flanked_bex_freq_16_amplitude_5_rep_5_r_N_2.0.png	 N	 r	 r	 n.a.	 2.203295e-01
7	 2	 12	 flanked	 bex	 16	 0.500000	 2.000000	 flanked_bex_freq_16_amplitude_0.5_rep_9_b_N_2.0.png	 N	 b	 r	 n.a.	 2.893409e-01
7	 2	 13	 flanked	 bex	 16	 2.000000	 2.000000	 flanked_bex_freq_16_amplitude_2_rep_2_l_N_2.0.png	 N	 l	 l	 n.a.	 2.954587e-01
7	 2	 14	 flanked	 bex	 2	 1.500000	 2.000000	 flanked_bex_freq_2_amplitude_1.5_rep_0_b_D_2.0.png	 D	 b	 r	 n.a.	 3.670663e-01
7	 2	 15	 flanked	 bex	 16	 0.500000	 2.000000	 flanked_bex_freq_16_amplitude_0.5_rep_3_l_D_2.0.png	 D	 l	 b	 n.a.	 4.054628e-01
7	 2	 16	 flanked	 bex	 32	 2.500000	 2.000000	 flanked_bex_freq_32_amplitude_2.5_rep_2_b_H_2.0.png	 H	 b	 r	 n.a.	 3.393218e-01
7	 2	 17	 flanked	 bex	 16	 2.000000	 2.000000	 flanked_bex_freq_16_amplitude_2_rep_0_r_N_2.0.png	 N	 r	 r	 n.a.	 3.142108e-01
7	 2	 18	 flanked	 bex	 8	 5.000000	 2.000000	 flanked_bex_freq_8_amplitude_5_rep_5_l_D_2.0.png	 D	 l	 l	 n.a.	 2.827517e-01
7	 2	 19	 flanked	 bex	 2	 5.000000	 2.000000	 flanked_bex_freq_2_amplitude_5_rep_4_b_H_2.0.png	 H	 b	 b	 n.a.	 3.244890e-01
7	 2	 20	 flanked	 bex	 32	 5.000000	 2.000000	 flanked_bex_freq_32_amplitude_5_rep_1_r_H_2.0.png	 H	 r	 r	 n.a.	 2.463322e-01
7	 2	 21	 flanked	 bex	 32	 1.000000	 2.000000	 flanked_bex_freq_32_amplitude_1_rep_9_t_K_2.0.png	 K	 t	 t	 n.a.	 2.983532e-01
7	 2	 22	 flanked	 bex	 32	 2.500000	 2.000000	 flanked_bex_freq_32_amplitude_2.5_rep_5_r_N_2.0.png	 N	 r	 r	 n.a.	 3.529835e-01
7	 2	 23	 flanked	 bex	 2	 2.500000	 2.000000	 flanked_bex_freq_2_amplitude_2.5_rep_6_t_K_2.0.png	 K	 t	 t	 n.a.	 4.480900e-01
7	 2	 24	 flanked	 bex	 4	 1.000000	 2.000000	 flanked_bex_freq_4_amplitude_1_rep_0_b_D_2.0.png	 D	 b	 r	 n.a.	 3.554792e-01
7	 2	 25	 flanked	 bex	 6	 5.000000	 2.000000	 flanked_bex_freq_6_amplitude_5_rep_1_t_H_2.0.png	 H	 t	 t	 n.a.	 2.842272e-01
7	 2	 26	 flanked	 bex	 4	 2.000000	 2.000000	 flanked_bex_freq_4_amplitude_2_rep_6_l_D_2.0.png	 D	 l	 l	 n.a.	 4.422343e-01
7	 2	 27	 flanked	 bex	 6	 1.000000	 2.000000	 flanked_bex_freq_6_amplitude_1_rep_5_b_K_2.0.png	 K	 b	 b	 n.a.	 4.288294e-01
7	 2	 28	 flanked	 bex	 2	 5.000000	 2.000000	 flanked_bex_freq_2_amplitude_5_rep_3_l_H_2.0.png	 H	 l	 l	 n.a.	 3.446548e-01
7	 2	 29	 flanked	 bex	 8	 0.500000	 2.000000	 flanked_bex_freq_8_amplitude_0.5_rep_9_t_D_2.0.png	 D	 t	 r	 n.a.	 4.356867e-01
7	 2	 30	 flanked	 bex	 32	 2.000000	 2.000000	 flanked_bex_freq_32_amplitude_2_rep_6_l_D_2.0.png	 D	 l	 l	 n.a.	 4.923092e-01
7	 2	 31	 flanked	 bex	 2	 0.500000	 2.000000	 flanked_bex_freq_2_amplitude_0.5_rep_0_b_H_2.0.png	 H	 b	 b	 n.a.	 5.196820e-01
7	 2	 32	 flanked	 bex	 16	 2.000000	 2.000000	 flanked_bex_freq_16_amplitude_2_rep_5_b_N_2.0.png	 N	 b	 t	 n.a.	 2.904295e-01
7	 2	 33	 flanked	 bex	 8	 1.500000	 2.000000	 flanked_bex_freq_8_amplitude_1.5_rep_0_r_H_2.0.png	 H	 r	 r	 n.a.	 2.435261e-01
7	 2	 34	 flanked	 bex	 4	 0.500000	 2.000000	 flanked_bex_freq_4_amplitude_0.5_rep_4_b_N_2.0.png	 N	 b	 l	 n.a.	 3.959163e-01
7	 2	 35	 flanked	 bex	 2	 3.000000	 2.000000	 flanked_bex_freq_2_amplitude_3_rep_3_b_H_2.0.png	 H	 b	 b	 n.a.	 3.459481e-01
7	 2	 36	 flanked	 bex	 6	 1.500000	 2.000000	 flanked_bex_freq_6_amplitude_1.5_rep_3_t_N_2.0.png	 N	 t	 t	 n.a.	 3.404158e-01
7	 2	 37	 flanked	 bex	 2	 1.500000	 2.000000	 flanked_bex_freq_2_amplitude_1.5_rep_5_r_H_2.0.png	 H	 r	 r	 n.a.	 6.739644e-01
7	 2	 38	 flanked	 bex	 8	 1.000000	 2.000000	 flanked_bex_freq_8_amplitude_1_rep_2_r_N_2.0.png	 N	 r	 r	 n.a.	 6.200728e-01
7	 2	 39	 flanked	 bex	 4	 0.500000	 2.000000	 flanked_bex_freq_4_amplitude_0.5_rep_7_t_K_2.0.png	 K	 t	 t	 n.a.	 4.531347e-01
7	 2	 40	 flanked	 bex	 6	 3.000000	 2.000000	 flanked_bex_freq_6_amplitude_3_rep_1_b_N_2.0.png	 N	 b	 b	 n.a.	 4.268990e-01
7	 2	 41	 flanked	 bex	 6	 2.500000	 2.000000	 flanked_bex_freq_6_amplitude_2.5_rep_8_l_D_2.0.png	 D	 l	 l	 n.a.	 2.547459e-01
7	 2	 42	 flanked	 bex	 2	 1.500000	 2.000000	 flanked_bex_freq_2_amplitude_1.5_rep_7_t_K_2.0.png	 K	 t	 b	 n.a.	 5.801542e-01
7	 2	 43	 flanked	 bex	 4	 2.500000	 2.000000	 flanked_bex_freq_4_amplitude_2.5_rep_1_l_N_2.0.png	 N	 l	 l	 n.a.	 3.037529e-01
7	 2	 44	 flanked	 bex	 8	 2.500000	 2.000000	 flanked_bex_freq_8_amplitude_2.5_rep_0_l_N_2.0.png	 N	 l	 l	 n.a.	 3.256890e-01
7	 2	 45	 flanked	 bex	 32	 1.500000	 2.000000	 flanked_bex_freq_32_amplitude_1.5_rep_8_l_D_2.0.png	 D	 l	 b	 n.a.	 4.089206e-01
7	 2	 46	 flanked	 bex	 8	 0.500000	 2.000000	 flanked_bex_freq_8_amplitude_0.5_rep_7_t_K_2.0.png	 K	 t	 b	 n.a.	 5.876161e-01
7	 2	 47	 flanked	 bex	 2	 2.000000	 2.000000	 flanked_bex_freq_2_amplitude_2_rep_9_l_H_2.0.png	 H	 l	 l	 n.a.	 4.725883e-01
7	 2	 48	 flanked	 bex	 16	 1.000000	 2.000000	 flanked_bex_freq_16_amplitude_1_rep_0_t_K_2.0.png	 K	 t	 b	 n.a.	 6.115407e-01
7	 2	 49	 flanked	 bex	 6	 5.000000	 2.000000	 flanked_bex_freq_6_amplitude_5_rep_6_b_K_2.0.png	 K	 b	 b	 n.a.	 3.131807e-01
7	 2	 50	 flanked	 bex	 32	 1.000000	 2.000000	 flanked_bex_freq_32_amplitude_1_rep_2_l_H_2.0.png	 H	 l	 r	 n.a.	 4.687332e-01
7	 2	 51	 flanked	 bex	 8	 0.500000	 2.000000	 flanked_bex_freq_8_amplitude_0.5_rep_4_l_D_2.0.png	 D	 l	 b	 n.a.	 4.735115e-01
7	 2	 52	 flanked	 bex	 6	 0.500000	 2.000000	 flanked_bex_freq_6_amplitude_0.5_rep_4_t_D_2.0.png	 D	 t	 l	 n.a.	 5.129908e-01
7	 2	 53	 flanked	 bex	 32	 3.000000	 2.000000	 flanked_bex_freq_32_amplitude_3_rep_1_t_K_2.0.png	 K	 t	 t	 n.a.	 3.735124e-01
7	 2	 54	 flanked	 bex	 32	 1.000000	 2.000000	 flanked_bex_freq_32_amplitude_1_rep_0_r_D_2.0.png	 D	 r	 l	 n.a.	 7.859126e-01
7	 2	 55	 flanked	 bex	 16	 0.500000	 2.000000	 flanked_bex_freq_16_amplitude_0.5_rep_0_t_N_2.0.png	 N	 t	 l	 n.a.	 7.894550e-01
7	 2	 56	 flanked	 bex	 16	 2.000000	 2.000000	 flanked_bex_freq_16_amplitude_2_rep_6_t_D_2.0.png	 D	 t	 b	 n.a.	 5.162052e-01
7	 2	 57	 flanked	 bex	 2	 0.500000	 2.000000	 flanked_bex_freq_2_amplitude_0.5_rep_3_t_N_2.0.png	 N	 t	 t	 n.a.	 7.114786e-01
7	 2	 58	 flanked	 bex	 16	 5.000000	 2.000000	 flanked_bex_freq_16_amplitude_5_rep_3_b_N_2.0.png	 N	 b	 b	 n.a.	 5.946954e-01
7	 2	 59	 flanked	 bex	 16	 0.500000	 2.000000	 flanked_bex_freq_16_amplitude_0.5_rep_7_l_N_2.0.png	 N	 l	 b	 n.a.	 6.911110e-01
7	 2	 60	 flanked	 bex	 4	 1.000000	 2.000000	 flanked_bex_freq_4_amplitude_1_rep_8_t_H_2.0.png	 H	 t	 t	 n.a.	 5.512209e-01
7	 2	 61	 flanked	 bex	 6	 1.500000	 2.000000	 flanked_bex_freq_6_amplitude_1.5_rep_6_b_N_2.0.png	 N	 b	 b	 n.a.	 5.463215e-01
7	 2	 62	 flanked	 bex	 8	 1.500000	 2.000000	 flanked_bex_freq_8_amplitude_1.5_rep_8_b_H_2.0.png	 H	 b	 b	 n.a.	 5.769172e-01
7	 2	 63	 flanked	 bex	 16	 1.500000	 2.000000	 flanked_bex_freq_16_amplitude_1.5_rep_2_l_N_2.0.png	 N	 l	 t	 n.a.	 6.114592e-01
7	 2	 64	 flanked	 bex	 8	 2.000000	 2.000000	 flanked_bex_freq_8_amplitude_2_rep_4_l_N_2.0.png	 N	 l	 l	 n.a.	 3.163382e-01
7	 2	 65	 flanked	 bex	 6	 5.000000	 2.000000	 flanked_bex_freq_6_amplitude_5_rep_8_l_K_2.0.png	 K	 l	 l	 n.a.	 3.427685e-01
7	 2	 66	 flanked	 bex	 2	 5.000000	 2.000000	 flanked_bex_freq_2_amplitude_5_rep_8_b_K_2.0.png	 K	 b	 b	 n.a.	 5.032481e-01
7	 2	 67	 flanked	 bex	 8	 3.000000	 2.000000	 flanked_bex_freq_8_amplitude_3_rep_5_t_H_2.0.png	 H	 t	 t	 n.a.	 3.219675e-01
7	 2	 68	 flanked	 bex	 8	 2.000000	 2.000000	 flanked_bex_freq_8_amplitude_2_rep_1_l_K_2.0.png	 K	 l	 l	 n.a.	 4.372496e-01
7	 2	 69	 flanked	 bex	 2	 3.000000	 2.000000	 flanked_bex_freq_2_amplitude_3_rep_9_r_N_2.0.png	 N	 r	 b	 n.a.	 4.594567e-01
7	 2	 70	 flanked	 bex	 32	 0.500000	 2.000000	 flanked_bex_freq_32_amplitude_0.5_rep_0_b_K_2.0.png	 K	 b	 t	 n.a.	 7.010391e-01
7	 2	 71	 flanked	 bex	 32	 1.500000	 2.000000	 flanked_bex_freq_32_amplitude_1.5_rep_7_t_H_2.0.png	 H	 t	 t	 n.a.	 4.489554e-01
7	 2	 72	 flanked	 bex	 8	 3.000000	 2.000000	 flanked_bex_freq_8_amplitude_3_rep_2_r_D_2.0.png	 D	 r	 r	 n.a.	 2.617889e-01
7	 2	 73	 flanked	 bex	 6	 1.000000	 2.000000	 flanked_bex_freq_6_amplitude_1_rep_7_l_D_2.0.png	 D	 l	 t	 n.a.	 3.522126e-01
7	 2	 74	 flanked	 bex	 4	 0.500000	 2.000000	 flanked_bex_freq_4_amplitude_0.5_rep_5_r_K_2.0.png	 K	 r	 r	 n.a.	 5.659154e-01
7	 2	 75	 flanked	 bex	 6	 2.000000	 2.000000	 flanked_bex_freq_6_amplitude_2_rep_2_l_D_2.0.png	 D	 l	 l	 n.a.	 3.955350e-01
7	 2	 76	 flanked	 bex	 6	 3.000000	 2.000000	 flanked_bex_freq_6_amplitude_3_rep_2_t_D_2.0.png	 D	 t	 t	 n.a.	 3.725094e-01
7	 2	 77	 flanked	 bex	 8	 2.500000	 2.000000	 flanked_bex_freq_8_amplitude_2.5_rep_1_l_D_2.0.png	 D	 l	 l	 n.a.	 2.722593e-01
7	 2	 78	 flanked	 bex	 4	 1.000000	 2.000000	 flanked_bex_freq_4_amplitude_1_rep_1_r_N_2.0.png	 N	 r	 t	 n.a.	 3.486508e-01
7	 2	 79	 flanked	 bex	 32	 1.500000	 2.000000	 flanked_bex_freq_32_amplitude_1.5_rep_5_l_N_2.0.png	 N	 l	 b	 n.a.	 3.028525e-01
7	 2	 80	 flanked	 bex	 2	 3.000000	 2.000000	 flanked_bex_freq_2_amplitude_3_rep_5_r_D_2.0.png	 D	 r	 t	 n.a.	 3.758388e-01
7	 2	 81	 flanked	 bex	 2	 1.500000	 2.000000	 flanked_bex_freq_2_amplitude_1.5_rep_2_b_H_2.0.png	 H	 b	 t	 n.a.	 7.639730e-01
7	 2	 82	 flanked	 bex	 8	 2.000000	 2.000000	 flanked_bex_freq_8_amplitude_2_rep_0_t_D_2.0.png	 D	 t	 t	 n.a.	 5.255559e-01
7	 2	 83	 flanked	 bex	 32	 3.000000	 2.000000	 flanked_bex_freq_32_amplitude_3_rep_2_r_N_2.0.png	 N	 r	 r	 n.a.	 6.328021e-01
7	 2	 84	 flanked	 bex	 2	 1.500000	 2.000000	 flanked_bex_freq_2_amplitude_1.5_rep_4_r_N_2.0.png	 N	 r	 t	 n.a.	 7.071039e-01
7	 2	 85	 flanked	 bex	 4	 1.500000	 2.000000	 flanked_bex_freq_4_amplitude_1.5_rep_7_b_H_2.0.png	 H	 b	 r	 n.a.	 4.356035e-01
7	 2	 86	 flanked	 bex	 16	 2.000000	 2.000000	 flanked_bex_freq_16_amplitude_2_rep_8_b_K_2.0.png	 K	 b	 r	 n.a.	 7.795254e-01
7	 2	 87	 flanked	 bex	 32	 1.000000	 2.000000	 flanked_bex_freq_32_amplitude_1_rep_3_l_H_2.0.png	 H	 l	 t	 n.a.	 6.737153e-01
7	 2	 88	 flanked	 bex	 16	 1.000000	 2.000000	 flanked_bex_freq_16_amplitude_1_rep_4_r_H_2.0.png	 H	 r	 b	 n.a.	 8.882022e-01
7	 2	 89	 flanked	 bex	 4	 1.500000	 2.000000	 flanked_bex_freq_4_amplitude_1.5_rep_9_b_K_2.0.png	 K	 b	 r	 n.a.	 5.141598e-01
7	 2	 90	 flanked	 bex	 8	 1.500000	 2.000000	 flanked_bex_freq_8_amplitude_1.5_rep_6_r_N_2.0.png	 N	 r	 l	 n.a.	 4.291512e-01
7	 2	 91	 flanked	 bex	 4	 5.000000	 2.000000	 flanked_bex_freq_4_amplitude_5_rep_2_r_D_2.0.png	 D	 r	 r	 n.a.	 2.819579e-01
7	 2	 92	 flanked	 bex	 6	 2.500000	 2.000000	 flanked_bex_freq_6_amplitude_2.5_rep_7_b_N_2.0.png	 N	 b	 b	 n.a.	 3.727584e-01
7	 2	 93	 flanked	 bex	 8	 3.000000	 2.000000	 flanked_bex_freq_8_amplitude_3_rep_4_r_D_2.0.png	 D	 r	 r	 n.a.	 3.554002e-01
7	 2	 94	 flanked	 bex	 2	 2.500000	 2.000000	 flanked_bex_freq_2_amplitude_2.5_rep_8_r_H_2.0.png	 H	 r	 b	 n.a.	 5.524118e-01
7	 2	 95	 flanked	 bex	 2	 0.500000	 2.000000	 flanked_bex_freq_2_amplitude_0.5_rep_7_r_D_2.0.png	 D	 r	 t	 n.a.	 3.419254e-01
7	 2	 96	 flanked	 bex	 4	 1.000000	 2.000000	 flanked_bex_freq_4_amplitude_1_rep_5_r_K_2.0.png	 K	 r	 r	 n.a.	 3.924616e-01
7	 2	 97	 flanked	 bex	 16	 2.000000	 2.000000	 flanked_bex_freq_16_amplitude_2_rep_7_t_D_2.0.png	 D	 t	 b	 n.a.	 6.650534e-01
7	 2	 98	 flanked	 bex	 2	 2.500000	 2.000000	 flanked_bex_freq_2_amplitude_2.5_rep_3_b_K_2.0.png	 K	 b	 r	 n.a.	 5.868203e-01
7	 2	 99	 flanked	 bex	 4	 1.500000	 2.000000	 flanked_bex_freq_4_amplitude_1.5_rep_5_l_H_2.0.png	 H	 l	 l	 n.a.	 3.222069e-01
7	 2	 100	 flanked	 bex	 6	 0.500000	 2.000000	 flanked_bex_freq_6_amplitude_0.5_rep_7_r_K_2.0.png	 K	 r	 t	 n.a.	 8.832145e-01
7	 2	 101	 flanked	 bex	 6	 2.000000	 2.000000	 flanked_bex_freq_6_amplitude_2_rep_3_r_K_2.0.png	 K	 r	 r	 n.a.	 4.262185e-01
7	 2	 102	 flanked	 bex	 8	 2.000000	 2.000000	 flanked_bex_freq_8_amplitude_2_rep_6_t_K_2.0.png	 K	 t	 t	 n.a.	 5.373016e-01
7	 2	 103	 flanked	 bex	 16	 1.000000	 2.000000	 flanked_bex_freq_16_amplitude_1_rep_1_l_K_2.0.png	 K	 l	 b	 n.a.	 6.986634e-01
7	 2	 104	 flanked	 bex	 6	 2.500000	 2.000000	 flanked_bex_freq_6_amplitude_2.5_rep_2_r_D_2.0.png	 D	 r	 r	 n.a.	 3.250583e-01
7	 2	 105	 flanked	 bex	 8	 2.000000	 2.000000	 flanked_bex_freq_8_amplitude_2_rep_3_b_D_2.0.png	 D	 b	 b	 n.a.	 3.774867e-01
7	 2	 106	 flanked	 bex	 32	 2.500000	 2.000000	 flanked_bex_freq_32_amplitude_2.5_rep_7_l_H_2.0.png	 H	 l	 b	 n.a.	 5.851529e-01
7	 2	 107	 flanked	 bex	 8	 2.500000	 2.000000	 flanked_bex_freq_8_amplitude_2.5_rep_5_r_K_2.0.png	 K	 r	 r	 n.a.	 3.313949e-01
7	 2	 108	 flanked	 bex	 8	 2.000000	 2.000000	 flanked_bex_freq_8_amplitude_2_rep_7_l_D_2.0.png	 D	 l	 l	 n.a.	 3.155187e-01
7	 2	 109	 flanked	 bex	 16	 2.500000	 2.000000	 flanked_bex_freq_16_amplitude_2.5_rep_7_r_D_2.0.png	 D	 r	 r	 n.a.	 2.936401e-01
7	 2	 110	 flanked	 bex	 8	 3.000000	 2.000000	 flanked_bex_freq_8_amplitude_3_rep_0_b_K_2.0.png	 K	 b	 b	 n.a.	 2.976430e-01
7	 2	 111	 flanked	 bex	 16	 0.500000	 2.000000	 flanked_bex_freq_16_amplitude_0.5_rep_4_r_K_2.0.png	 K	 r	 b	 n.a.	 4.304588e-01
7	 2	 112	 flanked	 bex	 32	 1.500000	 2.000000	 flanked_bex_freq_32_amplitude_1.5_rep_2_l_K_2.0.png	 K	 l	 l	 n.a.	 5.165175e-01
7	 2	 113	 flanked	 bex	 4	 2.000000	 2.000000	 flanked_bex_freq_4_amplitude_2_rep_0_t_H_2.0.png	 H	 t	 t	 n.a.	 4.906788e-01
7	 2	 114	 flanked	 bex	 16	 3.000000	 2.000000	 flanked_bex_freq_16_amplitude_3_rep_1_b_H_2.0.png	 H	 b	 b	 n.a.	 4.144031e-01
7	 2	 115	 flanked	 bex	 32	 2.000000	 2.000000	 flanked_bex_freq_32_amplitude_2_rep_7_b_K_2.0.png	 K	 b	 b	 n.a.	 3.722961e-01
7	 2	 116	 flanked	 bex	 2	 2.000000	 2.000000	 flanked_bex_freq_2_amplitude_2_rep_1_b_D_2.0.png	 D	 b	 r	 n.a.	 5.477083e-01
7	 2	 117	 flanked	 bex	 32	 2.000000	 2.000000	 flanked_bex_freq_32_amplitude_2_rep_2_b_N_2.0.png	 N	 b	 b	 n.a.	 3.725055e-01
7	 2	 118	 flanked	 bex	 6	 2.000000	 2.000000	 flanked_bex_freq_6_amplitude_2_rep_4_t_D_2.0.png	 D	 t	 l	 n.a.	 8.340206e-01
7	 2	 119	 flanked	 bex	 6	 2.500000	 2.000000	 flanked_bex_freq_6_amplitude_2.5_rep_1_l_H_2.0.png	 H	 l	 l	 n.a.	 3.718076e-01
7	 2	 120	 flanked	 bex	 2	 1.000000	 2.000000	 flanked_bex_freq_2_amplitude_1_rep_7_b_N_2.0.png	 N	 b	 b	 n.a.	 3.851622e-01
7	 2	 121	 flanked	 bex	 4	 0.500000	 2.000000	 flanked_bex_freq_4_amplitude_0.5_rep_9_t_K_2.0.png	 K	 t	 b	 n.a.	 4.876017e-01
7	 2	 122	 flanked	 bex	 4	 5.000000	 2.000000	 flanked_bex_freq_4_amplitude_5_rep_5_b_N_2.0.png	 N	 b	 b	 n.a.	 3.270829e-01
7	 2	 123	 flanked	 bex	 4	 1.000000	 2.000000	 flanked_bex_freq_4_amplitude_1_rep_3_b_H_2.0.png	 H	 b	 b	 n.a.	 5.000456e-01
7	 2	 124	 flanked	 bex	 16	 2.000000	 2.000000	 flanked_bex_freq_16_amplitude_2_rep_1_b_K_2.0.png	 K	 b	 b	 n.a.	 4.953973e-01
7	 2	 125	 flanked	 bex	 8	 5.000000	 2.000000	 flanked_bex_freq_8_amplitude_5_rep_8_t_D_2.0.png	 D	 t	 t	 n.a.	 3.128021e-01
7	 2	 126	 flanked	 bex	 16	 0.500000	 2.000000	 flanked_bex_freq_16_amplitude_0.5_rep_1_l_D_2.0.png	 D	 l	 b	 n.a.	 3.752409e-01
7	 2	 127	 flanked	 bex	 4	 1.500000	 2.000000	 flanked_bex_freq_4_amplitude_1.5_rep_4_l_N_2.0.png	 N	 l	 t	 n.a.	 4.175522e-01
7	 2	 128	 flanked	 bex	 6	 2.000000	 2.000000	 flanked_bex_freq_6_amplitude_2_rep_9_t_H_2.0.png	 H	 t	 t	 n.a.	 3.587040e-01
7	 2	 129	 flanked	 bex	 4	 1.000000	 2.000000	 flanked_bex_freq_4_amplitude_1_rep_7_l_D_2.0.png	 D	 l	 t	 n.a.	 4.776709e-01
7	 2	 130	 flanked	 bex	 32	 2.500000	 2.000000	 flanked_bex_freq_32_amplitude_2.5_rep_9_l_N_2.0.png	 N	 l	 l	 n.a.	 5.113308e-01
7	 2	 131	 flanked	 bex	 16	 1.500000	 2.000000	 flanked_bex_freq_16_amplitude_1.5_rep_3_t_H_2.0.png	 H	 t	 t	 n.a.	 3.402296e-01
7	 2	 132	 flanked	 bex	 2	 2.000000	 2.000000	 flanked_bex_freq_2_amplitude_2_rep_6_t_N_2.0.png	 N	 t	 t	 n.a.	 6.186511e-01
7	 2	 133	 flanked	 bex	 2	 2.000000	 2.000000	 flanked_bex_freq_2_amplitude_2_rep_0_t_N_2.0.png	 N	 t	 t	 n.a.	 4.393295e-01
7	 2	 134	 flanked	 bex	 32	 2.000000	 2.000000	 flanked_bex_freq_32_amplitude_2_rep_3_b_K_2.0.png	 K	 b	 t	 n.a.	 8.723867e-01
7	 2	 135	 flanked	 bex	 32	 1.500000	 2.000000	 flanked_bex_freq_32_amplitude_1.5_rep_9_l_K_2.0.png	 K	 l	 t	 n.a.	 3.505060e-01
7	 2	 136	 flanked	 bex	 2	 1.000000	 2.000000	 flanked_bex_freq_2_amplitude_1_rep_4_l_K_2.0.png	 K	 l	 l	 n.a.	 3.615976e-01
7	 2	 137	 flanked	 bex	 8	 3.000000	 2.000000	 flanked_bex_freq_8_amplitude_3_rep_7_l_K_2.0.png	 K	 l	 l	 n.a.	 3.086927e-01
7	 2	 138	 flanked	 bex	 32	 0.500000	 2.000000	 flanked_bex_freq_32_amplitude_0.5_rep_6_r_K_2.0.png	 K	 r	 r	 n.a.	 4.191316e-01
7	 2	 139	 flanked	 bex	 16	 5.000000	 2.000000	 flanked_bex_freq_16_amplitude_5_rep_4_b_N_2.0.png	 N	 b	 b	 n.a.	 3.516750e-01
7	 2	 140	 flanked	 bex	 16	 2.500000	 2.000000	 flanked_bex_freq_16_amplitude_2.5_rep_5_t_K_2.0.png	 K	 t	 t	 n.a.	 3.343033e-01
7	 2	 141	 flanked	 bex	 2	 1.000000	 2.000000	 flanked_bex_freq_2_amplitude_1_rep_8_l_K_2.0.png	 K	 l	 t	 n.a.	 4.963478e-01
7	 2	 142	 flanked	 bex	 4	 5.000000	 2.000000	 flanked_bex_freq_4_amplitude_5_rep_6_b_N_2.0.png	 N	 b	 b	 n.a.	 7.042645e-01
7	 2	 143	 flanked	 bex	 2	 0.500000	 2.000000	 flanked_bex_freq_2_amplitude_0.5_rep_6_b_H_2.0.png	 H	 b	 t	 n.a.	 4.385318e-01
7	 2	 144	 flanked	 bex	 2	 2.500000	 2.000000	 flanked_bex_freq_2_amplitude_2.5_rep_4_b_N_2.0.png	 N	 b	 r	 n.a.	 4.242371e-01
7	 2	 145	 flanked	 bex	 16	 2.500000	 2.000000	 flanked_bex_freq_16_amplitude_2.5_rep_1_r_H_2.0.png	 H	 r	 r	 n.a.	 3.923780e-01
7	 2	 146	 flanked	 bex	 32	 2.000000	 2.000000	 flanked_bex_freq_32_amplitude_2_rep_0_t_K_2.0.png	 K	 t	 t	 n.a.	 4.962938e-01
7	 2	 147	 flanked	 bex	 32	 0.500000	 2.000000	 flanked_bex_freq_32_amplitude_0.5_rep_1_r_N_2.0.png	 N	 r	 t	 n.a.	 4.199411e-01
7	 2	 148	 flanked	 bex	 32	 3.000000	 2.000000	 flanked_bex_freq_32_amplitude_3_rep_6_t_N_2.0.png	 N	 t	 b	 n.a.	 3.402371e-01
7	 2	 149	 flanked	 bex	 6	 2.500000	 2.000000	 flanked_bex_freq_6_amplitude_2.5_rep_3_l_H_2.0.png	 H	 l	 l	 n.a.	 2.678055e-01
7	 2	 150	 flanked	 bex	 8	 2.500000	 2.000000	 flanked_bex_freq_8_amplitude_2.5_rep_6_t_H_2.0.png	 H	 t	 t	 n.a.	 3.334509e-01
7	 2	 151	 flanked	 bex	 2	 5.000000	 2.000000	 flanked_bex_freq_2_amplitude_5_rep_9_l_N_2.0.png	 N	 l	 l	 n.a.	 5.124417e-01
7	 2	 152	 flanked	 bex	 32	 2.500000	 2.000000	 flanked_bex_freq_32_amplitude_2.5_rep_6_r_K_2.0.png	 K	 r	 r	 n.a.	 3.164210e-01
7	 2	 153	 flanked	 bex	 8	 2.500000	 2.000000	 flanked_bex_freq_8_amplitude_2.5_rep_2_l_D_2.0.png	 D	 l	 l	 n.a.	 2.877106e-01
7	 2	 154	 flanked	 bex	 4	 3.000000	 2.000000	 flanked_bex_freq_4_amplitude_3_rep_9_r_H_2.0.png	 H	 r	 r	 n.a.	 2.729893e-01
7	 2	 155	 flanked	 bex	 8	 5.000000	 2.000000	 flanked_bex_freq_8_amplitude_5_rep_2_l_N_2.0.png	 N	 l	 l	 n.a.	 2.761725e-01
7	 2	 156	 flanked	 bex	 2	 3.000000	 2.000000	 flanked_bex_freq_2_amplitude_3_rep_1_b_K_2.0.png	 K	 b	 b	 n.a.	 6.586508e-01
7	 2	 157	 flanked	 bex	 4	 3.000000	 2.000000	 flanked_bex_freq_4_amplitude_3_rep_6_l_H_2.0.png	 H	 l	 l	 n.a.	 3.879959e-01
7	 2	 158	 flanked	 bex	 2	 3.000000	 2.000000	 flanked_bex_freq_2_amplitude_3_rep_6_b_N_2.0.png	 N	 b	 r	 n.a.	 4.104827e-01
7	 2	 159	 flanked	 bex	 6	 0.500000	 2.000000	 flanked_bex_freq_6_amplitude_0.5_rep_9_r_N_2.0.png	 N	 r	 t	 n.a.	 3.641677e-01
7	 2	 160	 flanked	 bex	 16	 2.500000	 2.000000	 flanked_bex_freq_16_amplitude_2.5_rep_2_r_H_2.0.png	 H	 r	 r	 n.a.	 3.332953e-01
7	 2	 161	 flanked	 bex	 4	 0.500000	 2.000000	 flanked_bex_freq_4_amplitude_0.5_rep_8_l_H_2.0.png	 H	 l	 t	 n.a.	 4.120929e-01
7	 2	 162	 flanked	 bex	 16	 2.500000	 2.000000	 flanked_bex_freq_16_amplitude_2.5_rep_9_r_N_2.0.png	 N	 r	 r	 n.a.	 2.896219e-01
7	 2	 163	 flanked	 bex	 16	 1.000000	 2.000000	 flanked_bex_freq_16_amplitude_1_rep_9_t_D_2.0.png	 D	 t	 l	 n.a.	 9.687916e-01
7	 2	 164	 flanked	 bex	 4	 1.500000	 2.000000	 flanked_bex_freq_4_amplitude_1.5_rep_8_r_N_2.0.png	 N	 r	 t	 n.a.	 9.987561e-01
7	 2	 165	 flanked	 bex	 8	 2.000000	 2.000000	 flanked_bex_freq_8_amplitude_2_rep_9_l_D_2.0.png	 D	 l	 l	 n.a.	 3.765481e-01
7	 2	 166	 flanked	 bex	 32	 3.000000	 2.000000	 flanked_bex_freq_32_amplitude_3_rep_5_l_K_2.0.png	 K	 l	 b	 n.a.	 5.530237e-01
7	 2	 167	 flanked	 bex	 6	 1.500000	 2.000000	 flanked_bex_freq_6_amplitude_1.5_rep_7_b_H_2.0.png	 H	 b	 r	 n.a.	 4.402010e-01
7	 2	 168	 flanked	 bex	 4	 2.500000	 2.000000	 flanked_bex_freq_4_amplitude_2.5_rep_0_t_K_2.0.png	 K	 t	 t	 n.a.	 3.748816e-01
7	 2	 169	 flanked	 bex	 32	 2.000000	 2.000000	 flanked_bex_freq_32_amplitude_2_rep_1_b_H_2.0.png	 H	 b	 r	 n.a.	 8.512493e-01
7	 2	 170	 flanked	 bex	 6	 5.000000	 2.000000	 flanked_bex_freq_6_amplitude_5_rep_9_l_K_2.0.png	 K	 l	 l	 n.a.	 3.883504e-01
7	 2	 171	 flanked	 bex	 16	 1.500000	 2.000000	 flanked_bex_freq_16_amplitude_1.5_rep_9_r_H_2.0.png	 H	 r	 r	 n.a.	 4.834498e-01
7	 2	 172	 flanked	 bex	 2	 2.500000	 2.000000	 flanked_bex_freq_2_amplitude_2.5_rep_7_l_K_2.0.png	 K	 l	 l	 n.a.	 4.498023e-01
7	 2	 173	 flanked	 bex	 8	 1.000000	 2.000000	 flanked_bex_freq_8_amplitude_1_rep_0_r_H_2.0.png	 H	 r	 t	 n.a.	 5.067250e-01
7	 2	 174	 flanked	 bex	 6	 1.000000	 2.000000	 flanked_bex_freq_6_amplitude_1_rep_6_b_K_2.0.png	 K	 b	 b	 n.a.	 3.744322e-01
7	 2	 175	 flanked	 bex	 8	 1.000000	 2.000000	 flanked_bex_freq_8_amplitude_1_rep_7_t_D_2.0.png	 D	 t	 b	 n.a.	 4.969904e-01
7	 2	 176	 flanked	 bex	 6	 2.000000	 2.000000	 flanked_bex_freq_6_amplitude_2_rep_7_t_N_2.0.png	 N	 t	 l	 n.a.	 3.582436e-01
7	 2	 177	 flanked	 bex	 4	 0.500000	 2.000000	 flanked_bex_freq_4_amplitude_0.5_rep_2_r_N_2.0.png	 N	 r	 b	 n.a.	 3.536076e-01
7	 2	 178	 flanked	 bex	 6	 3.000000	 2.000000	 flanked_bex_freq_6_amplitude_3_rep_8_b_D_2.0.png	 D	 b	 l	 n.a.	 3.800264e-01
7	 2	 179	 flanked	 bex	 4	 1.000000	 2.000000	 flanked_bex_freq_4_amplitude_1_rep_2_b_D_2.0.png	 D	 b	 r	 n.a.	 4.920437e-01
7	 2	 180	 flanked	 bex	 4	 2.000000	 2.000000	 flanked_bex_freq_4_amplitude_2_rep_1_t_D_2.0.png	 D	 t	 b	 n.a.	 5.067036e-01
7	 2	 181	 flanked	 bex	 32	 5.000000	 2.000000	 flanked_bex_freq_32_amplitude_5_rep_2_r_D_2.0.png	 D	 r	 r	 n.a.	 4.510153e-01
7	 2	 182	 flanked	 bex	 4	 2.500000	 2.000000	 flanked_bex_freq_4_amplitude_2.5_rep_5_r_H_2.0.png	 H	 r	 r	 n.a.	 3.919523e-01
7	 2	 183	 flanked	 bex	 16	 2.000000	 2.000000	 flanked_bex_freq_16_amplitude_2_rep_4_l_K_2.0.png	 K	 l	 l	 n.a.	 3.444286e-01
7	 2	 184	 flanked	 bex	 32	 2.500000	 2.000000	 flanked_bex_freq_32_amplitude_2.5_rep_8_b_H_2.0.png	 H	 b	 b	 n.a.	 9.101577e-01
7	 2	 185	 flanked	 bex	 4	 5.000000	 2.000000	 flanked_bex_freq_4_amplitude_5_rep_0_t_D_2.0.png	 D	 t	 l	 n.a.	 6.648788e-01
7	 2	 186	 flanked	 bex	 8	 5.000000	 2.000000	 flanked_bex_freq_8_amplitude_5_rep_9_t_H_2.0.png	 H	 t	 t	 n.a.	 3.658522e-01
7	 2	 187	 flanked	 bex	 4	 1.500000	 2.000000	 flanked_bex_freq_4_amplitude_1.5_rep_3_l_D_2.0.png	 D	 l	 t	 n.a.	 5.523093e-01
7	 2	 188	 flanked	 bex	 16	 1.500000	 2.000000	 flanked_bex_freq_16_amplitude_1.5_rep_1_l_N_2.0.png	 N	 l	 l	 n.a.	 4.276541e-01
7	 2	 189	 flanked	 bex	 6	 2.000000	 2.000000	 flanked_bex_freq_6_amplitude_2_rep_1_t_K_2.0.png	 K	 t	 t	 n.a.	 3.855436e-01
7	 2	 190	 flanked	 bex	 4	 1.500000	 2.000000	 flanked_bex_freq_4_amplitude_1.5_rep_1_l_N_2.0.png	 N	 l	 t	 n.a.	 1.039143e+00
7	 2	 191	 flanked	 bex	 2	 5.000000	 2.000000	 flanked_bex_freq_2_amplitude_5_rep_6_r_D_2.0.png	 D	 r	 r	 n.a.	 4.467487e-01
7	 2	 192	 flanked	 bex	 16	 0.500000	 2.000000	 flanked_bex_freq_16_amplitude_0.5_rep_6_t_N_2.0.png	 N	 t	 b	 n.a.	 5.521615e-01
7	 2	 193	 flanked	 bex	 8	 2.500000	 2.000000	 flanked_bex_freq_8_amplitude_2.5_rep_9_b_K_2.0.png	 K	 b	 b	 n.a.	 4.313070e-01
7	 2	 194	 flanked	 bex	 6	 0.500000	 2.000000	 flanked_bex_freq_6_amplitude_0.5_rep_2_t_K_2.0.png	 K	 t	 t	 n.a.	 6.815866e-01
7	 2	 195	 flanked	 bex	 32	 1.000000	 2.000000	 flanked_bex_freq_32_amplitude_1_rep_4_r_N_2.0.png	 N	 r	 r	 n.a.	 6.199202e-01
7	 2	 196	 flanked	 bex	 32	 0.500000	 2.000000	 flanked_bex_freq_32_amplitude_0.5_rep_3_t_N_2.0.png	 N	 t	 r	 n.a.	 5.144659e-01
7	 2	 197	 flanked	 bex	 32	 0.500000	 2.000000	 flanked_bex_freq_32_amplitude_0.5_rep_7_t_D_2.0.png	 D	 t	 l	 n.a.	 4.408446e-01
7	 2	 198	 flanked	 bex	 4	 2.000000	 2.000000	 flanked_bex_freq_4_amplitude_2_rep_9_r_D_2.0.png	 D	 r	 r	 n.a.	 4.586744e-01
7	 2	 199	 flanked	 bex	 8	 5.000000	 2.000000	 flanked_bex_freq_8_amplitude_5_rep_4_t_K_2.0.png	 K	 t	 t	 n.a.	 3.437111e-01
7	 2	 200	 flanked	 bex	 6	 1.500000	 2.000000	 flanked_bex_freq_6_amplitude_1.5_rep_2_t_N_2.0.png	 N	 t	 t	 n.a.	 3.304956e-01
7	 2	 201	 flanked	 bex	 6	 3.000000	 2.000000	 flanked_bex_freq_6_amplitude_3_rep_6_l_D_2.0.png	 D	 l	 l	 n.a.	 3.441074e-01
7	 2	 202	 flanked	 bex	 8	 1.500000	 2.000000	 flanked_bex_freq_8_amplitude_1.5_rep_3_t_K_2.0.png	 K	 t	 t	 n.a.	 2.991793e-01
7	 2	 203	 flanked	 bex	 6	 3.000000	 2.000000	 flanked_bex_freq_6_amplitude_3_rep_5_b_K_2.0.png	 K	 b	 b	 n.a.	 3.867485e-01
7	 2	 204	 flanked	 bex	 2	 5.000000	 2.000000	 flanked_bex_freq_2_amplitude_5_rep_7_r_D_2.0.png	 D	 r	 r	 n.a.	 4.006655e-01
7	 2	 205	 flanked	 bex	 6	 5.000000	 2.000000	 flanked_bex_freq_6_amplitude_5_rep_3_l_K_2.0.png	 K	 l	 l	 n.a.	 2.718622e-01
7	 2	 206	 flanked	 bex	 2	 2.500000	 2.000000	 flanked_bex_freq_2_amplitude_2.5_rep_9_r_N_2.0.png	 N	 r	 r	 n.a.	 4.030483e-01
7	 2	 207	 flanked	 bex	 8	 1.000000	 2.000000	 flanked_bex_freq_8_amplitude_1_rep_9_b_D_2.0.png	 D	 b	 l	 n.a.	 3.350283e-01
7	 2	 208	 flanked	 bex	 2	 5.000000	 2.000000	 flanked_bex_freq_2_amplitude_5_rep_5_t_H_2.0.png	 H	 t	 t	 n.a.	 2.709077e-01
7	 2	 209	 flanked	 bex	 8	 5.000000	 2.000000	 flanked_bex_freq_8_amplitude_5_rep_3_l_N_2.0.png	 N	 l	 l	 n.a.	 3.387310e-01
7	 2	 210	 flanked	 bex	 2	 2.000000	 2.000000	 flanked_bex_freq_2_amplitude_2_rep_3_l_H_2.0.png	 H	 l	 l	 n.a.	 4.974813e-01
7	 2	 211	 flanked	 bex	 4	 3.000000	 2.000000	 flanked_bex_freq_4_amplitude_3_rep_0_l_K_2.0.png	 K	 l	 l	 n.a.	 5.047125e-01
7	 2	 212	 flanked	 bex	 6	 5.000000	 2.000000	 flanked_bex_freq_6_amplitude_5_rep_2_b_H_2.0.png	 H	 b	 b	 n.a.	 3.040919e-01
7	 2	 213	 flanked	 bex	 6	 0.500000	 2.000000	 flanked_bex_freq_6_amplitude_0.5_rep_5_r_D_2.0.png	 D	 r	 b	 n.a.	 3.941525e-01
7	 2	 214	 flanked	 bex	 2	 5.000000	 2.000000	 flanked_bex_freq_2_amplitude_5_rep_0_t_N_2.0.png	 N	 t	 r	 n.a.	 4.182181e-01
7	 2	 215	 flanked	 bex	 2	 3.000000	 2.000000	 flanked_bex_freq_2_amplitude_3_rep_2_l_K_2.0.png	 K	 l	 b	 n.a.	 2.267103e-01
7	 2	 216	 flanked	 bex	 6	 1.000000	 2.000000	 flanked_bex_freq_6_amplitude_1_rep_9_t_K_2.0.png	 K	 t	 b	 n.a.	 4.599173e-01
7	 2	 217	 flanked	 bex	 4	 3.000000	 2.000000	 flanked_bex_freq_4_amplitude_3_rep_8_b_N_2.0.png	 N	 b	 b	 n.a.	 5.576295e-01
7	 2	 218	 flanked	 bex	 8	 0.500000	 2.000000	 flanked_bex_freq_8_amplitude_0.5_rep_5_r_K_2.0.png	 K	 r	 r	 n.a.	 5.606234e-01
7	 2	 219	 flanked	 bex	 6	 2.000000	 2.000000	 flanked_bex_freq_6_amplitude_2_rep_5_t_D_2.0.png	 D	 t	 t	 n.a.	 5.546825e-01
7	 2	 220	 flanked	 bex	 6	 0.500000	 2.000000	 flanked_bex_freq_6_amplitude_0.5_rep_8_t_K_2.0.png	 K	 t	 r	 n.a.	 5.849955e-01
7	 2	 221	 flanked	 bex	 8	 0.500000	 2.000000	 flanked_bex_freq_8_amplitude_0.5_rep_0_b_D_2.0.png	 D	 b	 t	 n.a.	 5.724632e-01
7	 2	 222	 flanked	 bex	 16	 3.000000	 2.000000	 flanked_bex_freq_16_amplitude_3_rep_4_r_H_2.0.png	 H	 r	 r	 n.a.	 3.457592e-01
7	 2	 223	 flanked	 bex	 32	 1.000000	 2.000000	 flanked_bex_freq_32_amplitude_1_rep_5_b_N_2.0.png	 N	 b	 b	 n.a.	 4.946703e-01
7	 2	 224	 flanked	 bex	 16	 2.500000	 2.000000	 flanked_bex_freq_16_amplitude_2.5_rep_4_t_H_2.0.png	 H	 t	 t	 n.a.	 3.634026e-01
7	 2	 225	 flanked	 bex	 6	 2.500000	 2.000000	 flanked_bex_freq_6_amplitude_2.5_rep_5_b_H_2.0.png	 H	 b	 l	 n.a.	 6.269408e-01
7	 2	 226	 flanked	 bex	 6	 1.500000	 2.000000	 flanked_bex_freq_6_amplitude_1.5_rep_9_b_H_2.0.png	 H	 b	 b	 n.a.	 4.324805e-01
7	 2	 227	 flanked	 bex	 6	 2.000000	 2.000000	 flanked_bex_freq_6_amplitude_2_rep_0_r_H_2.0.png	 H	 r	 r	 n.a.	 4.207309e-01
7	 2	 228	 flanked	 bex	 6	 3.000000	 2.000000	 flanked_bex_freq_6_amplitude_3_rep_9_l_D_2.0.png	 D	 l	 l	 n.a.	 2.553937e-01
7	 2	 229	 flanked	 bex	 2	 2.500000	 2.000000	 flanked_bex_freq_2_amplitude_2.5_rep_5_t_N_2.0.png	 N	 t	 r	 n.a.	 5.371788e-01
7	 2	 230	 flanked	 bex	 4	 2.000000	 2.000000	 flanked_bex_freq_4_amplitude_2_rep_4_l_N_2.0.png	 N	 l	 l	 n.a.	 4.706328e-01
7	 2	 231	 flanked	 bex	 8	 3.000000	 2.000000	 flanked_bex_freq_8_amplitude_3_rep_1_b_K_2.0.png	 K	 b	 b	 n.a.	 3.820096e-01
7	 2	 232	 flanked	 bex	 8	 3.000000	 2.000000	 flanked_bex_freq_8_amplitude_3_rep_8_t_N_2.0.png	 N	 t	 t	 n.a.	 3.275434e-01
7	 2	 233	 flanked	 bex	 4	 1.000000	 2.000000	 flanked_bex_freq_4_amplitude_1_rep_9_b_D_2.0.png	 D	 b	 b	 n.a.	 6.739944e-01
7	 2	 234	 flanked	 bex	 32	 2.500000	 2.000000	 flanked_bex_freq_32_amplitude_2.5_rep_1_r_D_2.0.png	 D	 r	 r	 n.a.	 3.936221e-01
7	 2	 235	 flanked	 bex	 6	 2.000000	 2.000000	 flanked_bex_freq_6_amplitude_2_rep_6_b_D_2.0.png	 D	 b	 t	 n.a.	 6.036206e-01
7	 2	 236	 flanked	 bex	 32	 5.000000	 2.000000	 flanked_bex_freq_32_amplitude_5_rep_6_l_N_2.0.png	 N	 l	 l	 n.a.	 3.492154e-01
7	 2	 237	 flanked	 bex	 32	 0.500000	 2.000000	 flanked_bex_freq_32_amplitude_0.5_rep_2_b_H_2.0.png	 H	 b	 r	 n.a.	 6.094422e-01
7	 2	 238	 flanked	 bex	 6	 1.000000	 2.000000	 flanked_bex_freq_6_amplitude_1_rep_4_r_H_2.0.png	 H	 r	 r	 n.a.	 6.507527e-01
7	 2	 239	 flanked	 bex	 4	 2.000000	 2.000000	 flanked_bex_freq_4_amplitude_2_rep_7_t_D_2.0.png	 D	 t	 b	 n.a.	 6.486361e-01
7	 2	 240	 flanked	 bex	 8	 5.000000	 2.000000	 flanked_bex_freq_8_amplitude_5_rep_7_b_H_2.0.png	 H	 b	 b	 n.a.	 3.330297e-01
7	 2	 241	 flanked	 bex	 2	 2.500000	 2.000000	 flanked_bex_freq_2_amplitude_2.5_rep_0_r_K_2.0.png	 K	 r	 r	 n.a.	 4.133684e-01
7	 2	 242	 flanked	 bex	 4	 2.500000	 2.000000	 flanked_bex_freq_4_amplitude_2.5_rep_7_t_D_2.0.png	 D	 t	 t	 n.a.	 7.509575e-01
7	 2	 243	 flanked	 bex	 6	 2.500000	 2.000000	 flanked_bex_freq_6_amplitude_2.5_rep_6_t_D_2.0.png	 D	 t	 t	 n.a.	 7.650483e-01
7	 2	 244	 flanked	 bex	 8	 1.500000	 2.000000	 flanked_bex_freq_8_amplitude_1.5_rep_5_l_N_2.0.png	 N	 l	 r	 n.a.	 6.266720e-01
7	 2	 245	 flanked	 bex	 16	 2.500000	 2.000000	 flanked_bex_freq_16_amplitude_2.5_rep_3_l_N_2.0.png	 N	 l	 l	 n.a.	 4.002918e-01
7	 2	 246	 flanked	 bex	 32	 0.500000	 2.000000	 flanked_bex_freq_32_amplitude_0.5_rep_9_b_D_2.0.png	 D	 b	 t	 n.a.	 6.321079e-01
7	 2	 247	 flanked	 bex	 32	 2.000000	 2.000000	 flanked_bex_freq_32_amplitude_2_rep_8_l_N_2.0.png	 N	 l	 l	 n.a.	 4.751229e-01
7	 2	 248	 flanked	 bex	 4	 2.000000	 2.000000	 flanked_bex_freq_4_amplitude_2_rep_5_t_D_2.0.png	 D	 t	 b	 n.a.	 5.747490e-01
7	 2	 249	 flanked	 bex	 16	 1.500000	 2.000000	 flanked_bex_freq_16_amplitude_1.5_rep_7_l_H_2.0.png	 H	 l	 l	 n.a.	 5.799910e-01
7	 2	 250	 flanked	 bex	 8	 2.500000	 2.000000	 flanked_bex_freq_8_amplitude_2.5_rep_4_b_D_2.0.png	 D	 b	 b	 n.a.	 5.296379e-01
7	 2	 251	 flanked	 bex	 2	 2.000000	 2.000000	 flanked_bex_freq_2_amplitude_2_rep_7_t_H_2.0.png	 H	 t	 b	 n.a.	 6.636868e-01
7	 2	 252	 flanked	 bex	 8	 1.500000	 2.000000	 flanked_bex_freq_8_amplitude_1.5_rep_4_l_D_2.0.png	 D	 l	 l	 n.a.	 5.872104e-01
7	 2	 253	 flanked	 bex	 4	 3.000000	 2.000000	 flanked_bex_freq_4_amplitude_3_rep_2_t_N_2.0.png	 N	 t	 t	 n.a.	 6.043984e-01
7	 2	 254	 flanked	 bex	 6	 5.000000	 2.000000	 flanked_bex_freq_6_amplitude_5_rep_7_l_D_2.0.png	 D	 l	 l	 n.a.	 4.698859e-01
7	 2	 255	 flanked	 bex	 16	 3.000000	 2.000000	 flanked_bex_freq_16_amplitude_3_rep_6_b_N_2.0.png	 N	 b	 b	 n.a.	 4.547745e-01
7	 2	 256	 flanked	 bex	 6	 5.000000	 2.000000	 flanked_bex_freq_6_amplitude_5_rep_5_t_K_2.0.png	 K	 t	 t	 n.a.	 3.860986e-01
7	 2	 257	 flanked	 bex	 8	 5.000000	 2.000000	 flanked_bex_freq_8_amplitude_5_rep_6_t_N_2.0.png	 N	 t	 t	 n.a.	 3.585379e-01
7	 2	 258	 flanked	 bex	 2	 1.500000	 2.000000	 flanked_bex_freq_2_amplitude_1.5_rep_6_l_H_2.0.png	 H	 l	 l	 n.a.	 5.453281e-01
7	 2	 259	 flanked	 bex	 6	 1.500000	 2.000000	 flanked_bex_freq_6_amplitude_1.5_rep_5_b_K_2.0.png	 K	 b	 t	 n.a.	 3.521548e-01
7	 2	 260	 flanked	 bex	 32	 3.000000	 2.000000	 flanked_bex_freq_32_amplitude_3_rep_4_b_N_2.0.png	 N	 b	 l	 n.a.	 7.087761e-01
7	 2	 261	 flanked	 bex	 8	 1.000000	 2.000000	 flanked_bex_freq_8_amplitude_1_rep_6_r_D_2.0.png	 D	 r	 b	 n.a.	 4.207818e-01
7	 2	 262	 flanked	 bex	 8	 2.000000	 2.000000	 flanked_bex_freq_8_amplitude_2_rep_5_t_D_2.0.png	 D	 t	 t	 n.a.	 2.787548e-01
7	 2	 263	 flanked	 bex	 6	 0.500000	 2.000000	 flanked_bex_freq_6_amplitude_0.5_rep_0_r_N_2.0.png	 N	 r	 t	 n.a.	 4.198105e-01
7	 2	 264	 flanked	 bex	 8	 0.500000	 2.000000	 flanked_bex_freq_8_amplitude_0.5_rep_8_l_D_2.0.png	 D	 l	 b	 n.a.	 2.798743e-01
7	 2	 265	 flanked	 bex	 32	 1.500000	 2.000000	 flanked_bex_freq_32_amplitude_1.5_rep_0_b_H_2.0.png	 H	 b	 l	 n.a.	 1.482805e-01
7	 2	 266	 flanked	 bex	 8	 1.500000	 2.000000	 flanked_bex_freq_8_amplitude_1.5_rep_1_b_H_2.0.png	 H	 b	 b	 n.a.	 4.381920e-01
7	 2	 267	 flanked	 bex	 8	 1.000000	 2.000000	 flanked_bex_freq_8_amplitude_1_rep_4_t_N_2.0.png	 N	 t	 l	 n.a.	 6.598738e-01
7	 2	 268	 flanked	 bex	 4	 3.000000	 2.000000	 flanked_bex_freq_4_amplitude_3_rep_3_r_D_2.0.png	 D	 r	 r	 n.a.	 3.813609e-01
7	 2	 269	 flanked	 bex	 4	 2.500000	 2.000000	 flanked_bex_freq_4_amplitude_2.5_rep_9_l_H_2.0.png	 H	 l	 l	 n.a.	 4.094712e-01
7	 2	 270	 flanked	 bex	 6	 2.500000	 2.000000	 flanked_bex_freq_6_amplitude_2.5_rep_9_l_K_2.0.png	 K	 l	 l	 n.a.	 3.587157e-01
7	 2	 271	 flanked	 bex	 32	 3.000000	 2.000000	 flanked_bex_freq_32_amplitude_3_rep_7_b_D_2.0.png	 D	 b	 l	 n.a.	 5.431704e-01
7	 2	 272	 flanked	 bex	 8	 1.000000	 2.000000	 flanked_bex_freq_8_amplitude_1_rep_8_r_K_2.0.png	 K	 r	 r	 n.a.	 3.971594e-01
7	 2	 273	 flanked	 bex	 6	 1.500000	 2.000000	 flanked_bex_freq_6_amplitude_1.5_rep_1_l_D_2.0.png	 D	 l	 t	 n.a.	 6.733333e-01
7	 2	 274	 flanked	 bex	 6	 2.500000	 2.000000	 flanked_bex_freq_6_amplitude_2.5_rep_0_r_N_2.0.png	 N	 r	 r	 n.a.	 3.845170e-01
7	 2	 275	 flanked	 bex	 4	 2.500000	 2.000000	 flanked_bex_freq_4_amplitude_2.5_rep_2_t_N_2.0.png	 N	 t	 b	 n.a.	 3.737866e-01
7	 2	 276	 flanked	 bex	 4	 2.500000	 2.000000	 flanked_bex_freq_4_amplitude_2.5_rep_6_l_N_2.0.png	 N	 l	 l	 n.a.	 3.446394e-01
7	 2	 277	 flanked	 bex	 8	 0.500000	 2.000000	 flanked_bex_freq_8_amplitude_0.5_rep_2_t_D_2.0.png	 D	 t	 r	 n.a.	 5.660918e-01
7	 2	 278	 flanked	 bex	 2	 3.000000	 2.000000	 flanked_bex_freq_2_amplitude_3_rep_7_r_H_2.0.png	 H	 r	 r	 n.a.	 4.743315e-01
7	 2	 279	 flanked	 bex	 2	 1.000000	 2.000000	 flanked_bex_freq_2_amplitude_1_rep_6_b_D_2.0.png	 D	 b	 t	 n.a.	 3.983706e-01
7	 2	 280	 flanked	 bex	 8	 1.500000	 2.000000	 flanked_bex_freq_8_amplitude_1.5_rep_7_b_N_2.0.png	 N	 b	 r	 n.a.	 4.424687e-01
7	 2	 281	 flanked	 bex	 32	 2.500000	 2.000000	 flanked_bex_freq_32_amplitude_2.5_rep_3_t_N_2.0.png	 N	 t	 r	 n.a.	 6.429644e-01
7	 2	 282	 flanked	 bex	 6	 1.000000	 2.000000	 flanked_bex_freq_6_amplitude_1_rep_1_b_K_2.0.png	 K	 b	 b	 n.a.	 4.188309e-01
7	 2	 283	 flanked	 bex	 16	 3.000000	 2.000000	 flanked_bex_freq_16_amplitude_3_rep_5_r_K_2.0.png	 K	 r	 r	 n.a.	 4.165497e-01
7	 2	 284	 flanked	 bex	 16	 1.000000	 2.000000	 flanked_bex_freq_16_amplitude_1_rep_5_l_D_2.0.png	 D	 l	 t	 n.a.	 6.604566e-01
7	 2	 285	 flanked	 bex	 32	 0.500000	 2.000000	 flanked_bex_freq_32_amplitude_0.5_rep_8_b_N_2.0.png	 N	 b	 r	 n.a.	 3.719266e-01
7	 2	 286	 flanked	 bex	 4	 2.500000	 2.000000	 flanked_bex_freq_4_amplitude_2.5_rep_4_l_H_2.0.png	 H	 l	 b	 n.a.	 5.265389e-01
7	 2	 287	 flanked	 bex	 16	 1.500000	 2.000000	 flanked_bex_freq_16_amplitude_1.5_rep_4_r_K_2.0.png	 K	 r	 r	 n.a.	 3.408323e-01
7	 2	 288	 flanked	 bex	 16	 3.000000	 2.000000	 flanked_bex_freq_16_amplitude_3_rep_0_b_N_2.0.png	 N	 b	 r	 n.a.	 5.777474e-01
7	 2	 289	 flanked	 bex	 2	 0.500000	 2.000000	 flanked_bex_freq_2_amplitude_0.5_rep_1_l_D_2.0.png	 D	 l	 b	 n.a.	 7.542750e-01
7	 2	 290	 flanked	 bex	 4	 5.000000	 2.000000	 flanked_bex_freq_4_amplitude_5_rep_1_t_K_2.0.png	 K	 t	 t	 n.a.	 3.250673e-01
7	 2	 291	 flanked	 bex	 2	 2.500000	 2.000000	 flanked_bex_freq_2_amplitude_2.5_rep_2_l_K_2.0.png	 K	 l	 l	 n.a.	 4.845084e-01
7	 2	 292	 flanked	 bex	 16	 5.000000	 2.000000	 flanked_bex_freq_16_amplitude_5_rep_6_l_N_2.0.png	 N	 l	 l	 n.a.	 3.314838e-01
7	 2	 293	 flanked	 bex	 2	 1.500000	 2.000000	 flanked_bex_freq_2_amplitude_1.5_rep_1_b_K_2.0.png	 K	 b	 r	 n.a.	 4.646766e-01
7	 2	 294	 flanked	 bex	 6	 5.000000	 2.000000	 flanked_bex_freq_6_amplitude_5_rep_0_b_N_2.0.png	 N	 b	 b	 n.a.	 3.054051e-01
7	 2	 295	 flanked	 bex	 4	 1.000000	 2.000000	 flanked_bex_freq_4_amplitude_1_rep_4_l_K_2.0.png	 K	 l	 l	 n.a.	 3.622878e-01
7	 2	 296	 flanked	 bex	 4	 3.000000	 2.000000	 flanked_bex_freq_4_amplitude_3_rep_4_t_D_2.0.png	 D	 t	 r	 n.a.	 4.443708e-01
7	 2	 297	 flanked	 bex	 32	 5.000000	 2.000000	 flanked_bex_freq_32_amplitude_5_rep_4_l_K_2.0.png	 K	 l	 l	 n.a.	 3.858285e-01
7	 2	 298	 flanked	 bex	 2	 5.000000	 2.000000	 flanked_bex_freq_2_amplitude_5_rep_2_t_N_2.0.png	 N	 t	 t	 n.a.	 3.073730e-01
7	 2	 299	 flanked	 bex	 4	 3.000000	 2.000000	 flanked_bex_freq_4_amplitude_3_rep_7_b_D_2.0.png	 D	 b	 t	 n.a.	 4.005292e-01
7	 2	 300	 flanked	 bex	 8	 1.000000	 2.000000	 flanked_bex_freq_8_amplitude_1_rep_1_t_H_2.0.png	 H	 t	 r	 n.a.	 3.519334e-01
7	 2	 301	 flanked	 bex	 6	 0.500000	 2.000000	 flanked_bex_freq_6_amplitude_0.5_rep_6_r_K_2.0.png	 K	 r	 b	 n.a.	 1.020986e+00
7	 2	 302	 flanked	 bex	 32	 1.000000	 2.000000	 flanked_bex_freq_32_amplitude_1_rep_7_t_D_2.0.png	 D	 t	 t	 n.a.	 6.099442e-01
7	 2	 303	 flanked	 bex	 32	 2.000000	 2.000000	 flanked_bex_freq_32_amplitude_2_rep_4_r_K_2.0.png	 K	 r	 t	 n.a.	 9.247916e-01
7	 2	 304	 flanked	 bex	 8	 2.000000	 2.000000	 flanked_bex_freq_8_amplitude_2_rep_2_r_H_2.0.png	 H	 r	 l	 n.a.	 7.883359e-01
7	 2	 305	 flanked	 bex	 16	 3.000000	 2.000000	 flanked_bex_freq_16_amplitude_3_rep_9_r_K_2.0.png	 K	 r	 r	 n.a.	 5.957000e-01
7	 2	 306	 flanked	 bex	 16	 5.000000	 2.000000	 flanked_bex_freq_16_amplitude_5_rep_8_t_N_2.0.png	 N	 t	 t	 n.a.	 8.812830e-01
7	 2	 307	 flanked	 bex	 32	 3.000000	 2.000000	 flanked_bex_freq_32_amplitude_3_rep_9_l_D_2.0.png	 D	 l	 t	 n.a.	 7.868513e-01
7	 2	 308	 flanked	 bex	 32	 3.000000	 2.000000	 flanked_bex_freq_32_amplitude_3_rep_8_b_K_2.0.png	 K	 b	 b	 n.a.	 6.461872e-01
7	 2	 309	 flanked	 bex	 32	 1.500000	 2.000000	 flanked_bex_freq_32_amplitude_1.5_rep_6_l_N_2.0.png	 N	 l	 b	 n.a.	 7.361893e-01
7	 2	 310	 flanked	 bex	 16	 5.000000	 2.000000	 flanked_bex_freq_16_amplitude_5_rep_9_b_D_2.0.png	 D	 b	 b	 n.a.	 4.507738e-01
7	 2	 311	 flanked	 bex	 2	 2.000000	 2.000000	 flanked_bex_freq_2_amplitude_2_rep_5_t_D_2.0.png	 D	 t	 b	 n.a.	 5.972432e-01
7	 2	 312	 flanked	 bex	 2	 1.000000	 2.000000	 flanked_bex_freq_2_amplitude_1_rep_5_r_N_2.0.png	 N	 r	 l	 n.a.	 4.917633e-01
7	 2	 313	 flanked	 bex	 4	 0.500000	 2.000000	 flanked_bex_freq_4_amplitude_0.5_rep_1_r_H_2.0.png	 H	 r	 b	 n.a.	 8.976462e-01
7	 2	 314	 flanked	 bex	 4	 2.500000	 2.000000	 flanked_bex_freq_4_amplitude_2.5_rep_8_b_D_2.0.png	 D	 b	 b	 n.a.	 7.998234e-01
7	 2	 315	 flanked	 bex	 16	 3.000000	 2.000000	 flanked_bex_freq_16_amplitude_3_rep_7_r_H_2.0.png	 H	 r	 r	 n.a.	 5.070929e-01
7	 2	 316	 flanked	 bex	 2	 3.000000	 2.000000	 flanked_bex_freq_2_amplitude_3_rep_8_b_D_2.0.png	 D	 b	 b	 n.a.	 6.386376e-01
7	 2	 317	 flanked	 bex	 16	 5.000000	 2.000000	 flanked_bex_freq_16_amplitude_5_rep_2_l_D_2.0.png	 D	 l	 l	 n.a.	 4.494693e-01
7	 2	 318	 flanked	 bex	 16	 1.000000	 2.000000	 flanked_bex_freq_16_amplitude_1_rep_2_l_K_2.0.png	 K	 l	 l	 n.a.	 7.063502e-01
7	 2	 319	 flanked	 bex	 16	 0.500000	 2.000000	 flanked_bex_freq_16_amplitude_0.5_rep_2_l_H_2.0.png	 H	 l	 b	 n.a.	 6.602203e-01
7	 2	 320	 flanked	 bex	 16	 2.500000	 2.000000	 flanked_bex_freq_16_amplitude_2.5_rep_0_l_K_2.0.png	 K	 l	 l	 n.a.	 4.231134e-01
7	 2	 321	 flanked	 bex	 8	 1.500000	 2.000000	 flanked_bex_freq_8_amplitude_1.5_rep_9_t_D_2.0.png	 D	 t	 b	 n.a.	 9.361346e-01
7	 2	 322	 flanked	 bex	 2	 1.000000	 2.000000	 flanked_bex_freq_2_amplitude_1_rep_2_l_N_2.0.png	 N	 l	 t	 n.a.	 6.735852e-01
7	 2	 323	 flanked	 bex	 32	 5.000000	 2.000000	 flanked_bex_freq_32_amplitude_5_rep_5_l_H_2.0.png	 H	 l	 l	 n.a.	 4.745244e-01
7	 2	 324	 flanked	 bex	 2	 2.000000	 2.000000	 flanked_bex_freq_2_amplitude_2_rep_8_b_K_2.0.png	 K	 b	 t	 n.a.	 9.054575e-01
7	 2	 325	 flanked	 bex	 32	 2.500000	 2.000000	 flanked_bex_freq_32_amplitude_2.5_rep_0_l_D_2.0.png	 D	 l	 r	 n.a.	 7.666906e-01
7	 2	 326	 flanked	 bex	 8	 0.500000	 2.000000	 flanked_bex_freq_8_amplitude_0.5_rep_3_t_H_2.0.png	 H	 t	 b	 n.a.	 7.647982e-01
7	 2	 327	 flanked	 bex	 4	 5.000000	 2.000000	 flanked_bex_freq_4_amplitude_5_rep_8_l_N_2.0.png	 N	 l	 l	 n.a.	 3.889404e-01
7	 2	 328	 flanked	 bex	 4	 1.500000	 2.000000	 flanked_bex_freq_4_amplitude_1.5_rep_0_b_H_2.0.png	 H	 b	 l	 n.a.	 5.417264e-01
7	 2	 329	 flanked	 bex	 2	 1.000000	 2.000000	 flanked_bex_freq_2_amplitude_1_rep_0_t_K_2.0.png	 K	 t	 b	 n.a.	 6.178930e-01
7	 2	 330	 flanked	 bex	 4	 5.000000	 2.000000	 flanked_bex_freq_4_amplitude_5_rep_9_r_N_2.0.png	 N	 r	 r	 n.a.	 3.952523e-01
7	 2	 331	 flanked	 bex	 2	 1.500000	 2.000000	 flanked_bex_freq_2_amplitude_1.5_rep_8_l_D_2.0.png	 D	 l	 t	 n.a.	 5.712595e-01
7	 2	 332	 flanked	 bex	 6	 1.000000	 2.000000	 flanked_bex_freq_6_amplitude_1_rep_0_t_K_2.0.png	 K	 t	 b	 n.a.	 6.600894e-01
7	 2	 333	 flanked	 bex	 8	 5.000000	 2.000000	 flanked_bex_freq_8_amplitude_5_rep_0_r_D_2.0.png	 D	 r	 r	 n.a.	 2.760752e-01
7	 2	 334	 flanked	 bex	 6	 2.500000	 2.000000	 flanked_bex_freq_6_amplitude_2.5_rep_4_t_K_2.0.png	 K	 t	 t	 n.a.	 4.167236e-01
7	 2	 335	 flanked	 bex	 2	 3.000000	 2.000000	 flanked_bex_freq_2_amplitude_3_rep_0_l_H_2.0.png	 H	 l	 l	 n.a.	 3.879645e-01
7	 2	 336	 flanked	 bex	 8	 1.000000	 2.000000	 flanked_bex_freq_8_amplitude_1_rep_3_t_K_2.0.png	 K	 t	 t	 n.a.	 3.613769e-01
7	 2	 337	 flanked	 bex	 6	 0.500000	 2.000000	 flanked_bex_freq_6_amplitude_0.5_rep_1_t_D_2.0.png	 D	 t	 r	 n.a.	 7.674365e-01
7	 2	 338	 flanked	 bex	 32	 0.500000	 2.000000	 flanked_bex_freq_32_amplitude_0.5_rep_5_r_K_2.0.png	 K	 r	 r	 n.a.	 5.576818e-01
7	 2	 339	 flanked	 bex	 16	 1.000000	 2.000000	 flanked_bex_freq_16_amplitude_1_rep_6_l_N_2.0.png	 N	 l	 t	 n.a.	 4.657153e-01
7	 2	 340	 flanked	 bex	 2	 1.500000	 2.000000	 flanked_bex_freq_2_amplitude_1.5_rep_3_b_N_2.0.png	 N	 b	 r	 n.a.	 4.269019e-01
7	 2	 341	 flanked	 bex	 8	 3.000000	 2.000000	 flanked_bex_freq_8_amplitude_3_rep_9_l_K_2.0.png	 K	 l	 l	 n.a.	 2.346604e-01
7	 2	 342	 flanked	 bex	 32	 2.000000	 2.000000	 flanked_bex_freq_32_amplitude_2_rep_9_l_N_2.0.png	 N	 l	 t	 n.a.	 4.290483e-01
7	 2	 343	 flanked	 bex	 6	 0.500000	 2.000000	 flanked_bex_freq_6_amplitude_0.5_rep_3_t_K_2.0.png	 K	 t	 t	 n.a.	 4.315410e-01
7	 2	 344	 flanked	 bex	 32	 0.500000	 2.000000	 flanked_bex_freq_32_amplitude_0.5_rep_4_t_H_2.0.png	 H	 t	 l	 n.a.	 4.397338e-01
7	 2	 345	 flanked	 bex	 2	 1.000000	 2.000000	 flanked_bex_freq_2_amplitude_1_rep_3_b_K_2.0.png	 K	 b	 b	 n.a.	 4.195196e-01
7	 2	 346	 flanked	 bex	 6	 3.000000	 2.000000	 flanked_bex_freq_6_amplitude_3_rep_4_t_D_2.0.png	 D	 t	 t	 n.a.	 3.703182e-01
7	 2	 347	 flanked	 bex	 8	 2.000000	 2.000000	 flanked_bex_freq_8_amplitude_2_rep_8_l_D_2.0.png	 D	 l	 l	 n.a.	 3.201611e-01
7	 2	 348	 flanked	 bex	 2	 0.500000	 2.000000	 flanked_bex_freq_2_amplitude_0.5_rep_9_r_K_2.0.png	 K	 r	 t	 n.a.	 6.249042e-01
7	 2	 349	 flanked	 bex	 32	 2.500000	 2.000000	 flanked_bex_freq_32_amplitude_2.5_rep_4_l_N_2.0.png	 N	 l	 l	 n.a.	 4.322565e-01
7	 2	 350	 flanked	 bex	 16	 2.500000	 2.000000	 flanked_bex_freq_16_amplitude_2.5_rep_6_r_D_2.0.png	 D	 r	 r	 n.a.	 3.758609e-01
7	 2	 351	 flanked	 bex	 6	 5.000000	 2.000000	 flanked_bex_freq_6_amplitude_5_rep_4_b_D_2.0.png	 D	 b	 b	 n.a.	 3.361002e-01
7	 2	 352	 flanked	 bex	 16	 5.000000	 2.000000	 flanked_bex_freq_16_amplitude_5_rep_0_t_D_2.0.png	 D	 t	 t	 n.a.	 3.136940e-01
7	 2	 353	 flanked	 bex	 8	 3.000000	 2.000000	 flanked_bex_freq_8_amplitude_3_rep_3_b_D_2.0.png	 D	 b	 b	 n.a.	 3.460745e-01
7	 2	 354	 flanked	 bex	 4	 3.000000	 2.000000	 flanked_bex_freq_4_amplitude_3_rep_5_r_D_2.0.png	 D	 r	 b	 n.a.	 4.258517e-01
7	 2	 355	 flanked	 bex	 16	 2.000000	 2.000000	 flanked_bex_freq_16_amplitude_2_rep_3_b_H_2.0.png	 H	 b	 t	 n.a.	 3.430483e-01
7	 2	 356	 flanked	 bex	 16	 2.000000	 2.000000	 flanked_bex_freq_16_amplitude_2_rep_9_l_H_2.0.png	 H	 l	 r	 n.a.	 4.111239e-01
7	 2	 357	 flanked	 bex	 2	 2.500000	 2.000000	 flanked_bex_freq_2_amplitude_2.5_rep_1_t_H_2.0.png	 H	 t	 b	 n.a.	 7.265746e-01
7	 2	 358	 flanked	 bex	 16	 1.000000	 2.000000	 flanked_bex_freq_16_amplitude_1_rep_8_l_K_2.0.png	 K	 l	 b	 n.a.	 8.110808e-01
7	 2	 359	 flanked	 bex	 8	 2.500000	 2.000000	 flanked_bex_freq_8_amplitude_2.5_rep_3_l_N_2.0.png	 N	 l	 l	 n.a.	 2.832102e-01
7	 2	 360	 flanked	 bex	 8	 0.500000	 2.000000	 flanked_bex_freq_8_amplitude_0.5_rep_1_l_H_2.0.png	 H	 l	 b	 n.a.	 5.702388e-01
7	 2	 361	 flanked	 bex	 4	 0.500000	 2.000000	 flanked_bex_freq_4_amplitude_0.5_rep_0_b_H_2.0.png	 H	 b	 b	 n.a.	 7.415940e-01
7	 2	 362	 flanked	 bex	 6	 1.500000	 2.000000	 flanked_bex_freq_6_amplitude_1.5_rep_8_b_K_2.0.png	 K	 b	 b	 n.a.	 6.130620e-01
7	 2	 363	 flanked	 bex	 2	 0.500000	 2.000000	 flanked_bex_freq_2_amplitude_0.5_rep_4_b_H_2.0.png	 H	 b	 r	 n.a.	 6.597940e-01
7	 2	 364	 flanked	 bex	 6	 1.500000	 2.000000	 flanked_bex_freq_6_amplitude_1.5_rep_0_b_N_2.0.png	 N	 b	 b	 n.a.	 4.161698e-01
7	 2	 365	 flanked	 bex	 16	 0.500000	 2.000000	 flanked_bex_freq_16_amplitude_0.5_rep_8_t_H_2.0.png	 H	 t	 r	 n.a.	 9.516204e-01
7	 2	 366	 flanked	 bex	 8	 2.500000	 2.000000	 flanked_bex_freq_8_amplitude_2.5_rep_7_b_N_2.0.png	 N	 b	 t	 n.a.	 9.513697e-01
7	 2	 367	 flanked	 bex	 32	 3.000000	 2.000000	 flanked_bex_freq_32_amplitude_3_rep_3_t_D_2.0.png	 D	 t	 b	 n.a.	 8.215423e-01
7	 2	 368	 flanked	 bex	 8	 1.000000	 2.000000	 flanked_bex_freq_8_amplitude_1_rep_5_r_N_2.0.png	 N	 r	 b	 n.a.	 8.257895e-01
7	 2	 369	 flanked	 bex	 4	 2.000000	 2.000000	 flanked_bex_freq_4_amplitude_2_rep_8_t_H_2.0.png	 H	 t	 l	 n.a.	 9.600330e-01
7	 2	 370	 flanked	 bex	 16	 1.000000	 2.000000	 flanked_bex_freq_16_amplitude_1_rep_3_l_K_2.0.png	 K	 l	 b	 n.a.	 8.609807e-01
7	 2	 371	 flanked	 bex	 8	 0.500000	 2.000000	 flanked_bex_freq_8_amplitude_0.5_rep_6_t_N_2.0.png	 N	 t	 r	 n.a.	 8.036488e-01
7	 2	 372	 flanked	 bex	 2	 1.000000	 2.000000	 flanked_bex_freq_2_amplitude_1_rep_1_b_D_2.0.png	 D	 b	 b	 n.a.	 8.385564e-01
7	 2	 373	 flanked	 bex	 8	 2.500000	 2.000000	 flanked_bex_freq_8_amplitude_2.5_rep_8_r_N_2.0.png	 N	 r	 r	 n.a.	 6.500620e-01
7	 2	 374	 flanked	 bex	 32	 1.500000	 2.000000	 flanked_bex_freq_32_amplitude_1.5_rep_4_b_H_2.0.png	 H	 b	 t	 n.a.	 6.943340e-01
7	 2	 375	 flanked	 bex	 2	 1.500000	 2.000000	 flanked_bex_freq_2_amplitude_1.5_rep_9_t_D_2.0.png	 D	 t	 r	 n.a.	 6.116542e-01
7	 2	 376	 flanked	 bex	 6	 2.000000	 2.000000	 flanked_bex_freq_6_amplitude_2_rep_8_r_D_2.0.png	 D	 r	 r	 n.a.	 5.884423e-01
7	 2	 377	 flanked	 bex	 4	 0.500000	 2.000000	 flanked_bex_freq_4_amplitude_0.5_rep_3_l_K_2.0.png	 K	 l	 r	 n.a.	 6.105747e-01
7	 2	 378	 flanked	 bex	 6	 3.000000	 2.000000	 flanked_bex_freq_6_amplitude_3_rep_7_t_K_2.0.png	 K	 t	 t	 n.a.	 4.102115e-01
7	 2	 379	 flanked	 bex	 2	 1.000000	 2.000000	 flanked_bex_freq_2_amplitude_1_rep_9_t_D_2.0.png	 D	 t	 r	 n.a.	 6.108639e-01
7	 2	 380	 flanked	 bex	 2	 3.000000	 2.000000	 flanked_bex_freq_2_amplitude_3_rep_4_r_D_2.0.png	 D	 r	 r	 n.a.	 4.352368e-01
7	 2	 381	 flanked	 bex	 4	 2.000000	 2.000000	 flanked_bex_freq_4_amplitude_2_rep_3_r_H_2.0.png	 H	 r	 r	 n.a.	 5.204895e-01
7	 2	 382	 flanked	 bex	 2	 0.500000	 2.000000	 flanked_bex_freq_2_amplitude_0.5_rep_2_b_K_2.0.png	 K	 b	 b	 n.a.	 9.967678e-01
7	 2	 383	 flanked	 bex	 16	 2.500000	 2.000000	 flanked_bex_freq_16_amplitude_2.5_rep_8_l_N_2.0.png	 N	 l	 l	 n.a.	 5.033453e-01
7	 2	 384	 flanked	 bex	 16	 1.500000	 2.000000	 flanked_bex_freq_16_amplitude_1.5_rep_5_t_H_2.0.png	 H	 t	 r	 n.a.	 4.528818e-01
7	 2	 385	 flanked	 bex	 6	 1.000000	 2.000000	 flanked_bex_freq_6_amplitude_1_rep_3_r_D_2.0.png	 D	 r	 b	 n.a.	 6.602070e-01
7	 2	 386	 flanked	 bex	 16	 1.500000	 2.000000	 flanked_bex_freq_16_amplitude_1.5_rep_0_b_K_2.0.png	 K	 b	 r	 n.a.	 4.895027e-01
7	 2	 387	 flanked	 bex	 4	 3.000000	 2.000000	 flanked_bex_freq_4_amplitude_3_rep_1_l_H_2.0.png	 H	 l	 l	 n.a.	 4.272844e-01
7	 2	 388	 flanked	 bex	 16	 3.000000	 2.000000	 flanked_bex_freq_16_amplitude_3_rep_3_r_N_2.0.png	 N	 r	 r	 n.a.	 3.642400e-01
7	 2	 389	 flanked	 bex	 32	 2.000000	 2.000000	 flanked_bex_freq_32_amplitude_2_rep_5_t_K_2.0.png	 K	 t	 b	 n.a.	 6.246173e-01
7	 2	 390	 flanked	 bex	 4	 0.500000	 2.000000	 flanked_bex_freq_4_amplitude_0.5_rep_6_l_H_2.0.png	 H	 l	 r	 n.a.	 4.068617e-01
7	 2	 391	 flanked	 bex	 16	 1.500000	 2.000000	 flanked_bex_freq_16_amplitude_1.5_rep_6_b_K_2.0.png	 K	 b	 r	 n.a.	 3.371520e-01
7	 2	 392	 flanked	 bex	 16	 1.500000	 2.000000	 flanked_bex_freq_16_amplitude_1.5_rep_8_l_N_2.0.png	 N	 l	 l	 n.a.	 3.855253e-01
7	 2	 393	 flanked	 bex	 16	 1.000000	 2.000000	 flanked_bex_freq_16_amplitude_1_rep_7_t_H_2.0.png	 H	 t	 r	 n.a.	 5.053122e-01
7	 2	 394	 flanked	 bex	 32	 1.500000	 2.000000	 flanked_bex_freq_32_amplitude_1.5_rep_3_r_D_2.0.png	 D	 r	 r	 n.a.	 4.440571e-01
7	 2	 395	 flanked	 bex	 8	 1.500000	 2.000000	 flanked_bex_freq_8_amplitude_1.5_rep_2_b_D_2.0.png	 D	 b	 l	 n.a.	 4.819830e-01
7	 2	 396	 flanked	 bex	 32	 5.000000	 2.000000	 flanked_bex_freq_32_amplitude_5_rep_0_b_N_2.0.png	 N	 b	 b	 n.a.	 6.766037e-01
7	 2	 397	 flanked	 bex	 16	 5.000000	 2.000000	 flanked_bex_freq_16_amplitude_5_rep_7_t_H_2.0.png	 H	 t	 t	 n.a.	 3.985331e-01
7	 2	 398	 flanked	 bex	 4	 1.000000	 2.000000	 flanked_bex_freq_4_amplitude_1_rep_6_r_D_2.0.png	 D	 r	 l	 n.a.	 3.806883e-01
7	 2	 399	 flanked	 bex	 32	 1.500000	 2.000000	 flanked_bex_freq_32_amplitude_1.5_rep_1_r_K_2.0.png	 K	 r	 r	 n.a.	 3.865525e-01
7	 2	 400	 flanked	 bex	 4	 1.500000	 2.000000	 flanked_bex_freq_4_amplitude_1.5_rep_6_l_N_2.0.png	 N	 l	 l	 n.a.	 5.606864e-01
7	 2	 401	 flanked	 bex	 32	 3.000000	 2.000000	 flanked_bex_freq_32_amplitude_3_rep_0_t_H_2.0.png	 H	 t	 t	 n.a.	 5.405087e-01
7	 2	 402	 flanked	 bex	 6	 1.500000	 2.000000	 flanked_bex_freq_6_amplitude_1.5_rep_4_r_H_2.0.png	 H	 r	 r	 n.a.	 4.822558e-01
7	 2	 403	 flanked	 bex	 4	 5.000000	 2.000000	 flanked_bex_freq_4_amplitude_5_rep_4_r_D_2.0.png	 D	 r	 r	 n.a.	 5.422435e-01
7	 2	 404	 flanked	 bex	 4	 5.000000	 2.000000	 flanked_bex_freq_4_amplitude_5_rep_3_t_H_2.0.png	 H	 t	 t	 n.a.	 7.005937e-01
7	 2	 405	 flanked	 bex	 32	 1.000000	 2.000000	 flanked_bex_freq_32_amplitude_1_rep_8_t_K_2.0.png	 K	 t	 r	 n.a.	 6.129776e-01
7	 2	 406	 flanked	 bex	 6	 3.000000	 2.000000	 flanked_bex_freq_6_amplitude_3_rep_0_b_K_2.0.png	 K	 b	 b	 n.a.	 4.015468e-01
7	 2	 407	 flanked	 bex	 16	 3.000000	 2.000000	 flanked_bex_freq_16_amplitude_3_rep_8_b_H_2.0.png	 H	 b	 b	 n.a.	 6.842904e-01
7	 2	 408	 flanked	 bex	 6	 1.000000	 2.000000	 flanked_bex_freq_6_amplitude_1_rep_2_l_H_2.0.png	 H	 l	 b	 n.a.	 5.918178e-01
7	 2	 409	 flanked	 bex	 2	 0.500000	 2.000000	 flanked_bex_freq_2_amplitude_0.5_rep_8_r_N_2.0.png	 N	 r	 r	 n.a.	 6.249602e-01
7	 2	 410	 flanked	 bex	 2	 2.000000	 2.000000	 flanked_bex_freq_2_amplitude_2_rep_4_b_N_2.0.png	 N	 b	 b	 n.a.	 9.298313e-01
7	 2	 411	 flanked	 bex	 32	 5.000000	 2.000000	 flanked_bex_freq_32_amplitude_5_rep_9_l_D_2.0.png	 D	 l	 l	 n.a.	 7.997396e-01
7	 2	 412	 flanked	 bex	 32	 1.000000	 2.000000	 flanked_bex_freq_32_amplitude_1_rep_6_t_D_2.0.png	 D	 t	 b	 n.a.	 8.420765e-01
7	 2	 413	 flanked	 bex	 4	 2.500000	 2.000000	 flanked_bex_freq_4_amplitude_2.5_rep_3_t_D_2.0.png	 D	 t	 r	 n.a.	 5.994654e-01
7	 2	 414	 flanked	 bex	 16	 5.000000	 2.000000	 flanked_bex_freq_16_amplitude_5_rep_1_t_K_2.0.png	 K	 t	 t	 n.a.	 3.628949e-01
7	 2	 415	 flanked	 bex	 2	 5.000000	 2.000000	 flanked_bex_freq_2_amplitude_5_rep_1_r_N_2.0.png	 N	 r	 b	 n.a.	 6.524062e-01
7	 2	 416	 flanked	 bex	 6	 1.000000	 2.000000	 flanked_bex_freq_6_amplitude_1_rep_8_b_D_2.0.png	 D	 b	 t	 n.a.	 4.292278e-01
7	 2	 417	 flanked	 bex	 4	 1.500000	 2.000000	 flanked_bex_freq_4_amplitude_1.5_rep_2_b_K_2.0.png	 K	 b	 l	 n.a.	 3.073071e-01
7	 2	 418	 flanked	 bex	 16	 0.500000	 2.000000	 flanked_bex_freq_16_amplitude_0.5_rep_5_r_N_2.0.png	 N	 r	 t	 n.a.	 5.312784e-01
7	 2	 419	 flanked	 bex	 4	 5.000000	 2.000000	 flanked_bex_freq_4_amplitude_5_rep_7_r_H_2.0.png	 H	 r	 r	 n.a.	 3.124649e-01
7	 2	 420	 flanked	 bex	 4	 2.000000	 2.000000	 flanked_bex_freq_4_amplitude_2_rep_2_l_K_2.0.png	 K	 l	 l	 n.a.	 5.165301e-01
