subject	 session	 trial	 flanked	 distortion	 freq	 amplitude	 spacing	 im_name	 targ_letter	 targ_pos	 response	 eyemovement	 RT
5	 7	 1	 unflanked	 rf	 3	 0.165000	 0.000000	 unflanked_rf_freq_3_amplitude_0.165_rep_4_r_N.png	 N	 r	 r	 n.a.	 4.987625e-01
5	 7	 2	 unflanked	 rf	 5	 0.007500	 0.000000	 unflanked_rf_freq_5_amplitude_0.0075_rep_9_t_K.png	 K	 t	 t	 n.a.	 5.300870e-01
5	 7	 3	 unflanked	 rf	 4	 0.010000	 0.000000	 unflanked_rf_freq_4_amplitude_0.01_rep_3_t_D.png	 D	 t	 l	 n.a.	 8.439457e-01
5	 7	 4	 unflanked	 rf	 4	 0.007500	 0.000000	 unflanked_rf_freq_4_amplitude_0.0075_rep_5_t_N.png	 N	 t	 r	 n.a.	 1.255986e+00
5	 7	 5	 unflanked	 rf	 5	 0.113300	 0.000000	 unflanked_rf_freq_5_amplitude_0.1133_rep_2_b_N.png	 N	 b	 b	 n.a.	 5.246749e-01
5	 7	 6	 unflanked	 rf	 5	 0.165000	 0.000000	 unflanked_rf_freq_5_amplitude_0.165_rep_7_t_K.png	 K	 t	 t	 n.a.	 5.883583e-01
5	 7	 7	 unflanked	 rf	 4	 0.007500	 0.000000	 unflanked_rf_freq_4_amplitude_0.0075_rep_7_t_N.png	 N	 t	 t	 n.a.	 1.172497e+00
5	 7	 8	 unflanked	 rf	 8	 0.216700	 0.000000	 unflanked_rf_freq_8_amplitude_0.2167_rep_1_l_N.png	 N	 l	 l	 n.a.	 3.020758e-01
5	 7	 9	 unflanked	 rf	 12	 0.216700	 0.000000	 unflanked_rf_freq_12_amplitude_0.2167_rep_9_t_D.png	 D	 t	 t	 n.a.	 4.379143e-01
5	 7	 10	 unflanked	 rf	 8	 0.061700	 0.000000	 unflanked_rf_freq_8_amplitude_0.0617_rep_1_l_H.png	 H	 l	 l	 n.a.	 5.679401e-01
5	 7	 11	 unflanked	 rf	 2	 0.268300	 0.000000	 unflanked_rf_freq_2_amplitude_0.2683_rep_9_t_H.png	 H	 t	 t	 n.a.	 4.679981e-01
5	 7	 12	 unflanked	 rf	 12	 0.268300	 0.000000	 unflanked_rf_freq_12_amplitude_0.2683_rep_4_r_D.png	 D	 r	 r	 n.a.	 3.052479e-01
5	 7	 13	 unflanked	 rf	 12	 0.061700	 0.000000	 unflanked_rf_freq_12_amplitude_0.0617_rep_6_b_N.png	 N	 b	 r	 n.a.	 9.006302e-01
5	 7	 14	 unflanked	 rf	 3	 0.010000	 0.000000	 unflanked_rf_freq_3_amplitude_0.01_rep_6_r_K.png	 K	 r	 r	 n.a.	 4.872520e-01
5	 7	 15	 unflanked	 rf	 4	 0.268300	 0.000000	 unflanked_rf_freq_4_amplitude_0.2683_rep_2_l_N.png	 N	 l	 l	 n.a.	 3.355114e-01
5	 7	 16	 unflanked	 rf	 5	 0.113300	 0.000000	 unflanked_rf_freq_5_amplitude_0.1133_rep_0_t_H.png	 H	 t	 t	 n.a.	 5.753014e-01
5	 7	 17	 unflanked	 rf	 5	 0.216700	 0.000000	 unflanked_rf_freq_5_amplitude_0.2167_rep_7_r_N.png	 N	 r	 r	 n.a.	 3.167238e-01
5	 7	 18	 unflanked	 rf	 5	 0.010000	 0.000000	 unflanked_rf_freq_5_amplitude_0.01_rep_7_l_N.png	 N	 l	 l	 n.a.	 6.617850e-01
5	 7	 19	 unflanked	 rf	 2	 0.268300	 0.000000	 unflanked_rf_freq_2_amplitude_0.2683_rep_7_t_N.png	 N	 t	 t	 n.a.	 5.141022e-01
5	 7	 20	 unflanked	 rf	 5	 0.268300	 0.000000	 unflanked_rf_freq_5_amplitude_0.2683_rep_7_t_K.png	 K	 t	 t	 n.a.	 4.453291e-01
5	 7	 21	 unflanked	 rf	 12	 0.268300	 0.000000	 unflanked_rf_freq_12_amplitude_0.2683_rep_0_b_K.png	 K	 b	 b	 n.a.	 4.531234e-01
5	 7	 22	 unflanked	 rf	 2	 0.061700	 0.000000	 unflanked_rf_freq_2_amplitude_0.0617_rep_2_r_D.png	 D	 r	 l	 n.a.	 6.529722e-01
5	 7	 23	 unflanked	 rf	 8	 0.165000	 0.000000	 unflanked_rf_freq_8_amplitude_0.165_rep_6_b_H.png	 H	 b	 b	 n.a.	 3.855614e-01
5	 7	 24	 unflanked	 rf	 8	 0.010000	 0.000000	 unflanked_rf_freq_8_amplitude_0.01_rep_1_r_H.png	 H	 r	 t	 n.a.	 8.577781e-01
5	 7	 25	 unflanked	 rf	 4	 0.061700	 0.000000	 unflanked_rf_freq_4_amplitude_0.0617_rep_5_l_N.png	 N	 l	 l	 n.a.	 3.506049e-01
5	 7	 26	 unflanked	 rf	 5	 0.268300	 0.000000	 unflanked_rf_freq_5_amplitude_0.2683_rep_6_l_D.png	 D	 l	 l	 n.a.	 3.299946e-01
5	 7	 27	 unflanked	 rf	 3	 0.268300	 0.000000	 unflanked_rf_freq_3_amplitude_0.2683_rep_6_r_H.png	 H	 r	 r	 n.a.	 4.259875e-01
5	 7	 28	 unflanked	 rf	 12	 0.010000	 0.000000	 unflanked_rf_freq_12_amplitude_0.01_rep_1_r_D.png	 D	 r	 l	 n.a.	 5.668965e-01
5	 7	 29	 unflanked	 rf	 3	 0.113300	 0.000000	 unflanked_rf_freq_3_amplitude_0.1133_rep_4_l_D.png	 D	 l	 b	 n.a.	 9.316613e-01
5	 7	 30	 unflanked	 rf	 3	 0.010000	 0.000000	 unflanked_rf_freq_3_amplitude_0.01_rep_4_b_K.png	 K	 b	 t	 n.a.	 4.689290e-01
5	 7	 31	 unflanked	 rf	 12	 0.165000	 0.000000	 unflanked_rf_freq_12_amplitude_0.165_rep_7_b_K.png	 K	 b	 b	 n.a.	 3.209192e-01
5	 7	 32	 unflanked	 rf	 2	 0.007500	 0.000000	 unflanked_rf_freq_2_amplitude_0.0075_rep_0_t_N.png	 N	 t	 r	 n.a.	 1.181662e+00
5	 7	 33	 unflanked	 rf	 3	 0.113300	 0.000000	 unflanked_rf_freq_3_amplitude_0.1133_rep_3_b_N.png	 N	 b	 l	 n.a.	 4.553595e-01
5	 7	 34	 unflanked	 rf	 3	 0.010000	 0.000000	 unflanked_rf_freq_3_amplitude_0.01_rep_3_t_N.png	 N	 t	 b	 n.a.	 5.610777e-01
5	 7	 35	 unflanked	 rf	 4	 0.216700	 0.000000	 unflanked_rf_freq_4_amplitude_0.2167_rep_6_b_D.png	 D	 b	 b	 n.a.	 4.517548e-01
5	 7	 36	 unflanked	 rf	 2	 0.007500	 0.000000	 unflanked_rf_freq_2_amplitude_0.0075_rep_7_r_H.png	 H	 r	 l	 n.a.	 3.599282e-01
5	 7	 37	 unflanked	 rf	 5	 0.216700	 0.000000	 unflanked_rf_freq_5_amplitude_0.2167_rep_0_r_H.png	 H	 r	 r	 n.a.	 3.534778e-01
5	 7	 38	 unflanked	 rf	 5	 0.007500	 0.000000	 unflanked_rf_freq_5_amplitude_0.0075_rep_8_r_K.png	 K	 r	 r	 n.a.	 9.260162e-01
5	 7	 39	 unflanked	 rf	 8	 0.268300	 0.000000	 unflanked_rf_freq_8_amplitude_0.2683_rep_9_t_K.png	 K	 t	 t	 n.a.	 5.061152e-01
5	 7	 40	 unflanked	 rf	 12	 0.268300	 0.000000	 unflanked_rf_freq_12_amplitude_0.2683_rep_7_r_H.png	 H	 r	 r	 n.a.	 3.330632e-01
5	 7	 41	 unflanked	 rf	 8	 0.113300	 0.000000	 unflanked_rf_freq_8_amplitude_0.1133_rep_0_r_H.png	 H	 r	 r	 n.a.	 2.988171e-01
5	 7	 42	 unflanked	 rf	 3	 0.007500	 0.000000	 unflanked_rf_freq_3_amplitude_0.0075_rep_8_r_N.png	 N	 r	 t	 n.a.	 8.221698e-01
5	 7	 43	 unflanked	 rf	 4	 0.010000	 0.000000	 unflanked_rf_freq_4_amplitude_0.01_rep_8_t_N.png	 N	 t	 r	 n.a.	 4.990201e-01
5	 7	 44	 unflanked	 rf	 12	 0.165000	 0.000000	 unflanked_rf_freq_12_amplitude_0.165_rep_5_t_N.png	 N	 t	 t	 n.a.	 4.189412e-01
5	 7	 45	 unflanked	 rf	 2	 0.268300	 0.000000	 unflanked_rf_freq_2_amplitude_0.2683_rep_6_t_D.png	 D	 t	 t	 n.a.	 5.587401e-01
5	 7	 46	 unflanked	 rf	 2	 0.007500	 0.000000	 unflanked_rf_freq_2_amplitude_0.0075_rep_3_r_N.png	 N	 r	 b	 n.a.	 6.808892e-01
5	 7	 47	 unflanked	 rf	 2	 0.165000	 0.000000	 unflanked_rf_freq_2_amplitude_0.165_rep_5_r_K.png	 K	 r	 r	 n.a.	 4.118610e-01
5	 7	 48	 unflanked	 rf	 4	 0.165000	 0.000000	 unflanked_rf_freq_4_amplitude_0.165_rep_2_t_K.png	 K	 t	 t	 n.a.	 4.107072e-01
5	 7	 49	 unflanked	 rf	 4	 0.061700	 0.000000	 unflanked_rf_freq_4_amplitude_0.0617_rep_8_r_N.png	 N	 r	 t	 n.a.	 7.606269e-01
5	 7	 50	 unflanked	 rf	 4	 0.061700	 0.000000	 unflanked_rf_freq_4_amplitude_0.0617_rep_9_b_D.png	 D	 b	 b	 n.a.	 4.227461e-01
5	 7	 51	 unflanked	 rf	 2	 0.007500	 0.000000	 unflanked_rf_freq_2_amplitude_0.0075_rep_9_t_H.png	 H	 t	 r	 n.a.	 4.732235e-01
5	 7	 52	 unflanked	 rf	 3	 0.007500	 0.000000	 unflanked_rf_freq_3_amplitude_0.0075_rep_0_l_D.png	 D	 l	 b	 n.a.	 3.242462e-01
5	 7	 53	 unflanked	 rf	 8	 0.268300	 0.000000	 unflanked_rf_freq_8_amplitude_0.2683_rep_6_b_D.png	 D	 b	 b	 n.a.	 2.721713e-01
5	 7	 54	 unflanked	 rf	 8	 0.216700	 0.000000	 unflanked_rf_freq_8_amplitude_0.2167_rep_8_t_D.png	 D	 t	 t	 n.a.	 4.222797e-01
5	 7	 55	 unflanked	 rf	 8	 0.216700	 0.000000	 unflanked_rf_freq_8_amplitude_0.2167_rep_2_l_K.png	 K	 l	 l	 n.a.	 2.460921e-01
5	 7	 56	 unflanked	 rf	 5	 0.165000	 0.000000	 unflanked_rf_freq_5_amplitude_0.165_rep_3_b_N.png	 N	 b	 r	 n.a.	 1.032455e+00
5	 7	 57	 unflanked	 rf	 12	 0.268300	 0.000000	 unflanked_rf_freq_12_amplitude_0.2683_rep_1_b_N.png	 N	 b	 b	 n.a.	 2.036796e-01
5	 7	 58	 unflanked	 rf	 3	 0.010000	 0.000000	 unflanked_rf_freq_3_amplitude_0.01_rep_8_l_D.png	 D	 l	 l	 n.a.	 7.502833e-01
5	 7	 59	 unflanked	 rf	 8	 0.268300	 0.000000	 unflanked_rf_freq_8_amplitude_0.2683_rep_5_b_N.png	 N	 b	 b	 n.a.	 2.621949e-01
5	 7	 60	 unflanked	 rf	 8	 0.007500	 0.000000	 unflanked_rf_freq_8_amplitude_0.0075_rep_2_r_N.png	 N	 r	 b	 n.a.	 8.014380e-01
5	 7	 61	 unflanked	 rf	 5	 0.113300	 0.000000	 unflanked_rf_freq_5_amplitude_0.1133_rep_6_l_H.png	 H	 l	 l	 n.a.	 3.382847e-01
5	 7	 62	 unflanked	 rf	 2	 0.061700	 0.000000	 unflanked_rf_freq_2_amplitude_0.0617_rep_1_r_N.png	 N	 r	 r	 n.a.	 5.807327e-01
5	 7	 63	 unflanked	 rf	 8	 0.061700	 0.000000	 unflanked_rf_freq_8_amplitude_0.0617_rep_3_l_D.png	 D	 l	 l	 n.a.	 3.641407e-01
5	 7	 64	 unflanked	 rf	 3	 0.216700	 0.000000	 unflanked_rf_freq_3_amplitude_0.2167_rep_0_r_D.png	 D	 r	 r	 n.a.	 2.678451e-01
5	 7	 65	 unflanked	 rf	 8	 0.268300	 0.000000	 unflanked_rf_freq_8_amplitude_0.2683_rep_4_r_H.png	 H	 r	 r	 n.a.	 2.807595e-01
5	 7	 66	 unflanked	 rf	 3	 0.113300	 0.000000	 unflanked_rf_freq_3_amplitude_0.1133_rep_0_t_N.png	 N	 t	 r	 n.a.	 7.530424e-01
5	 7	 67	 unflanked	 rf	 5	 0.010000	 0.000000	 unflanked_rf_freq_5_amplitude_0.01_rep_9_b_K.png	 K	 b	 b	 n.a.	 3.857571e-01
5	 7	 68	 unflanked	 rf	 8	 0.113300	 0.000000	 unflanked_rf_freq_8_amplitude_0.1133_rep_5_l_H.png	 H	 l	 l	 n.a.	 5.042746e-01
5	 7	 69	 unflanked	 rf	 2	 0.216700	 0.000000	 unflanked_rf_freq_2_amplitude_0.2167_rep_7_t_H.png	 H	 t	 t	 n.a.	 4.996944e-01
5	 7	 70	 unflanked	 rf	 12	 0.268300	 0.000000	 unflanked_rf_freq_12_amplitude_0.2683_rep_2_l_H.png	 H	 l	 l	 n.a.	 2.566023e-01
5	 7	 71	 unflanked	 rf	 8	 0.061700	 0.000000	 unflanked_rf_freq_8_amplitude_0.0617_rep_9_r_N.png	 N	 r	 r	 n.a.	 5.517968e-01
5	 7	 72	 unflanked	 rf	 8	 0.113300	 0.000000	 unflanked_rf_freq_8_amplitude_0.1133_rep_1_t_H.png	 H	 t	 t	 n.a.	 4.100779e-01
5	 7	 73	 unflanked	 rf	 2	 0.268300	 0.000000	 unflanked_rf_freq_2_amplitude_0.2683_rep_2_t_H.png	 H	 t	 t	 n.a.	 5.695594e-01
5	 7	 74	 unflanked	 rf	 12	 0.007500	 0.000000	 unflanked_rf_freq_12_amplitude_0.0075_rep_1_b_N.png	 N	 b	 r	 n.a.	 9.374607e-01
5	 7	 75	 unflanked	 rf	 5	 0.061700	 0.000000	 unflanked_rf_freq_5_amplitude_0.0617_rep_8_t_N.png	 N	 t	 t	 n.a.	 4.547338e-01
5	 7	 76	 unflanked	 rf	 8	 0.010000	 0.000000	 unflanked_rf_freq_8_amplitude_0.01_rep_2_r_N.png	 N	 r	 l	 n.a.	 1.069772e+00
5	 7	 77	 unflanked	 rf	 3	 0.010000	 0.000000	 unflanked_rf_freq_3_amplitude_0.01_rep_5_t_K.png	 K	 t	 t	 n.a.	 3.846873e-01
5	 7	 78	 unflanked	 rf	 2	 0.007500	 0.000000	 unflanked_rf_freq_2_amplitude_0.0075_rep_6_r_K.png	 K	 r	 r	 n.a.	 3.630171e-01
5	 7	 79	 unflanked	 rf	 8	 0.010000	 0.000000	 unflanked_rf_freq_8_amplitude_0.01_rep_4_r_H.png	 H	 r	 b	 n.a.	 5.811346e-01
5	 7	 80	 unflanked	 rf	 12	 0.061700	 0.000000	 unflanked_rf_freq_12_amplitude_0.0617_rep_7_b_D.png	 D	 b	 r	 n.a.	 4.326522e-01
5	 7	 81	 unflanked	 rf	 5	 0.113300	 0.000000	 unflanked_rf_freq_5_amplitude_0.1133_rep_9_r_D.png	 D	 r	 r	 n.a.	 3.196694e-01
5	 7	 82	 unflanked	 rf	 12	 0.216700	 0.000000	 unflanked_rf_freq_12_amplitude_0.2167_rep_8_b_N.png	 N	 b	 b	 n.a.	 4.732405e-01
5	 7	 83	 unflanked	 rf	 2	 0.007500	 0.000000	 unflanked_rf_freq_2_amplitude_0.0075_rep_8_t_H.png	 H	 t	 r	 n.a.	 5.207128e-01
5	 7	 84	 unflanked	 rf	 4	 0.010000	 0.000000	 unflanked_rf_freq_4_amplitude_0.01_rep_0_b_N.png	 N	 b	 r	 n.a.	 4.862459e-01
5	 7	 85	 unflanked	 rf	 12	 0.007500	 0.000000	 unflanked_rf_freq_12_amplitude_0.0075_rep_5_b_K.png	 K	 b	 t	 n.a.	 6.397768e-01
5	 7	 86	 unflanked	 rf	 5	 0.007500	 0.000000	 unflanked_rf_freq_5_amplitude_0.0075_rep_3_t_H.png	 H	 t	 b	 n.a.	 6.090432e-01
5	 7	 87	 unflanked	 rf	 8	 0.165000	 0.000000	 unflanked_rf_freq_8_amplitude_0.165_rep_0_r_N.png	 N	 r	 r	 n.a.	 3.524776e-01
5	 7	 88	 unflanked	 rf	 3	 0.268300	 0.000000	 unflanked_rf_freq_3_amplitude_0.2683_rep_7_r_K.png	 K	 r	 r	 n.a.	 3.518064e-01
5	 7	 89	 unflanked	 rf	 8	 0.113300	 0.000000	 unflanked_rf_freq_8_amplitude_0.1133_rep_8_t_H.png	 H	 t	 t	 n.a.	 3.862683e-01
5	 7	 90	 unflanked	 rf	 2	 0.216700	 0.000000	 unflanked_rf_freq_2_amplitude_0.2167_rep_0_b_N.png	 N	 b	 t	 n.a.	 4.557847e-01
5	 7	 91	 unflanked	 rf	 3	 0.113300	 0.000000	 unflanked_rf_freq_3_amplitude_0.1133_rep_2_r_H.png	 H	 r	 r	 n.a.	 3.544103e-01
5	 7	 92	 unflanked	 rf	 4	 0.113300	 0.000000	 unflanked_rf_freq_4_amplitude_0.1133_rep_6_t_N.png	 N	 t	 t	 n.a.	 5.257849e-01
5	 7	 93	 unflanked	 rf	 4	 0.007500	 0.000000	 unflanked_rf_freq_4_amplitude_0.0075_rep_4_b_K.png	 K	 b	 l	 n.a.	 1.104767e+00
5	 7	 94	 unflanked	 rf	 8	 0.216700	 0.000000	 unflanked_rf_freq_8_amplitude_0.2167_rep_0_t_K.png	 K	 t	 t	 n.a.	 4.746924e-01
5	 7	 95	 unflanked	 rf	 8	 0.061700	 0.000000	 unflanked_rf_freq_8_amplitude_0.0617_rep_0_b_H.png	 H	 b	 b	 n.a.	 4.899511e-01
5	 7	 96	 unflanked	 rf	 12	 0.268300	 0.000000	 unflanked_rf_freq_12_amplitude_0.2683_rep_8_r_D.png	 D	 r	 r	 n.a.	 3.494913e-01
5	 7	 97	 unflanked	 rf	 5	 0.113300	 0.000000	 unflanked_rf_freq_5_amplitude_0.1133_rep_1_l_K.png	 K	 l	 l	 n.a.	 4.910007e-01
5	 7	 98	 unflanked	 rf	 4	 0.216700	 0.000000	 unflanked_rf_freq_4_amplitude_0.2167_rep_7_t_N.png	 N	 t	 t	 n.a.	 4.101275e-01
5	 7	 99	 unflanked	 rf	 2	 0.010000	 0.000000	 unflanked_rf_freq_2_amplitude_0.01_rep_3_t_N.png	 N	 t	 b	 n.a.	 5.939957e-01
5	 7	 100	 unflanked	 rf	 4	 0.007500	 0.000000	 unflanked_rf_freq_4_amplitude_0.0075_rep_2_r_N.png	 N	 r	 t	 n.a.	 4.755997e-01
5	 7	 101	 unflanked	 rf	 3	 0.216700	 0.000000	 unflanked_rf_freq_3_amplitude_0.2167_rep_5_b_D.png	 D	 b	 b	 n.a.	 4.636501e-01
5	 7	 102	 unflanked	 rf	 4	 0.007500	 0.000000	 unflanked_rf_freq_4_amplitude_0.0075_rep_9_b_N.png	 N	 b	 t	 n.a.	 8.455395e-01
5	 7	 103	 unflanked	 rf	 2	 0.113300	 0.000000	 unflanked_rf_freq_2_amplitude_0.1133_rep_2_r_D.png	 D	 r	 r	 n.a.	 3.877576e-01
5	 7	 104	 unflanked	 rf	 8	 0.007500	 0.000000	 unflanked_rf_freq_8_amplitude_0.0075_rep_7_b_D.png	 D	 b	 b	 n.a.	 5.296655e-01
5	 7	 105	 unflanked	 rf	 5	 0.061700	 0.000000	 unflanked_rf_freq_5_amplitude_0.0617_rep_1_b_H.png	 H	 b	 r	 n.a.	 1.149432e+00
5	 7	 106	 unflanked	 rf	 5	 0.010000	 0.000000	 unflanked_rf_freq_5_amplitude_0.01_rep_6_t_D.png	 D	 t	 t	 n.a.	 5.335297e-01
5	 7	 107	 unflanked	 rf	 4	 0.165000	 0.000000	 unflanked_rf_freq_4_amplitude_0.165_rep_1_b_H.png	 H	 b	 b	 n.a.	 5.107450e-01
5	 7	 108	 unflanked	 rf	 3	 0.061700	 0.000000	 unflanked_rf_freq_3_amplitude_0.0617_rep_8_t_D.png	 D	 t	 t	 n.a.	 5.706320e-01
5	 7	 109	 unflanked	 rf	 4	 0.113300	 0.000000	 unflanked_rf_freq_4_amplitude_0.1133_rep_8_l_H.png	 H	 l	 l	 n.a.	 3.904905e-01
5	 7	 110	 unflanked	 rf	 4	 0.268300	 0.000000	 unflanked_rf_freq_4_amplitude_0.2683_rep_1_l_N.png	 N	 l	 l	 n.a.	 3.210967e-01
5	 7	 111	 unflanked	 rf	 2	 0.268300	 0.000000	 unflanked_rf_freq_2_amplitude_0.2683_rep_1_l_N.png	 N	 l	 l	 n.a.	 2.880076e-01
5	 7	 112	 unflanked	 rf	 2	 0.216700	 0.000000	 unflanked_rf_freq_2_amplitude_0.2167_rep_6_t_H.png	 H	 t	 t	 n.a.	 3.904366e-01
5	 7	 113	 unflanked	 rf	 2	 0.007500	 0.000000	 unflanked_rf_freq_2_amplitude_0.0075_rep_2_l_H.png	 H	 l	 b	 n.a.	 9.241520e-01
5	 7	 114	 unflanked	 rf	 3	 0.007500	 0.000000	 unflanked_rf_freq_3_amplitude_0.0075_rep_7_t_H.png	 H	 t	 l	 n.a.	 3.981182e-01
5	 7	 115	 unflanked	 rf	 12	 0.010000	 0.000000	 unflanked_rf_freq_12_amplitude_0.01_rep_8_b_D.png	 D	 b	 r	 n.a.	 8.433792e-01
5	 7	 116	 unflanked	 rf	 5	 0.061700	 0.000000	 unflanked_rf_freq_5_amplitude_0.0617_rep_0_r_H.png	 H	 r	 t	 n.a.	 7.842366e-01
5	 7	 117	 unflanked	 rf	 5	 0.268300	 0.000000	 unflanked_rf_freq_5_amplitude_0.2683_rep_5_l_N.png	 N	 l	 l	 n.a.	 3.320875e-01
5	 7	 118	 unflanked	 rf	 2	 0.113300	 0.000000	 unflanked_rf_freq_2_amplitude_0.1133_rep_3_b_K.png	 K	 b	 b	 n.a.	 5.911573e-01
5	 7	 119	 unflanked	 rf	 5	 0.268300	 0.000000	 unflanked_rf_freq_5_amplitude_0.2683_rep_0_r_N.png	 N	 r	 r	 n.a.	 3.610380e-01
5	 7	 120	 unflanked	 rf	 3	 0.268300	 0.000000	 unflanked_rf_freq_3_amplitude_0.2683_rep_0_r_D.png	 D	 r	 r	 n.a.	 3.578588e-01
5	 7	 121	 unflanked	 rf	 12	 0.268300	 0.000000	 unflanked_rf_freq_12_amplitude_0.2683_rep_9_l_K.png	 K	 l	 l	 n.a.	 2.875754e-01
5	 7	 122	 unflanked	 rf	 8	 0.010000	 0.000000	 unflanked_rf_freq_8_amplitude_0.01_rep_5_r_H.png	 H	 r	 t	 n.a.	 6.996442e-01
5	 7	 123	 unflanked	 rf	 2	 0.216700	 0.000000	 unflanked_rf_freq_2_amplitude_0.2167_rep_3_r_D.png	 D	 r	 r	 n.a.	 3.243320e-01
5	 7	 124	 unflanked	 rf	 4	 0.268300	 0.000000	 unflanked_rf_freq_4_amplitude_0.2683_rep_3_r_D.png	 D	 r	 r	 n.a.	 2.672321e-01
5	 7	 125	 unflanked	 rf	 3	 0.165000	 0.000000	 unflanked_rf_freq_3_amplitude_0.165_rep_9_l_N.png	 N	 l	 l	 n.a.	 3.260170e-01
5	 7	 126	 unflanked	 rf	 5	 0.216700	 0.000000	 unflanked_rf_freq_5_amplitude_0.2167_rep_5_t_N.png	 N	 t	 t	 n.a.	 3.941560e-01
5	 7	 127	 unflanked	 rf	 12	 0.010000	 0.000000	 unflanked_rf_freq_12_amplitude_0.01_rep_6_r_K.png	 K	 r	 r	 n.a.	 4.661320e-01
5	 7	 128	 unflanked	 rf	 3	 0.061700	 0.000000	 unflanked_rf_freq_3_amplitude_0.0617_rep_4_l_N.png	 N	 l	 l	 n.a.	 4.780030e-01
5	 7	 129	 unflanked	 rf	 4	 0.216700	 0.000000	 unflanked_rf_freq_4_amplitude_0.2167_rep_9_l_N.png	 N	 l	 l	 n.a.	 4.304477e-01
5	 7	 130	 unflanked	 rf	 8	 0.268300	 0.000000	 unflanked_rf_freq_8_amplitude_0.2683_rep_3_b_N.png	 N	 b	 b	 n.a.	 3.527453e-01
5	 7	 131	 unflanked	 rf	 8	 0.010000	 0.000000	 unflanked_rf_freq_8_amplitude_0.01_rep_8_b_D.png	 D	 b	 t	 n.a.	 6.862888e-01
5	 7	 132	 unflanked	 rf	 3	 0.061700	 0.000000	 unflanked_rf_freq_3_amplitude_0.0617_rep_5_b_H.png	 H	 b	 r	 n.a.	 4.421075e-01
5	 7	 133	 unflanked	 rf	 4	 0.061700	 0.000000	 unflanked_rf_freq_4_amplitude_0.0617_rep_7_r_D.png	 D	 r	 l	 n.a.	 5.628822e-01
5	 7	 134	 unflanked	 rf	 2	 0.010000	 0.000000	 unflanked_rf_freq_2_amplitude_0.01_rep_0_r_H.png	 H	 r	 t	 n.a.	 7.366075e-01
5	 7	 135	 unflanked	 rf	 5	 0.165000	 0.000000	 unflanked_rf_freq_5_amplitude_0.165_rep_0_t_D.png	 D	 t	 t	 n.a.	 5.202580e-01
5	 7	 136	 unflanked	 rf	 4	 0.165000	 0.000000	 unflanked_rf_freq_4_amplitude_0.165_rep_5_b_H.png	 H	 b	 b	 n.a.	 4.289178e-01
5	 7	 137	 unflanked	 rf	 8	 0.216700	 0.000000	 unflanked_rf_freq_8_amplitude_0.2167_rep_7_l_N.png	 N	 l	 l	 n.a.	 2.903017e-01
5	 7	 138	 unflanked	 rf	 8	 0.061700	 0.000000	 unflanked_rf_freq_8_amplitude_0.0617_rep_6_b_D.png	 D	 b	 r	 n.a.	 8.746912e-01
5	 7	 139	 unflanked	 rf	 3	 0.216700	 0.000000	 unflanked_rf_freq_3_amplitude_0.2167_rep_7_b_K.png	 K	 b	 b	 n.a.	 3.547321e-01
5	 7	 140	 unflanked	 rf	 2	 0.061700	 0.000000	 unflanked_rf_freq_2_amplitude_0.0617_rep_8_t_K.png	 K	 t	 t	 n.a.	 5.811944e-01
5	 7	 141	 unflanked	 rf	 12	 0.165000	 0.000000	 unflanked_rf_freq_12_amplitude_0.165_rep_1_l_H.png	 H	 l	 l	 n.a.	 2.807859e-01
5	 7	 142	 unflanked	 rf	 2	 0.216700	 0.000000	 unflanked_rf_freq_2_amplitude_0.2167_rep_5_r_H.png	 H	 r	 r	 n.a.	 3.055140e-01
5	 7	 143	 unflanked	 rf	 2	 0.061700	 0.000000	 unflanked_rf_freq_2_amplitude_0.0617_rep_3_b_N.png	 N	 b	 b	 n.a.	 8.399509e-01
5	 7	 144	 unflanked	 rf	 3	 0.216700	 0.000000	 unflanked_rf_freq_3_amplitude_0.2167_rep_6_l_D.png	 D	 l	 l	 n.a.	 2.883158e-01
5	 7	 145	 unflanked	 rf	 3	 0.165000	 0.000000	 unflanked_rf_freq_3_amplitude_0.165_rep_7_r_D.png	 D	 r	 r	 n.a.	 3.061898e-01
5	 7	 146	 unflanked	 rf	 8	 0.010000	 0.000000	 unflanked_rf_freq_8_amplitude_0.01_rep_7_t_D.png	 D	 t	 b	 n.a.	 7.532194e-01
5	 7	 147	 unflanked	 rf	 3	 0.216700	 0.000000	 unflanked_rf_freq_3_amplitude_0.2167_rep_4_t_N.png	 N	 t	 t	 n.a.	 4.590685e-01
5	 7	 148	 unflanked	 rf	 12	 0.165000	 0.000000	 unflanked_rf_freq_12_amplitude_0.165_rep_0_b_N.png	 N	 b	 b	 n.a.	 4.678636e-01
5	 7	 149	 unflanked	 rf	 5	 0.007500	 0.000000	 unflanked_rf_freq_5_amplitude_0.0075_rep_6_r_K.png	 K	 r	 r	 n.a.	 7.500637e-01
5	 7	 150	 unflanked	 rf	 5	 0.216700	 0.000000	 unflanked_rf_freq_5_amplitude_0.2167_rep_9_t_K.png	 K	 t	 t	 n.a.	 3.834451e-01
5	 7	 151	 unflanked	 rf	 4	 0.113300	 0.000000	 unflanked_rf_freq_4_amplitude_0.1133_rep_5_t_K.png	 K	 t	 l	 n.a.	 7.668187e-01
5	 7	 152	 unflanked	 rf	 12	 0.113300	 0.000000	 unflanked_rf_freq_12_amplitude_0.1133_rep_4_b_D.png	 D	 b	 b	 n.a.	 5.182702e-01
5	 7	 153	 unflanked	 rf	 8	 0.010000	 0.000000	 unflanked_rf_freq_8_amplitude_0.01_rep_0_t_D.png	 D	 t	 r	 n.a.	 9.814330e-01
5	 7	 154	 unflanked	 rf	 3	 0.061700	 0.000000	 unflanked_rf_freq_3_amplitude_0.0617_rep_2_r_N.png	 N	 r	 t	 n.a.	 9.565653e-01
5	 7	 155	 unflanked	 rf	 2	 0.061700	 0.000000	 unflanked_rf_freq_2_amplitude_0.0617_rep_5_r_N.png	 N	 r	 r	 n.a.	 5.206285e-01
5	 7	 156	 unflanked	 rf	 5	 0.165000	 0.000000	 unflanked_rf_freq_5_amplitude_0.165_rep_4_l_N.png	 N	 l	 l	 n.a.	 2.799805e-01
5	 7	 157	 unflanked	 rf	 2	 0.010000	 0.000000	 unflanked_rf_freq_2_amplitude_0.01_rep_9_t_N.png	 N	 t	 l	 n.a.	 5.128177e-01
5	 7	 158	 unflanked	 rf	 8	 0.216700	 0.000000	 unflanked_rf_freq_8_amplitude_0.2167_rep_9_r_N.png	 N	 r	 r	 n.a.	 3.338160e-01
5	 7	 159	 unflanked	 rf	 5	 0.216700	 0.000000	 unflanked_rf_freq_5_amplitude_0.2167_rep_8_b_H.png	 H	 b	 b	 n.a.	 5.437058e-01
5	 7	 160	 unflanked	 rf	 8	 0.216700	 0.000000	 unflanked_rf_freq_8_amplitude_0.2167_rep_5_t_N.png	 N	 t	 t	 n.a.	 5.318354e-01
5	 7	 161	 unflanked	 rf	 2	 0.165000	 0.000000	 unflanked_rf_freq_2_amplitude_0.165_rep_3_b_H.png	 H	 b	 b	 n.a.	 4.398999e-01
5	 7	 162	 unflanked	 rf	 5	 0.007500	 0.000000	 unflanked_rf_freq_5_amplitude_0.0075_rep_1_l_K.png	 K	 l	 r	 n.a.	 8.147212e-01
5	 7	 163	 unflanked	 rf	 4	 0.007500	 0.000000	 unflanked_rf_freq_4_amplitude_0.0075_rep_8_b_N.png	 N	 b	 r	 n.a.	 8.053943e-01
5	 7	 164	 unflanked	 rf	 8	 0.007500	 0.000000	 unflanked_rf_freq_8_amplitude_0.0075_rep_6_t_H.png	 H	 t	 b	 n.a.	 1.144443e+00
5	 7	 165	 unflanked	 rf	 5	 0.165000	 0.000000	 unflanked_rf_freq_5_amplitude_0.165_rep_5_r_N.png	 N	 r	 r	 n.a.	 2.842755e-01
5	 7	 166	 unflanked	 rf	 12	 0.113300	 0.000000	 unflanked_rf_freq_12_amplitude_0.1133_rep_5_t_H.png	 H	 t	 t	 n.a.	 4.449145e-01
5	 7	 167	 unflanked	 rf	 8	 0.061700	 0.000000	 unflanked_rf_freq_8_amplitude_0.0617_rep_5_t_K.png	 K	 t	 b	 n.a.	 7.132597e-01
5	 7	 168	 unflanked	 rf	 4	 0.113300	 0.000000	 unflanked_rf_freq_4_amplitude_0.1133_rep_4_b_D.png	 D	 b	 r	 n.a.	 4.447699e-01
5	 7	 169	 unflanked	 rf	 3	 0.268300	 0.000000	 unflanked_rf_freq_3_amplitude_0.2683_rep_9_l_H.png	 H	 l	 l	 n.a.	 3.502342e-01
5	 7	 170	 unflanked	 rf	 8	 0.007500	 0.000000	 unflanked_rf_freq_8_amplitude_0.0075_rep_1_t_K.png	 K	 t	 t	 n.a.	 7.642044e-01
5	 7	 171	 unflanked	 rf	 4	 0.165000	 0.000000	 unflanked_rf_freq_4_amplitude_0.165_rep_3_b_D.png	 D	 b	 b	 n.a.	 4.782528e-01
5	 7	 172	 unflanked	 rf	 12	 0.007500	 0.000000	 unflanked_rf_freq_12_amplitude_0.0075_rep_9_l_D.png	 D	 l	 t	 n.a.	 7.841399e-01
5	 7	 173	 unflanked	 rf	 3	 0.165000	 0.000000	 unflanked_rf_freq_3_amplitude_0.165_rep_2_l_D.png	 D	 l	 r	 n.a.	 6.550948e-01
5	 7	 174	 unflanked	 rf	 5	 0.268300	 0.000000	 unflanked_rf_freq_5_amplitude_0.2683_rep_9_l_K.png	 K	 l	 l	 n.a.	 2.892046e-01
5	 7	 175	 unflanked	 rf	 2	 0.268300	 0.000000	 unflanked_rf_freq_2_amplitude_0.2683_rep_3_r_H.png	 H	 r	 r	 n.a.	 3.302810e-01
5	 7	 176	 unflanked	 rf	 4	 0.165000	 0.000000	 unflanked_rf_freq_4_amplitude_0.165_rep_0_r_K.png	 K	 r	 r	 n.a.	 3.269200e-01
5	 7	 177	 unflanked	 rf	 4	 0.165000	 0.000000	 unflanked_rf_freq_4_amplitude_0.165_rep_8_l_K.png	 K	 l	 l	 n.a.	 3.005639e-01
5	 7	 178	 unflanked	 rf	 2	 0.010000	 0.000000	 unflanked_rf_freq_2_amplitude_0.01_rep_4_t_D.png	 D	 t	 b	 n.a.	 6.494954e-01
5	 7	 179	 unflanked	 rf	 4	 0.061700	 0.000000	 unflanked_rf_freq_4_amplitude_0.0617_rep_6_b_N.png	 N	 b	 b	 n.a.	 8.187192e-01
5	 7	 180	 unflanked	 rf	 12	 0.113300	 0.000000	 unflanked_rf_freq_12_amplitude_0.1133_rep_6_b_D.png	 D	 b	 r	 n.a.	 8.818951e-01
5	 7	 181	 unflanked	 rf	 4	 0.165000	 0.000000	 unflanked_rf_freq_4_amplitude_0.165_rep_7_b_D.png	 D	 b	 b	 n.a.	 4.253846e-01
5	 7	 182	 unflanked	 rf	 12	 0.061700	 0.000000	 unflanked_rf_freq_12_amplitude_0.0617_rep_2_b_H.png	 H	 b	 l	 n.a.	 5.749762e-01
5	 7	 183	 unflanked	 rf	 4	 0.113300	 0.000000	 unflanked_rf_freq_4_amplitude_0.1133_rep_7_t_K.png	 K	 t	 t	 n.a.	 7.520057e-01
5	 7	 184	 unflanked	 rf	 12	 0.010000	 0.000000	 unflanked_rf_freq_12_amplitude_0.01_rep_4_t_D.png	 D	 t	 r	 n.a.	 9.377383e-01
5	 7	 185	 unflanked	 rf	 5	 0.268300	 0.000000	 unflanked_rf_freq_5_amplitude_0.2683_rep_2_t_D.png	 D	 t	 t	 n.a.	 3.984239e-01
5	 7	 186	 unflanked	 rf	 12	 0.113300	 0.000000	 unflanked_rf_freq_12_amplitude_0.1133_rep_0_l_K.png	 K	 l	 l	 n.a.	 3.015200e-01
5	 7	 187	 unflanked	 rf	 12	 0.165000	 0.000000	 unflanked_rf_freq_12_amplitude_0.165_rep_6_b_K.png	 K	 b	 b	 n.a.	 3.346944e-01
5	 7	 188	 unflanked	 rf	 2	 0.165000	 0.000000	 unflanked_rf_freq_2_amplitude_0.165_rep_4_t_D.png	 D	 t	 t	 n.a.	 6.003253e-01
5	 7	 189	 unflanked	 rf	 12	 0.061700	 0.000000	 unflanked_rf_freq_12_amplitude_0.0617_rep_3_b_H.png	 H	 b	 t	 n.a.	 9.660850e-01
5	 7	 190	 unflanked	 rf	 5	 0.007500	 0.000000	 unflanked_rf_freq_5_amplitude_0.0075_rep_2_r_D.png	 D	 r	 r	 n.a.	 5.877996e-01
5	 7	 191	 unflanked	 rf	 12	 0.216700	 0.000000	 unflanked_rf_freq_12_amplitude_0.2167_rep_5_l_K.png	 K	 l	 l	 n.a.	 2.564665e-01
5	 7	 192	 unflanked	 rf	 5	 0.216700	 0.000000	 unflanked_rf_freq_5_amplitude_0.2167_rep_6_r_H.png	 H	 r	 r	 n.a.	 3.066763e-01
5	 7	 193	 unflanked	 rf	 4	 0.113300	 0.000000	 unflanked_rf_freq_4_amplitude_0.1133_rep_9_l_D.png	 D	 l	 b	 n.a.	 8.404773e-01
5	 7	 194	 unflanked	 rf	 8	 0.010000	 0.000000	 unflanked_rf_freq_8_amplitude_0.01_rep_9_l_N.png	 N	 l	 l	 n.a.	 6.248945e-01
5	 7	 195	 unflanked	 rf	 8	 0.010000	 0.000000	 unflanked_rf_freq_8_amplitude_0.01_rep_6_t_H.png	 H	 t	 r	 n.a.	 4.411218e-01
5	 7	 196	 unflanked	 rf	 8	 0.268300	 0.000000	 unflanked_rf_freq_8_amplitude_0.2683_rep_8_l_K.png	 K	 l	 l	 n.a.	 2.640077e-01
5	 7	 197	 unflanked	 rf	 12	 0.113300	 0.000000	 unflanked_rf_freq_12_amplitude_0.1133_rep_8_r_H.png	 H	 r	 r	 n.a.	 2.404904e-01
5	 7	 198	 unflanked	 rf	 3	 0.165000	 0.000000	 unflanked_rf_freq_3_amplitude_0.165_rep_0_b_H.png	 H	 b	 b	 n.a.	 4.396321e-01
5	 7	 199	 unflanked	 rf	 12	 0.216700	 0.000000	 unflanked_rf_freq_12_amplitude_0.2167_rep_4_t_H.png	 H	 t	 t	 n.a.	 5.657412e-01
5	 7	 200	 unflanked	 rf	 12	 0.268300	 0.000000	 unflanked_rf_freq_12_amplitude_0.2683_rep_5_l_D.png	 D	 l	 l	 n.a.	 2.536673e-01
5	 7	 201	 unflanked	 rf	 2	 0.268300	 0.000000	 unflanked_rf_freq_2_amplitude_0.2683_rep_4_t_D.png	 D	 t	 t	 n.a.	 4.392870e-01
5	 7	 202	 unflanked	 rf	 2	 0.113300	 0.000000	 unflanked_rf_freq_2_amplitude_0.1133_rep_8_l_N.png	 N	 l	 r	 n.a.	 6.248926e-01
5	 7	 203	 unflanked	 rf	 8	 0.165000	 0.000000	 unflanked_rf_freq_8_amplitude_0.165_rep_4_r_H.png	 H	 r	 r	 n.a.	 2.547997e-01
5	 7	 204	 unflanked	 rf	 2	 0.007500	 0.000000	 unflanked_rf_freq_2_amplitude_0.0075_rep_5_b_K.png	 K	 b	 r	 n.a.	 6.150603e-01
5	 7	 205	 unflanked	 rf	 2	 0.165000	 0.000000	 unflanked_rf_freq_2_amplitude_0.165_rep_0_l_D.png	 D	 l	 l	 n.a.	 3.654349e-01
5	 7	 206	 unflanked	 rf	 2	 0.113300	 0.000000	 unflanked_rf_freq_2_amplitude_0.1133_rep_6_l_N.png	 N	 l	 r	 n.a.	 2.393693e-01
5	 7	 207	 unflanked	 rf	 4	 0.216700	 0.000000	 unflanked_rf_freq_4_amplitude_0.2167_rep_3_l_H.png	 H	 l	 l	 n.a.	 2.891387e-01
5	 7	 208	 unflanked	 rf	 3	 0.007500	 0.000000	 unflanked_rf_freq_3_amplitude_0.0075_rep_6_r_D.png	 D	 r	 t	 n.a.	 7.837427e-01
5	 7	 209	 unflanked	 rf	 5	 0.113300	 0.000000	 unflanked_rf_freq_5_amplitude_0.1133_rep_7_l_D.png	 D	 l	 l	 n.a.	 3.567712e-01
5	 7	 210	 unflanked	 rf	 2	 0.165000	 0.000000	 unflanked_rf_freq_2_amplitude_0.165_rep_1_r_H.png	 H	 r	 r	 n.a.	 3.600740e-01
5	 7	 211	 unflanked	 rf	 3	 0.061700	 0.000000	 unflanked_rf_freq_3_amplitude_0.0617_rep_7_b_K.png	 K	 b	 b	 n.a.	 4.314235e-01
5	 7	 212	 unflanked	 rf	 4	 0.165000	 0.000000	 unflanked_rf_freq_4_amplitude_0.165_rep_4_l_N.png	 N	 l	 l	 n.a.	 2.624878e-01
5	 7	 213	 unflanked	 rf	 8	 0.165000	 0.000000	 unflanked_rf_freq_8_amplitude_0.165_rep_7_b_D.png	 D	 b	 b	 n.a.	 2.858306e-01
5	 7	 214	 unflanked	 rf	 8	 0.113300	 0.000000	 unflanked_rf_freq_8_amplitude_0.1133_rep_4_b_N.png	 N	 b	 b	 n.a.	 9.474547e-01
5	 7	 215	 unflanked	 rf	 12	 0.007500	 0.000000	 unflanked_rf_freq_12_amplitude_0.0075_rep_3_l_N.png	 N	 l	 r	 n.a.	 7.492693e-01
5	 7	 216	 unflanked	 rf	 3	 0.007500	 0.000000	 unflanked_rf_freq_3_amplitude_0.0075_rep_2_r_N.png	 N	 r	 l	 n.a.	 3.691321e-01
5	 7	 217	 unflanked	 rf	 4	 0.010000	 0.000000	 unflanked_rf_freq_4_amplitude_0.01_rep_9_t_K.png	 K	 t	 b	 n.a.	 7.240300e-01
5	 7	 218	 unflanked	 rf	 8	 0.165000	 0.000000	 unflanked_rf_freq_8_amplitude_0.165_rep_3_t_N.png	 N	 t	 t	 n.a.	 4.854033e-01
5	 7	 219	 unflanked	 rf	 4	 0.113300	 0.000000	 unflanked_rf_freq_4_amplitude_0.1133_rep_1_l_D.png	 D	 l	 l	 n.a.	 6.811465e-01
5	 7	 220	 unflanked	 rf	 5	 0.010000	 0.000000	 unflanked_rf_freq_5_amplitude_0.01_rep_5_b_D.png	 D	 b	 l	 n.a.	 3.862115e-01
5	 7	 221	 unflanked	 rf	 12	 0.007500	 0.000000	 unflanked_rf_freq_12_amplitude_0.0075_rep_7_l_H.png	 H	 l	 b	 n.a.	 4.627194e-01
5	 7	 222	 unflanked	 rf	 2	 0.010000	 0.000000	 unflanked_rf_freq_2_amplitude_0.01_rep_2_r_D.png	 D	 r	 r	 n.a.	 7.068355e-01
5	 7	 223	 unflanked	 rf	 4	 0.268300	 0.000000	 unflanked_rf_freq_4_amplitude_0.2683_rep_9_t_N.png	 N	 t	 t	 n.a.	 4.592470e-01
5	 7	 224	 unflanked	 rf	 2	 0.216700	 0.000000	 unflanked_rf_freq_2_amplitude_0.2167_rep_9_b_D.png	 D	 b	 b	 n.a.	 7.852537e-01
5	 7	 225	 unflanked	 rf	 8	 0.007500	 0.000000	 unflanked_rf_freq_8_amplitude_0.0075_rep_3_r_D.png	 D	 r	 t	 n.a.	 6.798492e-01
5	 7	 226	 unflanked	 rf	 5	 0.061700	 0.000000	 unflanked_rf_freq_5_amplitude_0.0617_rep_3_r_K.png	 K	 r	 r	 n.a.	 5.586376e-01
5	 7	 227	 unflanked	 rf	 8	 0.268300	 0.000000	 unflanked_rf_freq_8_amplitude_0.2683_rep_2_l_K.png	 K	 l	 l	 n.a.	 2.578395e-01
5	 7	 228	 unflanked	 rf	 3	 0.007500	 0.000000	 unflanked_rf_freq_3_amplitude_0.0075_rep_3_r_K.png	 K	 r	 t	 n.a.	 8.294301e-01
5	 7	 229	 unflanked	 rf	 12	 0.165000	 0.000000	 unflanked_rf_freq_12_amplitude_0.165_rep_3_r_H.png	 H	 r	 r	 n.a.	 2.494465e-01
5	 7	 230	 unflanked	 rf	 5	 0.007500	 0.000000	 unflanked_rf_freq_5_amplitude_0.0075_rep_5_t_D.png	 D	 t	 r	 n.a.	 4.982234e-01
5	 7	 231	 unflanked	 rf	 5	 0.061700	 0.000000	 unflanked_rf_freq_5_amplitude_0.0617_rep_2_t_D.png	 D	 t	 t	 n.a.	 5.202794e-01
5	 7	 232	 unflanked	 rf	 2	 0.010000	 0.000000	 unflanked_rf_freq_2_amplitude_0.01_rep_6_t_H.png	 H	 t	 l	 n.a.	 8.462016e-01
5	 7	 233	 unflanked	 rf	 12	 0.007500	 0.000000	 unflanked_rf_freq_12_amplitude_0.0075_rep_4_t_K.png	 K	 t	 r	 n.a.	 4.388865e-01
5	 7	 234	 unflanked	 rf	 5	 0.165000	 0.000000	 unflanked_rf_freq_5_amplitude_0.165_rep_2_r_D.png	 D	 r	 r	 n.a.	 3.367469e-01
5	 7	 235	 unflanked	 rf	 4	 0.007500	 0.000000	 unflanked_rf_freq_4_amplitude_0.0075_rep_3_b_K.png	 K	 b	 t	 n.a.	 1.006178e+00
5	 7	 236	 unflanked	 rf	 4	 0.216700	 0.000000	 unflanked_rf_freq_4_amplitude_0.2167_rep_4_b_D.png	 D	 b	 b	 n.a.	 4.819235e-01
5	 7	 237	 unflanked	 rf	 4	 0.268300	 0.000000	 unflanked_rf_freq_4_amplitude_0.2683_rep_4_l_N.png	 N	 l	 l	 n.a.	 2.731297e-01
5	 7	 238	 unflanked	 rf	 2	 0.007500	 0.000000	 unflanked_rf_freq_2_amplitude_0.0075_rep_1_t_N.png	 N	 t	 b	 n.a.	 5.214562e-01
5	 7	 239	 unflanked	 rf	 3	 0.165000	 0.000000	 unflanked_rf_freq_3_amplitude_0.165_rep_8_t_H.png	 H	 t	 t	 n.a.	 5.041514e-01
5	 7	 240	 unflanked	 rf	 4	 0.268300	 0.000000	 unflanked_rf_freq_4_amplitude_0.2683_rep_8_t_H.png	 H	 t	 t	 n.a.	 4.135929e-01
5	 7	 241	 unflanked	 rf	 8	 0.268300	 0.000000	 unflanked_rf_freq_8_amplitude_0.2683_rep_0_t_K.png	 K	 t	 t	 n.a.	 3.521041e-01
5	 7	 242	 unflanked	 rf	 2	 0.165000	 0.000000	 unflanked_rf_freq_2_amplitude_0.165_rep_7_r_K.png	 K	 r	 r	 n.a.	 3.858130e-01
5	 7	 243	 unflanked	 rf	 3	 0.061700	 0.000000	 unflanked_rf_freq_3_amplitude_0.0617_rep_1_t_K.png	 K	 t	 t	 n.a.	 5.186760e-01
5	 7	 244	 unflanked	 rf	 5	 0.113300	 0.000000	 unflanked_rf_freq_5_amplitude_0.1133_rep_8_r_K.png	 K	 r	 r	 n.a.	 3.629070e-01
5	 7	 245	 unflanked	 rf	 3	 0.165000	 0.000000	 unflanked_rf_freq_3_amplitude_0.165_rep_6_b_N.png	 N	 b	 b	 n.a.	 4.984186e-01
5	 7	 246	 unflanked	 rf	 12	 0.007500	 0.000000	 unflanked_rf_freq_12_amplitude_0.0075_rep_8_b_D.png	 D	 b	 t	 n.a.	 8.143784e-01
5	 7	 247	 unflanked	 rf	 5	 0.113300	 0.000000	 unflanked_rf_freq_5_amplitude_0.1133_rep_5_r_K.png	 K	 r	 r	 n.a.	 2.844024e-01
5	 7	 248	 unflanked	 rf	 8	 0.010000	 0.000000	 unflanked_rf_freq_8_amplitude_0.01_rep_3_l_N.png	 N	 l	 r	 n.a.	 9.800939e-01
5	 7	 249	 unflanked	 rf	 5	 0.165000	 0.000000	 unflanked_rf_freq_5_amplitude_0.165_rep_6_t_D.png	 D	 t	 t	 n.a.	 4.161530e-01
5	 7	 250	 unflanked	 rf	 5	 0.165000	 0.000000	 unflanked_rf_freq_5_amplitude_0.165_rep_8_r_K.png	 K	 r	 r	 n.a.	 3.696854e-01
5	 7	 251	 unflanked	 rf	 5	 0.010000	 0.000000	 unflanked_rf_freq_5_amplitude_0.01_rep_2_b_K.png	 K	 b	 b	 n.a.	 4.933094e-01
5	 7	 252	 unflanked	 rf	 12	 0.010000	 0.000000	 unflanked_rf_freq_12_amplitude_0.01_rep_2_r_N.png	 N	 r	 l	 n.a.	 6.149228e-01
5	 7	 253	 unflanked	 rf	 3	 0.268300	 0.000000	 unflanked_rf_freq_3_amplitude_0.2683_rep_5_b_D.png	 D	 b	 b	 n.a.	 3.059363e-01
5	 7	 254	 unflanked	 rf	 5	 0.010000	 0.000000	 unflanked_rf_freq_5_amplitude_0.01_rep_0_r_N.png	 N	 r	 b	 n.a.	 5.686612e-01
5	 7	 255	 unflanked	 rf	 12	 0.061700	 0.000000	 unflanked_rf_freq_12_amplitude_0.0617_rep_4_t_K.png	 K	 t	 t	 n.a.	 4.381555e-01
5	 7	 256	 unflanked	 rf	 2	 0.061700	 0.000000	 unflanked_rf_freq_2_amplitude_0.0617_rep_7_t_H.png	 H	 t	 r	 n.a.	 1.238216e+00
5	 7	 257	 unflanked	 rf	 3	 0.268300	 0.000000	 unflanked_rf_freq_3_amplitude_0.2683_rep_1_b_H.png	 H	 b	 b	 n.a.	 3.738576e-01
5	 7	 258	 unflanked	 rf	 12	 0.010000	 0.000000	 unflanked_rf_freq_12_amplitude_0.01_rep_7_l_K.png	 K	 l	 t	 n.a.	 9.028693e-01
5	 7	 259	 unflanked	 rf	 5	 0.216700	 0.000000	 unflanked_rf_freq_5_amplitude_0.2167_rep_3_b_N.png	 N	 b	 b	 n.a.	 3.953928e-01
5	 7	 260	 unflanked	 rf	 2	 0.010000	 0.000000	 unflanked_rf_freq_2_amplitude_0.01_rep_7_l_H.png	 H	 l	 b	 n.a.	 9.008035e-01
5	 7	 261	 unflanked	 rf	 4	 0.216700	 0.000000	 unflanked_rf_freq_4_amplitude_0.2167_rep_8_t_H.png	 H	 t	 t	 n.a.	 5.187594e-01
5	 7	 262	 unflanked	 rf	 8	 0.165000	 0.000000	 unflanked_rf_freq_8_amplitude_0.165_rep_8_r_D.png	 D	 r	 r	 n.a.	 3.396495e-01
5	 7	 263	 unflanked	 rf	 12	 0.268300	 0.000000	 unflanked_rf_freq_12_amplitude_0.2683_rep_3_l_K.png	 K	 l	 l	 n.a.	 2.561591e-01
5	 7	 264	 unflanked	 rf	 8	 0.113300	 0.000000	 unflanked_rf_freq_8_amplitude_0.1133_rep_2_r_D.png	 D	 r	 r	 n.a.	 2.700929e-01
5	 7	 265	 unflanked	 rf	 2	 0.268300	 0.000000	 unflanked_rf_freq_2_amplitude_0.2683_rep_8_r_H.png	 H	 r	 r	 n.a.	 2.303891e-01
5	 7	 266	 unflanked	 rf	 4	 0.216700	 0.000000	 unflanked_rf_freq_4_amplitude_0.2167_rep_5_l_N.png	 N	 l	 l	 n.a.	 3.898825e-01
5	 7	 267	 unflanked	 rf	 8	 0.268300	 0.000000	 unflanked_rf_freq_8_amplitude_0.2683_rep_1_r_H.png	 H	 r	 r	 n.a.	 1.911954e-01
5	 7	 268	 unflanked	 rf	 3	 0.010000	 0.000000	 unflanked_rf_freq_3_amplitude_0.01_rep_9_t_N.png	 N	 t	 r	 n.a.	 6.079955e-01
5	 7	 269	 unflanked	 rf	 5	 0.010000	 0.000000	 unflanked_rf_freq_5_amplitude_0.01_rep_4_r_K.png	 K	 r	 l	 n.a.	 5.351848e-01
5	 7	 270	 unflanked	 rf	 4	 0.061700	 0.000000	 unflanked_rf_freq_4_amplitude_0.0617_rep_1_l_H.png	 H	 l	 b	 n.a.	 1.017665e+00
5	 7	 271	 unflanked	 rf	 5	 0.268300	 0.000000	 unflanked_rf_freq_5_amplitude_0.2683_rep_8_b_N.png	 N	 b	 b	 n.a.	 2.991915e-01
5	 7	 272	 unflanked	 rf	 3	 0.010000	 0.000000	 unflanked_rf_freq_3_amplitude_0.01_rep_2_r_H.png	 H	 r	 r	 n.a.	 6.896732e-01
5	 7	 273	 unflanked	 rf	 2	 0.165000	 0.000000	 unflanked_rf_freq_2_amplitude_0.165_rep_8_r_K.png	 K	 r	 r	 n.a.	 3.745806e-01
5	 7	 274	 unflanked	 rf	 12	 0.010000	 0.000000	 unflanked_rf_freq_12_amplitude_0.01_rep_5_t_H.png	 H	 t	 l	 n.a.	 6.633907e-01
5	 7	 275	 unflanked	 rf	 8	 0.061700	 0.000000	 unflanked_rf_freq_8_amplitude_0.0617_rep_2_r_K.png	 K	 r	 r	 n.a.	 3.431246e-01
5	 7	 276	 unflanked	 rf	 5	 0.010000	 0.000000	 unflanked_rf_freq_5_amplitude_0.01_rep_1_l_D.png	 D	 l	 l	 n.a.	 1.066297e+00
5	 7	 277	 unflanked	 rf	 12	 0.216700	 0.000000	 unflanked_rf_freq_12_amplitude_0.2167_rep_1_l_D.png	 D	 l	 l	 n.a.	 3.075421e-01
5	 7	 278	 unflanked	 rf	 8	 0.007500	 0.000000	 unflanked_rf_freq_8_amplitude_0.0075_rep_5_b_N.png	 N	 b	 b	 n.a.	 5.796433e-01
5	 7	 279	 unflanked	 rf	 4	 0.007500	 0.000000	 unflanked_rf_freq_4_amplitude_0.0075_rep_0_b_H.png	 H	 b	 t	 n.a.	 7.068080e-01
5	 7	 280	 unflanked	 rf	 4	 0.010000	 0.000000	 unflanked_rf_freq_4_amplitude_0.01_rep_1_r_D.png	 D	 r	 l	 n.a.	 4.792999e-01
5	 7	 281	 unflanked	 rf	 12	 0.165000	 0.000000	 unflanked_rf_freq_12_amplitude_0.165_rep_8_t_N.png	 N	 t	 t	 n.a.	 3.357406e-01
5	 7	 282	 unflanked	 rf	 2	 0.216700	 0.000000	 unflanked_rf_freq_2_amplitude_0.2167_rep_8_t_D.png	 D	 t	 t	 n.a.	 4.575955e-01
5	 7	 283	 unflanked	 rf	 3	 0.216700	 0.000000	 unflanked_rf_freq_3_amplitude_0.2167_rep_1_r_H.png	 H	 r	 r	 n.a.	 2.517986e-01
5	 7	 284	 unflanked	 rf	 2	 0.010000	 0.000000	 unflanked_rf_freq_2_amplitude_0.01_rep_5_l_H.png	 H	 l	 l	 n.a.	 7.553667e-01
5	 7	 285	 unflanked	 rf	 5	 0.113300	 0.000000	 unflanked_rf_freq_5_amplitude_0.1133_rep_3_t_K.png	 K	 t	 t	 n.a.	 4.091671e-01
5	 7	 286	 unflanked	 rf	 12	 0.113300	 0.000000	 unflanked_rf_freq_12_amplitude_0.1133_rep_3_r_H.png	 H	 r	 r	 n.a.	 2.956743e-01
5	 7	 287	 unflanked	 rf	 12	 0.268300	 0.000000	 unflanked_rf_freq_12_amplitude_0.2683_rep_6_l_K.png	 K	 l	 l	 n.a.	 2.734222e-01
5	 7	 288	 unflanked	 rf	 12	 0.113300	 0.000000	 unflanked_rf_freq_12_amplitude_0.1133_rep_7_r_K.png	 K	 r	 r	 n.a.	 2.874941e-01
5	 7	 289	 unflanked	 rf	 3	 0.216700	 0.000000	 unflanked_rf_freq_3_amplitude_0.2167_rep_2_r_N.png	 N	 r	 r	 n.a.	 3.192551e-01
5	 7	 290	 unflanked	 rf	 4	 0.165000	 0.000000	 unflanked_rf_freq_4_amplitude_0.165_rep_6_b_D.png	 D	 b	 b	 n.a.	 5.089101e-01
5	 7	 291	 unflanked	 rf	 4	 0.268300	 0.000000	 unflanked_rf_freq_4_amplitude_0.2683_rep_6_b_H.png	 H	 b	 b	 n.a.	 3.401247e-01
5	 7	 292	 unflanked	 rf	 12	 0.216700	 0.000000	 unflanked_rf_freq_12_amplitude_0.2167_rep_2_t_N.png	 N	 t	 t	 n.a.	 4.008918e-01
5	 7	 293	 unflanked	 rf	 3	 0.007500	 0.000000	 unflanked_rf_freq_3_amplitude_0.0075_rep_1_t_D.png	 D	 t	 b	 n.a.	 6.416500e-01
5	 7	 294	 unflanked	 rf	 2	 0.007500	 0.000000	 unflanked_rf_freq_2_amplitude_0.0075_rep_4_b_H.png	 H	 b	 l	 n.a.	 8.729015e-01
5	 7	 295	 unflanked	 rf	 12	 0.007500	 0.000000	 unflanked_rf_freq_12_amplitude_0.0075_rep_0_t_K.png	 K	 t	 t	 n.a.	 9.627926e-01
5	 7	 296	 unflanked	 rf	 5	 0.007500	 0.000000	 unflanked_rf_freq_5_amplitude_0.0075_rep_7_l_N.png	 N	 l	 l	 n.a.	 5.724217e-01
5	 7	 297	 unflanked	 rf	 2	 0.113300	 0.000000	 unflanked_rf_freq_2_amplitude_0.1133_rep_5_l_N.png	 N	 l	 l	 n.a.	 4.077907e-01
5	 7	 298	 unflanked	 rf	 12	 0.165000	 0.000000	 unflanked_rf_freq_12_amplitude_0.165_rep_9_l_K.png	 K	 l	 l	 n.a.	 2.867734e-01
5	 7	 299	 unflanked	 rf	 8	 0.268300	 0.000000	 unflanked_rf_freq_8_amplitude_0.2683_rep_7_r_H.png	 H	 r	 r	 n.a.	 2.694155e-01
5	 7	 300	 unflanked	 rf	 8	 0.113300	 0.000000	 unflanked_rf_freq_8_amplitude_0.1133_rep_6_l_N.png	 N	 l	 l	 n.a.	 2.636976e-01
5	 7	 301	 unflanked	 rf	 5	 0.165000	 0.000000	 unflanked_rf_freq_5_amplitude_0.165_rep_1_b_N.png	 N	 b	 b	 n.a.	 3.850409e-01
5	 7	 302	 unflanked	 rf	 4	 0.268300	 0.000000	 unflanked_rf_freq_4_amplitude_0.2683_rep_7_l_D.png	 D	 l	 l	 n.a.	 3.293821e-01
5	 7	 303	 unflanked	 rf	 5	 0.216700	 0.000000	 unflanked_rf_freq_5_amplitude_0.2167_rep_4_t_D.png	 D	 t	 t	 n.a.	 4.926526e-01
5	 7	 304	 unflanked	 rf	 12	 0.010000	 0.000000	 unflanked_rf_freq_12_amplitude_0.01_rep_0_b_K.png	 K	 b	 b	 n.a.	 7.743857e-01
5	 7	 305	 unflanked	 rf	 3	 0.010000	 0.000000	 unflanked_rf_freq_3_amplitude_0.01_rep_7_b_K.png	 K	 b	 b	 n.a.	 3.786944e-01
5	 7	 306	 unflanked	 rf	 2	 0.216700	 0.000000	 unflanked_rf_freq_2_amplitude_0.2167_rep_4_l_N.png	 N	 l	 l	 n.a.	 2.916869e-01
5	 7	 307	 unflanked	 rf	 5	 0.010000	 0.000000	 unflanked_rf_freq_5_amplitude_0.01_rep_8_r_K.png	 K	 r	 r	 n.a.	 7.195439e-01
5	 7	 308	 unflanked	 rf	 5	 0.216700	 0.000000	 unflanked_rf_freq_5_amplitude_0.2167_rep_1_r_N.png	 N	 r	 r	 n.a.	 3.583954e-01
5	 7	 309	 unflanked	 rf	 3	 0.061700	 0.000000	 unflanked_rf_freq_3_amplitude_0.0617_rep_9_l_H.png	 H	 l	 l	 n.a.	 3.893017e-01
5	 7	 310	 unflanked	 rf	 8	 0.165000	 0.000000	 unflanked_rf_freq_8_amplitude_0.165_rep_9_b_D.png	 D	 b	 b	 n.a.	 5.551435e-01
5	 7	 311	 unflanked	 rf	 3	 0.113300	 0.000000	 unflanked_rf_freq_3_amplitude_0.1133_rep_7_b_D.png	 D	 b	 b	 n.a.	 4.163437e-01
5	 7	 312	 unflanked	 rf	 8	 0.061700	 0.000000	 unflanked_rf_freq_8_amplitude_0.0617_rep_7_l_D.png	 D	 l	 l	 n.a.	 3.953117e-01
5	 7	 313	 unflanked	 rf	 8	 0.061700	 0.000000	 unflanked_rf_freq_8_amplitude_0.0617_rep_8_b_N.png	 N	 b	 r	 n.a.	 4.815772e-01
5	 7	 314	 unflanked	 rf	 4	 0.010000	 0.000000	 unflanked_rf_freq_4_amplitude_0.01_rep_4_b_D.png	 D	 b	 r	 n.a.	 9.084428e-01
5	 7	 315	 unflanked	 rf	 2	 0.061700	 0.000000	 unflanked_rf_freq_2_amplitude_0.0617_rep_0_r_H.png	 H	 r	 t	 n.a.	 9.138779e-01
5	 7	 316	 unflanked	 rf	 12	 0.165000	 0.000000	 unflanked_rf_freq_12_amplitude_0.165_rep_4_b_H.png	 H	 b	 b	 n.a.	 3.443797e-01
5	 7	 317	 unflanked	 rf	 4	 0.216700	 0.000000	 unflanked_rf_freq_4_amplitude_0.2167_rep_1_r_D.png	 D	 r	 r	 n.a.	 3.051108e-01
5	 7	 318	 unflanked	 rf	 3	 0.216700	 0.000000	 unflanked_rf_freq_3_amplitude_0.2167_rep_9_b_N.png	 N	 b	 b	 n.a.	 3.829160e-01
5	 7	 319	 unflanked	 rf	 5	 0.007500	 0.000000	 unflanked_rf_freq_5_amplitude_0.0075_rep_4_b_D.png	 D	 b	 t	 n.a.	 9.427738e-01
5	 7	 320	 unflanked	 rf	 3	 0.113300	 0.000000	 unflanked_rf_freq_3_amplitude_0.1133_rep_8_b_D.png	 D	 b	 b	 n.a.	 5.527557e-01
5	 7	 321	 unflanked	 rf	 2	 0.165000	 0.000000	 unflanked_rf_freq_2_amplitude_0.165_rep_6_l_K.png	 K	 l	 l	 n.a.	 3.349350e-01
5	 7	 322	 unflanked	 rf	 3	 0.268300	 0.000000	 unflanked_rf_freq_3_amplitude_0.2683_rep_2_r_N.png	 N	 r	 r	 n.a.	 3.162699e-01
5	 7	 323	 unflanked	 rf	 4	 0.007500	 0.000000	 unflanked_rf_freq_4_amplitude_0.0075_rep_6_t_H.png	 H	 t	 t	 n.a.	 7.957847e-01
5	 7	 324	 unflanked	 rf	 4	 0.268300	 0.000000	 unflanked_rf_freq_4_amplitude_0.2683_rep_0_r_K.png	 K	 r	 r	 n.a.	 2.676892e-01
5	 7	 325	 unflanked	 rf	 2	 0.165000	 0.000000	 unflanked_rf_freq_2_amplitude_0.165_rep_2_r_H.png	 H	 r	 r	 n.a.	 3.857574e-01
5	 7	 326	 unflanked	 rf	 8	 0.216700	 0.000000	 unflanked_rf_freq_8_amplitude_0.2167_rep_3_l_D.png	 D	 l	 l	 n.a.	 1.928560e-01
5	 7	 327	 unflanked	 rf	 3	 0.113300	 0.000000	 unflanked_rf_freq_3_amplitude_0.1133_rep_5_t_H.png	 H	 t	 r	 n.a.	 7.901953e-01
5	 7	 328	 unflanked	 rf	 2	 0.113300	 0.000000	 unflanked_rf_freq_2_amplitude_0.1133_rep_4_t_N.png	 N	 t	 b	 n.a.	 3.929338e-01
5	 7	 329	 unflanked	 rf	 4	 0.007500	 0.000000	 unflanked_rf_freq_4_amplitude_0.0075_rep_1_b_D.png	 D	 b	 t	 n.a.	 8.784701e-01
5	 7	 330	 unflanked	 rf	 12	 0.007500	 0.000000	 unflanked_rf_freq_12_amplitude_0.0075_rep_6_l_N.png	 N	 l	 l	 n.a.	 7.073085e-01
5	 7	 331	 unflanked	 rf	 3	 0.061700	 0.000000	 unflanked_rf_freq_3_amplitude_0.0617_rep_6_t_D.png	 D	 t	 l	 n.a.	 5.459852e-01
5	 7	 332	 unflanked	 rf	 2	 0.268300	 0.000000	 unflanked_rf_freq_2_amplitude_0.2683_rep_5_l_K.png	 K	 l	 l	 n.a.	 3.711925e-01
5	 7	 333	 unflanked	 rf	 3	 0.165000	 0.000000	 unflanked_rf_freq_3_amplitude_0.165_rep_1_b_H.png	 H	 b	 b	 n.a.	 5.704034e-01
5	 7	 334	 unflanked	 rf	 5	 0.061700	 0.000000	 unflanked_rf_freq_5_amplitude_0.0617_rep_6_r_D.png	 D	 r	 t	 n.a.	 9.385499e-01
5	 7	 335	 unflanked	 rf	 5	 0.061700	 0.000000	 unflanked_rf_freq_5_amplitude_0.0617_rep_4_r_H.png	 H	 r	 r	 n.a.	 3.082008e-01
5	 7	 336	 unflanked	 rf	 4	 0.216700	 0.000000	 unflanked_rf_freq_4_amplitude_0.2167_rep_2_b_D.png	 D	 b	 b	 n.a.	 3.785062e-01
5	 7	 337	 unflanked	 rf	 3	 0.061700	 0.000000	 unflanked_rf_freq_3_amplitude_0.0617_rep_0_l_H.png	 H	 l	 l	 n.a.	 4.948710e-01
5	 7	 338	 unflanked	 rf	 5	 0.268300	 0.000000	 unflanked_rf_freq_5_amplitude_0.2683_rep_4_l_D.png	 D	 l	 l	 n.a.	 2.616368e-01
5	 7	 339	 unflanked	 rf	 3	 0.216700	 0.000000	 unflanked_rf_freq_3_amplitude_0.2167_rep_3_r_K.png	 K	 r	 r	 n.a.	 3.439705e-01
5	 7	 340	 unflanked	 rf	 4	 0.165000	 0.000000	 unflanked_rf_freq_4_amplitude_0.165_rep_9_t_N.png	 N	 t	 t	 n.a.	 5.855820e-01
5	 7	 341	 unflanked	 rf	 3	 0.007500	 0.000000	 unflanked_rf_freq_3_amplitude_0.0075_rep_5_t_N.png	 N	 t	 l	 n.a.	 5.395272e-01
5	 7	 342	 unflanked	 rf	 12	 0.061700	 0.000000	 unflanked_rf_freq_12_amplitude_0.0617_rep_0_r_N.png	 N	 r	 r	 n.a.	 3.059886e-01
5	 7	 343	 unflanked	 rf	 2	 0.165000	 0.000000	 unflanked_rf_freq_2_amplitude_0.165_rep_9_l_K.png	 K	 l	 l	 n.a.	 3.791915e-01
5	 7	 344	 unflanked	 rf	 12	 0.010000	 0.000000	 unflanked_rf_freq_12_amplitude_0.01_rep_9_t_K.png	 K	 t	 t	 n.a.	 8.036972e-01
5	 7	 345	 unflanked	 rf	 4	 0.010000	 0.000000	 unflanked_rf_freq_4_amplitude_0.01_rep_5_r_K.png	 K	 r	 r	 n.a.	 4.146314e-01
5	 7	 346	 unflanked	 rf	 8	 0.061700	 0.000000	 unflanked_rf_freq_8_amplitude_0.0617_rep_4_r_N.png	 N	 r	 r	 n.a.	 3.727158e-01
5	 7	 347	 unflanked	 rf	 12	 0.007500	 0.000000	 unflanked_rf_freq_12_amplitude_0.0075_rep_2_t_D.png	 D	 t	 b	 n.a.	 4.670591e-01
5	 7	 348	 unflanked	 rf	 4	 0.113300	 0.000000	 unflanked_rf_freq_4_amplitude_0.1133_rep_0_t_K.png	 K	 t	 t	 n.a.	 5.750042e-01
5	 7	 349	 unflanked	 rf	 12	 0.216700	 0.000000	 unflanked_rf_freq_12_amplitude_0.2167_rep_6_b_D.png	 D	 b	 b	 n.a.	 4.762401e-01
5	 7	 350	 unflanked	 rf	 5	 0.268300	 0.000000	 unflanked_rf_freq_5_amplitude_0.2683_rep_3_r_K.png	 K	 r	 r	 n.a.	 3.393107e-01
5	 7	 351	 unflanked	 rf	 3	 0.007500	 0.000000	 unflanked_rf_freq_3_amplitude_0.0075_rep_4_l_K.png	 K	 l	 r	 n.a.	 9.090043e-01
5	 7	 352	 unflanked	 rf	 12	 0.113300	 0.000000	 unflanked_rf_freq_12_amplitude_0.1133_rep_1_b_D.png	 D	 b	 b	 n.a.	 6.782856e-01
5	 7	 353	 unflanked	 rf	 4	 0.216700	 0.000000	 unflanked_rf_freq_4_amplitude_0.2167_rep_0_b_N.png	 N	 b	 b	 n.a.	 2.918366e-01
5	 7	 354	 unflanked	 rf	 5	 0.268300	 0.000000	 unflanked_rf_freq_5_amplitude_0.2683_rep_1_l_N.png	 N	 l	 l	 n.a.	 2.430065e-01
5	 7	 355	 unflanked	 rf	 2	 0.061700	 0.000000	 unflanked_rf_freq_2_amplitude_0.0617_rep_4_r_K.png	 K	 r	 r	 n.a.	 3.829893e-01
5	 7	 356	 unflanked	 rf	 3	 0.113300	 0.000000	 unflanked_rf_freq_3_amplitude_0.1133_rep_6_t_D.png	 D	 t	 t	 n.a.	 4.468699e-01
5	 7	 357	 unflanked	 rf	 3	 0.061700	 0.000000	 unflanked_rf_freq_3_amplitude_0.0617_rep_3_b_N.png	 N	 b	 r	 n.a.	 9.568622e-01
5	 7	 358	 unflanked	 rf	 4	 0.061700	 0.000000	 unflanked_rf_freq_4_amplitude_0.0617_rep_0_r_D.png	 D	 r	 r	 n.a.	 1.039677e+00
5	 7	 359	 unflanked	 rf	 12	 0.216700	 0.000000	 unflanked_rf_freq_12_amplitude_0.2167_rep_7_l_K.png	 K	 l	 l	 n.a.	 2.851380e-01
5	 7	 360	 unflanked	 rf	 2	 0.268300	 0.000000	 unflanked_rf_freq_2_amplitude_0.2683_rep_0_r_H.png	 H	 r	 r	 n.a.	 3.515829e-01
5	 7	 361	 unflanked	 rf	 8	 0.165000	 0.000000	 unflanked_rf_freq_8_amplitude_0.165_rep_1_b_N.png	 N	 b	 b	 n.a.	 2.644215e-01
5	 7	 362	 unflanked	 rf	 8	 0.113300	 0.000000	 unflanked_rf_freq_8_amplitude_0.1133_rep_3_r_H.png	 H	 r	 r	 n.a.	 3.139756e-01
5	 7	 363	 unflanked	 rf	 12	 0.061700	 0.000000	 unflanked_rf_freq_12_amplitude_0.0617_rep_5_r_D.png	 D	 r	 r	 n.a.	 2.485858e-01
5	 7	 364	 unflanked	 rf	 3	 0.268300	 0.000000	 unflanked_rf_freq_3_amplitude_0.2683_rep_3_t_H.png	 H	 t	 t	 n.a.	 4.410866e-01
5	 7	 365	 unflanked	 rf	 8	 0.007500	 0.000000	 unflanked_rf_freq_8_amplitude_0.0075_rep_8_t_N.png	 N	 t	 b	 n.a.	 9.325485e-01
5	 7	 366	 unflanked	 rf	 2	 0.113300	 0.000000	 unflanked_rf_freq_2_amplitude_0.1133_rep_1_b_D.png	 D	 b	 b	 n.a.	 4.927609e-01
5	 7	 367	 unflanked	 rf	 12	 0.216700	 0.000000	 unflanked_rf_freq_12_amplitude_0.2167_rep_3_r_N.png	 N	 r	 r	 n.a.	 3.135469e-01
5	 7	 368	 unflanked	 rf	 2	 0.216700	 0.000000	 unflanked_rf_freq_2_amplitude_0.2167_rep_1_l_D.png	 D	 l	 l	 n.a.	 2.695049e-01
5	 7	 369	 unflanked	 rf	 8	 0.165000	 0.000000	 unflanked_rf_freq_8_amplitude_0.165_rep_2_r_D.png	 D	 r	 r	 n.a.	 2.576833e-01
5	 7	 370	 unflanked	 rf	 12	 0.010000	 0.000000	 unflanked_rf_freq_12_amplitude_0.01_rep_3_l_K.png	 K	 l	 l	 n.a.	 5.380025e-01
5	 7	 371	 unflanked	 rf	 2	 0.010000	 0.000000	 unflanked_rf_freq_2_amplitude_0.01_rep_8_b_H.png	 H	 b	 b	 n.a.	 4.670602e-01
5	 7	 372	 unflanked	 rf	 3	 0.268300	 0.000000	 unflanked_rf_freq_3_amplitude_0.2683_rep_8_r_H.png	 H	 r	 r	 n.a.	 3.654088e-01
5	 7	 373	 unflanked	 rf	 5	 0.061700	 0.000000	 unflanked_rf_freq_5_amplitude_0.0617_rep_5_t_D.png	 D	 t	 t	 n.a.	 6.140491e-01
5	 7	 374	 unflanked	 rf	 8	 0.113300	 0.000000	 unflanked_rf_freq_8_amplitude_0.1133_rep_9_r_H.png	 H	 r	 r	 n.a.	 2.638513e-01
5	 7	 375	 unflanked	 rf	 5	 0.007500	 0.000000	 unflanked_rf_freq_5_amplitude_0.0075_rep_0_b_N.png	 N	 b	 t	 n.a.	 6.648940e-01
5	 7	 376	 unflanked	 rf	 3	 0.007500	 0.000000	 unflanked_rf_freq_3_amplitude_0.0075_rep_9_r_N.png	 N	 r	 b	 n.a.	 5.610513e-01
5	 7	 377	 unflanked	 rf	 8	 0.165000	 0.000000	 unflanked_rf_freq_8_amplitude_0.165_rep_5_l_N.png	 N	 l	 l	 n.a.	 3.090898e-01
5	 7	 378	 unflanked	 rf	 12	 0.165000	 0.000000	 unflanked_rf_freq_12_amplitude_0.165_rep_2_r_H.png	 H	 r	 r	 n.a.	 2.371927e-01
5	 7	 379	 unflanked	 rf	 2	 0.113300	 0.000000	 unflanked_rf_freq_2_amplitude_0.1133_rep_0_t_N.png	 N	 t	 t	 n.a.	 8.063411e-01
5	 7	 380	 unflanked	 rf	 3	 0.268300	 0.000000	 unflanked_rf_freq_3_amplitude_0.2683_rep_4_b_N.png	 N	 b	 b	 n.a.	 4.232541e-01
5	 7	 381	 unflanked	 rf	 2	 0.216700	 0.000000	 unflanked_rf_freq_2_amplitude_0.2167_rep_2_b_H.png	 H	 b	 b	 n.a.	 7.602353e-01
5	 7	 382	 unflanked	 rf	 5	 0.113300	 0.000000	 unflanked_rf_freq_5_amplitude_0.1133_rep_4_l_K.png	 K	 l	 l	 n.a.	 4.111002e-01
5	 7	 383	 unflanked	 rf	 8	 0.007500	 0.000000	 unflanked_rf_freq_8_amplitude_0.0075_rep_0_r_D.png	 D	 r	 t	 n.a.	 8.228036e-01
5	 7	 384	 unflanked	 rf	 8	 0.113300	 0.000000	 unflanked_rf_freq_8_amplitude_0.1133_rep_7_r_K.png	 K	 r	 r	 n.a.	 2.772356e-01
5	 7	 385	 unflanked	 rf	 4	 0.010000	 0.000000	 unflanked_rf_freq_4_amplitude_0.01_rep_6_b_N.png	 N	 b	 l	 n.a.	 4.008465e-01
5	 7	 386	 unflanked	 rf	 5	 0.010000	 0.000000	 unflanked_rf_freq_5_amplitude_0.01_rep_3_t_K.png	 K	 t	 r	 n.a.	 3.826225e-01
5	 7	 387	 unflanked	 rf	 4	 0.010000	 0.000000	 unflanked_rf_freq_4_amplitude_0.01_rep_2_l_K.png	 K	 l	 t	 n.a.	 5.951545e-01
5	 7	 388	 unflanked	 rf	 12	 0.216700	 0.000000	 unflanked_rf_freq_12_amplitude_0.2167_rep_0_b_N.png	 N	 b	 b	 n.a.	 4.194212e-01
5	 7	 389	 unflanked	 rf	 3	 0.113300	 0.000000	 unflanked_rf_freq_3_amplitude_0.1133_rep_1_t_N.png	 N	 t	 r	 n.a.	 9.849262e-01
5	 7	 390	 unflanked	 rf	 3	 0.216700	 0.000000	 unflanked_rf_freq_3_amplitude_0.2167_rep_8_l_K.png	 K	 l	 l	 n.a.	 3.700237e-01
5	 7	 391	 unflanked	 rf	 2	 0.061700	 0.000000	 unflanked_rf_freq_2_amplitude_0.0617_rep_9_b_H.png	 H	 b	 t	 n.a.	 6.828914e-01
5	 7	 392	 unflanked	 rf	 12	 0.113300	 0.000000	 unflanked_rf_freq_12_amplitude_0.1133_rep_2_b_D.png	 D	 b	 b	 n.a.	 3.565160e-01
5	 7	 393	 unflanked	 rf	 5	 0.061700	 0.000000	 unflanked_rf_freq_5_amplitude_0.0617_rep_9_r_H.png	 H	 r	 l	 n.a.	 8.403916e-01
5	 7	 394	 unflanked	 rf	 5	 0.165000	 0.000000	 unflanked_rf_freq_5_amplitude_0.165_rep_9_t_H.png	 H	 t	 t	 n.a.	 4.926106e-01
5	 7	 395	 unflanked	 rf	 8	 0.007500	 0.000000	 unflanked_rf_freq_8_amplitude_0.0075_rep_4_l_H.png	 H	 l	 r	 n.a.	 5.062925e-01
5	 7	 396	 unflanked	 rf	 3	 0.010000	 0.000000	 unflanked_rf_freq_3_amplitude_0.01_rep_1_r_N.png	 N	 r	 l	 n.a.	 8.796601e-01
5	 7	 397	 unflanked	 rf	 12	 0.061700	 0.000000	 unflanked_rf_freq_12_amplitude_0.0617_rep_8_l_K.png	 K	 l	 l	 n.a.	 4.781726e-01
5	 7	 398	 unflanked	 rf	 3	 0.165000	 0.000000	 unflanked_rf_freq_3_amplitude_0.165_rep_3_b_H.png	 H	 b	 b	 n.a.	 4.571812e-01
5	 7	 399	 unflanked	 rf	 4	 0.113300	 0.000000	 unflanked_rf_freq_4_amplitude_0.1133_rep_2_b_H.png	 H	 b	 t	 n.a.	 9.650818e-01
5	 7	 400	 unflanked	 rf	 8	 0.007500	 0.000000	 unflanked_rf_freq_8_amplitude_0.0075_rep_9_r_D.png	 D	 r	 l	 n.a.	 4.278991e-01
5	 7	 401	 unflanked	 rf	 4	 0.061700	 0.000000	 unflanked_rf_freq_4_amplitude_0.0617_rep_3_b_D.png	 D	 b	 b	 n.a.	 3.086354e-01
5	 7	 402	 unflanked	 rf	 12	 0.061700	 0.000000	 unflanked_rf_freq_12_amplitude_0.0617_rep_9_b_K.png	 K	 b	 b	 n.a.	 4.484889e-01
5	 7	 403	 unflanked	 rf	 2	 0.010000	 0.000000	 unflanked_rf_freq_2_amplitude_0.01_rep_1_l_N.png	 N	 l	 t	 n.a.	 1.006099e+00
5	 7	 404	 unflanked	 rf	 12	 0.113300	 0.000000	 unflanked_rf_freq_12_amplitude_0.1133_rep_9_l_K.png	 K	 l	 l	 n.a.	 2.482823e-01
5	 7	 405	 unflanked	 rf	 4	 0.061700	 0.000000	 unflanked_rf_freq_4_amplitude_0.0617_rep_2_l_D.png	 D	 l	 b	 n.a.	 9.927322e-01
5	 7	 406	 unflanked	 rf	 12	 0.061700	 0.000000	 unflanked_rf_freq_12_amplitude_0.0617_rep_1_t_N.png	 N	 t	 t	 n.a.	 5.202664e-01
5	 7	 407	 unflanked	 rf	 3	 0.113300	 0.000000	 unflanked_rf_freq_3_amplitude_0.1133_rep_9_l_K.png	 K	 l	 l	 n.a.	 4.767478e-01
5	 7	 408	 unflanked	 rf	 4	 0.061700	 0.000000	 unflanked_rf_freq_4_amplitude_0.0617_rep_4_b_H.png	 H	 b	 l	 n.a.	 6.553390e-01
5	 7	 409	 unflanked	 rf	 2	 0.113300	 0.000000	 unflanked_rf_freq_2_amplitude_0.1133_rep_7_t_D.png	 D	 t	 t	 n.a.	 4.445539e-01
5	 7	 410	 unflanked	 rf	 4	 0.268300	 0.000000	 unflanked_rf_freq_4_amplitude_0.2683_rep_5_t_N.png	 N	 t	 t	 n.a.	 3.779070e-01
5	 7	 411	 unflanked	 rf	 5	 0.061700	 0.000000	 unflanked_rf_freq_5_amplitude_0.0617_rep_7_l_D.png	 D	 l	 b	 n.a.	 9.883710e-01
5	 7	 412	 unflanked	 rf	 8	 0.216700	 0.000000	 unflanked_rf_freq_8_amplitude_0.2167_rep_4_l_K.png	 K	 l	 l	 n.a.	 2.709608e-01
5	 7	 413	 unflanked	 rf	 3	 0.010000	 0.000000	 unflanked_rf_freq_3_amplitude_0.01_rep_0_t_D.png	 D	 t	 t	 n.a.	 7.444816e-01
5	 7	 414	 unflanked	 rf	 5	 0.216700	 0.000000	 unflanked_rf_freq_5_amplitude_0.2167_rep_2_l_N.png	 N	 l	 l	 n.a.	 2.837184e-01
5	 7	 415	 unflanked	 rf	 2	 0.061700	 0.000000	 unflanked_rf_freq_2_amplitude_0.0617_rep_6_l_D.png	 D	 l	 b	 n.a.	 7.461931e-01
5	 7	 416	 unflanked	 rf	 4	 0.010000	 0.000000	 unflanked_rf_freq_4_amplitude_0.01_rep_7_r_K.png	 K	 r	 t	 n.a.	 1.116071e+00
5	 7	 417	 unflanked	 rf	 3	 0.165000	 0.000000	 unflanked_rf_freq_3_amplitude_0.165_rep_5_b_D.png	 D	 b	 b	 n.a.	 5.683549e-01
5	 7	 418	 unflanked	 rf	 4	 0.113300	 0.000000	 unflanked_rf_freq_4_amplitude_0.1133_rep_3_b_H.png	 H	 b	 r	 n.a.	 6.568532e-01
5	 7	 419	 unflanked	 rf	 8	 0.216700	 0.000000	 unflanked_rf_freq_8_amplitude_0.2167_rep_6_r_K.png	 K	 r	 r	 n.a.	 2.797802e-01
5	 7	 420	 unflanked	 rf	 2	 0.113300	 0.000000	 unflanked_rf_freq_2_amplitude_0.1133_rep_9_t_D.png	 D	 t	 t	 n.a.	 1.012658e+00
