subject	 session	 trial	 flanked	 distortion	 freq	 amplitude	 spacing	 im_name	 targ_letter	 targ_pos	 response	 eyemovement	 RT
2	 1	 1	 unflanked	 rf	 4	 0.061700	 0.000000	 unflanked_rf_freq_4_amplitude_0.0617_rep_3_b_D.png	 D	 b	 l	 n.a.	 4.434232e-01
2	 1	 2	 unflanked	 rf	 3	 0.061700	 0.000000	 unflanked_rf_freq_3_amplitude_0.0617_rep_8_t_D.png	 D	 t	 b	 n.a.	 5.093354e-01
2	 1	 3	 unflanked	 rf	 12	 0.268300	 0.000000	 unflanked_rf_freq_12_amplitude_0.2683_rep_7_r_H.png	 H	 r	 r	 n.a.	 3.280446e-01
2	 1	 4	 unflanked	 rf	 3	 0.061700	 0.000000	 unflanked_rf_freq_3_amplitude_0.0617_rep_6_t_D.png	 D	 t	 b	 n.a.	 3.385597e-01
2	 1	 5	 unflanked	 rf	 2	 0.165000	 0.000000	 unflanked_rf_freq_2_amplitude_0.165_rep_4_t_D.png	 D	 t	 l	 n.a.	 3.932677e-01
2	 1	 6	 unflanked	 rf	 3	 0.216700	 0.000000	 unflanked_rf_freq_3_amplitude_0.2167_rep_0_r_D.png	 D	 r	 r	 n.a.	 2.888199e-01
2	 1	 7	 unflanked	 rf	 12	 0.320000	 0.000000	 unflanked_rf_freq_12_amplitude_0.32_rep_2_t_N.png	 N	 t	 t	 n.a.	 3.027814e-01
2	 1	 8	 unflanked	 rf	 12	 0.268300	 0.000000	 unflanked_rf_freq_12_amplitude_0.2683_rep_4_r_D.png	 D	 r	 r	 n.a.	 2.524180e-01
2	 1	 9	 unflanked	 rf	 4	 0.165000	 0.000000	 unflanked_rf_freq_4_amplitude_0.165_rep_6_b_D.png	 D	 b	 b	 n.a.	 2.802481e-01
2	 1	 10	 unflanked	 rf	 5	 0.010000	 0.000000	 unflanked_rf_freq_5_amplitude_0.01_rep_4_r_K.png	 K	 r	 b	 n.a.	 3.322888e-01
2	 1	 11	 unflanked	 rf	 2	 0.010000	 0.000000	 unflanked_rf_freq_2_amplitude_0.01_rep_9_t_N.png	 N	 t	 b	 n.a.	 3.141893e-01
2	 1	 12	 unflanked	 rf	 12	 0.061700	 0.000000	 unflanked_rf_freq_12_amplitude_0.0617_rep_3_b_H.png	 H	 b	 b	 n.a.	 6.233791e-01
2	 1	 13	 unflanked	 rf	 2	 0.113300	 0.000000	 unflanked_rf_freq_2_amplitude_0.1133_rep_2_r_D.png	 D	 r	 r	 n.a.	 7.337242e-01
2	 1	 14	 unflanked	 rf	 4	 0.216700	 0.000000	 unflanked_rf_freq_4_amplitude_0.2167_rep_2_b_D.png	 D	 b	 b	 n.a.	 3.041915e-01
2	 1	 15	 unflanked	 rf	 3	 0.165000	 0.000000	 unflanked_rf_freq_3_amplitude_0.165_rep_5_b_D.png	 D	 b	 b	 n.a.	 2.811504e-01
2	 1	 16	 unflanked	 rf	 12	 0.268300	 0.000000	 unflanked_rf_freq_12_amplitude_0.2683_rep_8_r_D.png	 D	 r	 r	 n.a.	 2.620960e-01
2	 1	 17	 unflanked	 rf	 8	 0.061700	 0.000000	 unflanked_rf_freq_8_amplitude_0.0617_rep_4_r_N.png	 N	 r	 b	 n.a.	 4.382828e-01
2	 1	 18	 unflanked	 rf	 3	 0.320000	 0.000000	 unflanked_rf_freq_3_amplitude_0.32_rep_1_b_H.png	 H	 b	 b	 n.a.	 2.941124e-01
2	 1	 19	 unflanked	 rf	 8	 0.268300	 0.000000	 unflanked_rf_freq_8_amplitude_0.2683_rep_0_t_K.png	 K	 t	 t	 n.a.	 3.398470e-01
2	 1	 20	 unflanked	 rf	 4	 0.010000	 0.000000	 unflanked_rf_freq_4_amplitude_0.01_rep_0_b_N.png	 N	 b	 l	 n.a.	 3.811913e-01
2	 1	 21	 unflanked	 rf	 12	 0.320000	 0.000000	 unflanked_rf_freq_12_amplitude_0.32_rep_8_t_K.png	 K	 t	 t	 n.a.	 2.590339e-01
2	 1	 22	 unflanked	 rf	 12	 0.320000	 0.000000	 unflanked_rf_freq_12_amplitude_0.32_rep_9_t_N.png	 N	 t	 t	 n.a.	 2.630391e-01
2	 1	 23	 unflanked	 rf	 2	 0.010000	 0.000000	 unflanked_rf_freq_2_amplitude_0.01_rep_6_t_H.png	 H	 t	 t	 n.a.	 3.475923e-01
2	 1	 24	 unflanked	 rf	 12	 0.010000	 0.000000	 unflanked_rf_freq_12_amplitude_0.01_rep_4_t_D.png	 D	 t	 b	 n.a.	 2.665473e-01
2	 1	 25	 unflanked	 rf	 8	 0.061700	 0.000000	 unflanked_rf_freq_8_amplitude_0.0617_rep_5_t_K.png	 K	 t	 b	 n.a.	 3.808033e-01
2	 1	 26	 unflanked	 rf	 2	 0.061700	 0.000000	 unflanked_rf_freq_2_amplitude_0.0617_rep_9_b_H.png	 H	 b	 b	 n.a.	 5.208748e-01
2	 1	 27	 unflanked	 rf	 2	 0.113300	 0.000000	 unflanked_rf_freq_2_amplitude_0.1133_rep_0_t_N.png	 N	 t	 t	 n.a.	 3.978189e-01
2	 1	 28	 unflanked	 rf	 4	 0.216700	 0.000000	 unflanked_rf_freq_4_amplitude_0.2167_rep_6_b_D.png	 D	 b	 b	 n.a.	 3.156806e-01
2	 1	 29	 unflanked	 rf	 4	 0.268300	 0.000000	 unflanked_rf_freq_4_amplitude_0.2683_rep_6_b_H.png	 H	 b	 b	 n.a.	 2.732666e-01
2	 1	 30	 unflanked	 rf	 5	 0.165000	 0.000000	 unflanked_rf_freq_5_amplitude_0.165_rep_9_t_H.png	 H	 t	 t	 n.a.	 3.495747e-01
2	 1	 31	 unflanked	 rf	 5	 0.320000	 0.000000	 unflanked_rf_freq_5_amplitude_0.32_rep_5_r_K.png	 K	 r	 r	 n.a.	 2.139201e-01
2	 1	 32	 unflanked	 rf	 5	 0.061700	 0.000000	 unflanked_rf_freq_5_amplitude_0.0617_rep_0_r_H.png	 H	 r	 b	 n.a.	 3.135526e-01
2	 1	 33	 unflanked	 rf	 3	 0.165000	 0.000000	 unflanked_rf_freq_3_amplitude_0.165_rep_2_l_D.png	 D	 l	 b	 n.a.	 3.050774e-01
2	 1	 34	 unflanked	 rf	 12	 0.268300	 0.000000	 unflanked_rf_freq_12_amplitude_0.2683_rep_0_b_K.png	 K	 b	 b	 n.a.	 2.253487e-01
2	 1	 35	 unflanked	 rf	 8	 0.216700	 0.000000	 unflanked_rf_freq_8_amplitude_0.2167_rep_4_l_K.png	 K	 l	 l	 n.a.	 2.671719e-01
2	 1	 36	 unflanked	 rf	 3	 0.061700	 0.000000	 unflanked_rf_freq_3_amplitude_0.0617_rep_4_l_N.png	 N	 l	 b	 n.a.	 3.221013e-01
2	 1	 37	 unflanked	 rf	 8	 0.113300	 0.000000	 unflanked_rf_freq_8_amplitude_0.1133_rep_7_r_K.png	 K	 r	 b	 n.a.	 4.251275e-01
2	 1	 38	 unflanked	 rf	 2	 0.061700	 0.000000	 unflanked_rf_freq_2_amplitude_0.0617_rep_1_r_N.png	 N	 r	 l	 n.a.	 3.771715e-01
2	 1	 39	 unflanked	 rf	 2	 0.216700	 0.000000	 unflanked_rf_freq_2_amplitude_0.2167_rep_5_r_H.png	 H	 r	 r	 n.a.	 3.064462e-01
2	 1	 40	 unflanked	 rf	 3	 0.010000	 0.000000	 unflanked_rf_freq_3_amplitude_0.01_rep_4_b_K.png	 K	 b	 b	 n.a.	 2.715315e-01
2	 1	 41	 unflanked	 rf	 5	 0.320000	 0.000000	 unflanked_rf_freq_5_amplitude_0.32_rep_1_r_D.png	 D	 r	 r	 n.a.	 2.298992e-01
2	 1	 42	 unflanked	 rf	 5	 0.165000	 0.000000	 unflanked_rf_freq_5_amplitude_0.165_rep_6_t_D.png	 D	 t	 t	 n.a.	 3.042375e-01
2	 1	 43	 unflanked	 rf	 5	 0.113300	 0.000000	 unflanked_rf_freq_5_amplitude_0.1133_rep_5_r_K.png	 K	 r	 b	 n.a.	 4.239162e-01
2	 1	 44	 unflanked	 rf	 5	 0.010000	 0.000000	 unflanked_rf_freq_5_amplitude_0.01_rep_2_b_K.png	 K	 b	 b	 n.a.	 2.981639e-01
2	 1	 45	 unflanked	 rf	 4	 0.113300	 0.000000	 unflanked_rf_freq_4_amplitude_0.1133_rep_9_l_D.png	 D	 l	 l	 n.a.	 3.990138e-01
2	 1	 46	 unflanked	 rf	 12	 0.268300	 0.000000	 unflanked_rf_freq_12_amplitude_0.2683_rep_2_l_H.png	 H	 l	 l	 n.a.	 2.348350e-01
2	 1	 47	 unflanked	 rf	 2	 0.113300	 0.000000	 unflanked_rf_freq_2_amplitude_0.1133_rep_8_l_N.png	 N	 l	 l	 n.a.	 4.479407e-01
2	 1	 48	 unflanked	 rf	 2	 0.216700	 0.000000	 unflanked_rf_freq_2_amplitude_0.2167_rep_1_l_D.png	 D	 l	 l	 n.a.	 3.365818e-01
2	 1	 49	 unflanked	 rf	 2	 0.165000	 0.000000	 unflanked_rf_freq_2_amplitude_0.165_rep_0_l_D.png	 D	 l	 l	 n.a.	 4.515474e-01
2	 1	 50	 unflanked	 rf	 2	 0.010000	 0.000000	 unflanked_rf_freq_2_amplitude_0.01_rep_2_r_D.png	 D	 r	 b	 n.a.	 3.145089e-01
2	 1	 51	 unflanked	 rf	 5	 0.268300	 0.000000	 unflanked_rf_freq_5_amplitude_0.2683_rep_0_r_N.png	 N	 r	 r	 n.a.	 3.004426e-01
2	 1	 52	 unflanked	 rf	 5	 0.216700	 0.000000	 unflanked_rf_freq_5_amplitude_0.2167_rep_9_t_K.png	 K	 t	 b	 n.a.	 4.613011e-01
2	 1	 53	 unflanked	 rf	 2	 0.320000	 0.000000	 unflanked_rf_freq_2_amplitude_0.32_rep_4_t_H.png	 H	 t	 t	 n.a.	 3.064569e-01
2	 1	 54	 unflanked	 rf	 12	 0.010000	 0.000000	 unflanked_rf_freq_12_amplitude_0.01_rep_3_l_K.png	 K	 l	 l	 n.a.	 3.898535e-01
2	 1	 55	 unflanked	 rf	 4	 0.268300	 0.000000	 unflanked_rf_freq_4_amplitude_0.2683_rep_5_t_N.png	 N	 t	 t	 n.a.	 6.075527e-01
2	 1	 56	 unflanked	 rf	 3	 0.010000	 0.000000	 unflanked_rf_freq_3_amplitude_0.01_rep_9_t_N.png	 N	 t	 b	 n.a.	 3.634052e-01
2	 1	 57	 unflanked	 rf	 2	 0.061700	 0.000000	 unflanked_rf_freq_2_amplitude_0.0617_rep_6_l_D.png	 D	 l	 l	 n.a.	 4.991912e-01
2	 1	 58	 unflanked	 rf	 4	 0.113300	 0.000000	 unflanked_rf_freq_4_amplitude_0.1133_rep_6_t_N.png	 N	 t	 l	 n.a.	 6.652480e-01
2	 1	 59	 unflanked	 rf	 12	 0.320000	 0.000000	 unflanked_rf_freq_12_amplitude_0.32_rep_1_r_N.png	 N	 r	 r	 n.a.	 3.055320e-01
2	 1	 60	 unflanked	 rf	 5	 0.010000	 0.000000	 unflanked_rf_freq_5_amplitude_0.01_rep_0_r_N.png	 N	 r	 b	 n.a.	 3.670559e-01
2	 1	 61	 unflanked	 rf	 8	 0.010000	 0.000000	 unflanked_rf_freq_8_amplitude_0.01_rep_6_t_H.png	 H	 t	 b	 n.a.	 5.425855e-01
2	 1	 62	 unflanked	 rf	 3	 0.113300	 0.000000	 unflanked_rf_freq_3_amplitude_0.1133_rep_3_b_N.png	 N	 b	 l	 n.a.	 3.602052e-01
2	 1	 63	 unflanked	 rf	 3	 0.010000	 0.000000	 unflanked_rf_freq_3_amplitude_0.01_rep_2_r_H.png	 H	 r	 b	 n.a.	 4.094403e-01
2	 1	 64	 unflanked	 rf	 3	 0.113300	 0.000000	 unflanked_rf_freq_3_amplitude_0.1133_rep_0_t_N.png	 N	 t	 l	 n.a.	 4.233233e-01
2	 1	 65	 unflanked	 rf	 12	 0.061700	 0.000000	 unflanked_rf_freq_12_amplitude_0.0617_rep_5_r_D.png	 D	 r	 r	 n.a.	 2.760835e-01
2	 1	 66	 unflanked	 rf	 2	 0.165000	 0.000000	 unflanked_rf_freq_2_amplitude_0.165_rep_2_r_H.png	 H	 r	 b	 n.a.	 3.989735e-01
2	 1	 67	 unflanked	 rf	 8	 0.061700	 0.000000	 unflanked_rf_freq_8_amplitude_0.0617_rep_0_b_H.png	 H	 b	 b	 n.a.	 3.758307e-01
2	 1	 68	 unflanked	 rf	 4	 0.165000	 0.000000	 unflanked_rf_freq_4_amplitude_0.165_rep_0_r_K.png	 K	 r	 b	 n.a.	 8.872190e-01
2	 1	 69	 unflanked	 rf	 4	 0.320000	 0.000000	 unflanked_rf_freq_4_amplitude_0.32_rep_7_r_H.png	 H	 r	 r	 n.a.	 2.755821e-01
2	 1	 70	 unflanked	 rf	 2	 0.113300	 0.000000	 unflanked_rf_freq_2_amplitude_0.1133_rep_1_b_D.png	 D	 b	 b	 n.a.	 3.386776e-01
2	 1	 71	 unflanked	 rf	 4	 0.010000	 0.000000	 unflanked_rf_freq_4_amplitude_0.01_rep_5_r_K.png	 K	 r	 l	 n.a.	 5.746710e-01
2	 1	 72	 unflanked	 rf	 12	 0.113300	 0.000000	 unflanked_rf_freq_12_amplitude_0.1133_rep_0_l_K.png	 K	 l	 l	 n.a.	 3.771044e-01
2	 1	 73	 unflanked	 rf	 8	 0.010000	 0.000000	 unflanked_rf_freq_8_amplitude_0.01_rep_9_l_N.png	 N	 l	 b	 n.a.	 3.130015e-01
2	 1	 74	 unflanked	 rf	 2	 0.216700	 0.000000	 unflanked_rf_freq_2_amplitude_0.2167_rep_8_t_D.png	 D	 t	 t	 n.a.	 3.970931e-01
2	 1	 75	 unflanked	 rf	 5	 0.113300	 0.000000	 unflanked_rf_freq_5_amplitude_0.1133_rep_4_l_K.png	 K	 l	 l	 n.a.	 3.460726e-01
2	 1	 76	 unflanked	 rf	 3	 0.165000	 0.000000	 unflanked_rf_freq_3_amplitude_0.165_rep_4_r_N.png	 N	 r	 r	 n.a.	 3.391987e-01
2	 1	 77	 unflanked	 rf	 3	 0.113300	 0.000000	 unflanked_rf_freq_3_amplitude_0.1133_rep_2_r_H.png	 H	 r	 r	 n.a.	 2.911899e-01
2	 1	 78	 unflanked	 rf	 4	 0.061700	 0.000000	 unflanked_rf_freq_4_amplitude_0.0617_rep_0_r_D.png	 D	 r	 l	 n.a.	 4.666016e-01
2	 1	 79	 unflanked	 rf	 12	 0.113300	 0.000000	 unflanked_rf_freq_12_amplitude_0.1133_rep_8_r_H.png	 H	 r	 r	 n.a.	 3.310629e-01
2	 1	 80	 unflanked	 rf	 3	 0.320000	 0.000000	 unflanked_rf_freq_3_amplitude_0.32_rep_4_r_N.png	 N	 r	 r	 n.a.	 3.153162e-01
2	 1	 81	 unflanked	 rf	 12	 0.268300	 0.000000	 unflanked_rf_freq_12_amplitude_0.2683_rep_1_b_N.png	 N	 b	 b	 n.a.	 2.588515e-01
2	 1	 82	 unflanked	 rf	 8	 0.268300	 0.000000	 unflanked_rf_freq_8_amplitude_0.2683_rep_4_r_H.png	 H	 r	 r	 n.a.	 2.163578e-01
2	 1	 83	 unflanked	 rf	 4	 0.320000	 0.000000	 unflanked_rf_freq_4_amplitude_0.32_rep_1_t_H.png	 H	 t	 t	 n.a.	 3.829619e-01
2	 1	 84	 unflanked	 rf	 8	 0.165000	 0.000000	 unflanked_rf_freq_8_amplitude_0.165_rep_4_r_H.png	 H	 r	 r	 n.a.	 2.940237e-01
2	 1	 85	 unflanked	 rf	 3	 0.320000	 0.000000	 unflanked_rf_freq_3_amplitude_0.32_rep_6_l_N.png	 N	 l	 l	 n.a.	 3.314843e-01
2	 1	 86	 unflanked	 rf	 4	 0.061700	 0.000000	 unflanked_rf_freq_4_amplitude_0.0617_rep_2_l_D.png	 D	 l	 b	 n.a.	 4.520392e-01
2	 1	 87	 unflanked	 rf	 3	 0.061700	 0.000000	 unflanked_rf_freq_3_amplitude_0.0617_rep_9_l_H.png	 H	 l	 l	 n.a.	 3.431458e-01
2	 1	 88	 unflanked	 rf	 5	 0.320000	 0.000000	 unflanked_rf_freq_5_amplitude_0.32_rep_9_t_D.png	 D	 t	 t	 n.a.	 3.110060e-01
2	 1	 89	 unflanked	 rf	 4	 0.320000	 0.000000	 unflanked_rf_freq_4_amplitude_0.32_rep_2_l_H.png	 H	 l	 l	 n.a.	 2.904705e-01
2	 1	 90	 unflanked	 rf	 8	 0.216700	 0.000000	 unflanked_rf_freq_8_amplitude_0.2167_rep_7_l_N.png	 N	 l	 l	 n.a.	 2.932479e-01
2	 1	 91	 unflanked	 rf	 12	 0.113300	 0.000000	 unflanked_rf_freq_12_amplitude_0.1133_rep_3_r_H.png	 H	 r	 r	 n.a.	 2.635842e-01
2	 1	 92	 unflanked	 rf	 8	 0.165000	 0.000000	 unflanked_rf_freq_8_amplitude_0.165_rep_6_b_H.png	 H	 b	 b	 n.a.	 2.945027e-01
2	 1	 93	 unflanked	 rf	 4	 0.165000	 0.000000	 unflanked_rf_freq_4_amplitude_0.165_rep_1_b_H.png	 H	 b	 b	 n.a.	 2.823259e-01
2	 1	 94	 unflanked	 rf	 12	 0.113300	 0.000000	 unflanked_rf_freq_12_amplitude_0.1133_rep_2_b_D.png	 D	 b	 b	 n.a.	 2.495654e-01
2	 1	 95	 unflanked	 rf	 8	 0.010000	 0.000000	 unflanked_rf_freq_8_amplitude_0.01_rep_4_r_H.png	 H	 r	 b	 n.a.	 2.713273e-01
2	 1	 96	 unflanked	 rf	 12	 0.268300	 0.000000	 unflanked_rf_freq_12_amplitude_0.2683_rep_9_l_K.png	 K	 l	 l	 n.a.	 2.519477e-01
2	 1	 97	 unflanked	 rf	 2	 0.061700	 0.000000	 unflanked_rf_freq_2_amplitude_0.0617_rep_4_r_K.png	 K	 r	 r	 n.a.	 3.827915e-01
2	 1	 98	 unflanked	 rf	 3	 0.216700	 0.000000	 unflanked_rf_freq_3_amplitude_0.2167_rep_5_b_D.png	 D	 b	 b	 n.a.	 2.877863e-01
2	 1	 99	 unflanked	 rf	 3	 0.061700	 0.000000	 unflanked_rf_freq_3_amplitude_0.0617_rep_7_b_K.png	 K	 b	 b	 n.a.	 2.541637e-01
2	 1	 100	 unflanked	 rf	 3	 0.113300	 0.000000	 unflanked_rf_freq_3_amplitude_0.1133_rep_7_b_D.png	 D	 b	 b	 n.a.	 4.073365e-01
2	 1	 101	 unflanked	 rf	 5	 0.061700	 0.000000	 unflanked_rf_freq_5_amplitude_0.0617_rep_3_r_K.png	 K	 r	 b	 n.a.	 2.967408e-01
2	 1	 102	 unflanked	 rf	 3	 0.216700	 0.000000	 unflanked_rf_freq_3_amplitude_0.2167_rep_7_b_K.png	 K	 b	 b	 n.a.	 3.482230e-01
2	 1	 103	 unflanked	 rf	 2	 0.010000	 0.000000	 unflanked_rf_freq_2_amplitude_0.01_rep_7_l_H.png	 H	 l	 b	 n.a.	 3.168018e-01
2	 1	 104	 unflanked	 rf	 5	 0.165000	 0.000000	 unflanked_rf_freq_5_amplitude_0.165_rep_1_b_N.png	 N	 b	 b	 n.a.	 2.819932e-01
2	 1	 105	 unflanked	 rf	 8	 0.320000	 0.000000	 unflanked_rf_freq_8_amplitude_0.32_rep_4_l_D.png	 D	 l	 l	 n.a.	 2.713031e-01
2	 1	 106	 unflanked	 rf	 5	 0.010000	 0.000000	 unflanked_rf_freq_5_amplitude_0.01_rep_7_l_N.png	 N	 l	 b	 n.a.	 2.876516e-01
2	 1	 107	 unflanked	 rf	 5	 0.113300	 0.000000	 unflanked_rf_freq_5_amplitude_0.1133_rep_0_t_H.png	 H	 t	 t	 n.a.	 4.674531e-01
2	 1	 108	 unflanked	 rf	 2	 0.320000	 0.000000	 unflanked_rf_freq_2_amplitude_0.32_rep_0_l_D.png	 D	 l	 l	 n.a.	 3.710474e-01
2	 1	 109	 unflanked	 rf	 4	 0.010000	 0.000000	 unflanked_rf_freq_4_amplitude_0.01_rep_3_t_D.png	 D	 t	 b	 n.a.	 3.290701e-01
2	 1	 110	 unflanked	 rf	 4	 0.010000	 0.000000	 unflanked_rf_freq_4_amplitude_0.01_rep_4_b_D.png	 D	 b	 l	 n.a.	 4.108076e-01
2	 1	 111	 unflanked	 rf	 3	 0.061700	 0.000000	 unflanked_rf_freq_3_amplitude_0.0617_rep_2_r_N.png	 N	 r	 b	 n.a.	 2.537037e-01
2	 1	 112	 unflanked	 rf	 5	 0.113300	 0.000000	 unflanked_rf_freq_5_amplitude_0.1133_rep_6_l_H.png	 H	 l	 l	 n.a.	 3.781505e-01
2	 1	 113	 unflanked	 rf	 5	 0.320000	 0.000000	 unflanked_rf_freq_5_amplitude_0.32_rep_0_b_N.png	 N	 b	 b	 n.a.	 2.645770e-01
2	 1	 114	 unflanked	 rf	 4	 0.165000	 0.000000	 unflanked_rf_freq_4_amplitude_0.165_rep_5_b_H.png	 H	 b	 b	 n.a.	 4.080068e-01
2	 1	 115	 unflanked	 rf	 12	 0.061700	 0.000000	 unflanked_rf_freq_12_amplitude_0.0617_rep_7_b_D.png	 D	 b	 b	 n.a.	 5.418874e-01
2	 1	 116	 unflanked	 rf	 3	 0.010000	 0.000000	 unflanked_rf_freq_3_amplitude_0.01_rep_6_r_K.png	 K	 r	 b	 n.a.	 4.910772e-01
2	 1	 117	 unflanked	 rf	 3	 0.010000	 0.000000	 unflanked_rf_freq_3_amplitude_0.01_rep_3_t_N.png	 N	 t	 l	 n.a.	 6.516439e-01
2	 1	 118	 unflanked	 rf	 8	 0.165000	 0.000000	 unflanked_rf_freq_8_amplitude_0.165_rep_1_b_N.png	 N	 b	 b	 n.a.	 3.598790e-01
2	 1	 119	 unflanked	 rf	 3	 0.165000	 0.000000	 unflanked_rf_freq_3_amplitude_0.165_rep_1_b_H.png	 H	 b	 b	 n.a.	 2.690976e-01
2	 1	 120	 unflanked	 rf	 3	 0.113300	 0.000000	 unflanked_rf_freq_3_amplitude_0.1133_rep_1_t_N.png	 N	 t	 t	 n.a.	 3.976665e-01
2	 1	 121	 unflanked	 rf	 5	 0.268300	 0.000000	 unflanked_rf_freq_5_amplitude_0.2683_rep_1_l_N.png	 N	 l	 l	 n.a.	 3.520468e-01
2	 1	 122	 unflanked	 rf	 2	 0.216700	 0.000000	 unflanked_rf_freq_2_amplitude_0.2167_rep_0_b_N.png	 N	 b	 b	 n.a.	 3.065485e-01
2	 1	 123	 unflanked	 rf	 4	 0.320000	 0.000000	 unflanked_rf_freq_4_amplitude_0.32_rep_6_t_N.png	 N	 t	 t	 n.a.	 3.234847e-01
2	 1	 124	 unflanked	 rf	 4	 0.010000	 0.000000	 unflanked_rf_freq_4_amplitude_0.01_rep_2_l_K.png	 K	 l	 l	 n.a.	 4.284837e-01
2	 1	 125	 unflanked	 rf	 12	 0.113300	 0.000000	 unflanked_rf_freq_12_amplitude_0.1133_rep_1_b_D.png	 D	 b	 b	 n.a.	 3.912047e-01
2	 1	 126	 unflanked	 rf	 5	 0.061700	 0.000000	 unflanked_rf_freq_5_amplitude_0.0617_rep_8_t_N.png	 N	 t	 l	 n.a.	 4.555664e-01
2	 1	 127	 unflanked	 rf	 4	 0.165000	 0.000000	 unflanked_rf_freq_4_amplitude_0.165_rep_8_l_K.png	 K	 l	 l	 n.a.	 3.386317e-01
2	 1	 128	 unflanked	 rf	 4	 0.268300	 0.000000	 unflanked_rf_freq_4_amplitude_0.2683_rep_8_t_H.png	 H	 t	 t	 n.a.	 4.312773e-01
2	 1	 129	 unflanked	 rf	 5	 0.320000	 0.000000	 unflanked_rf_freq_5_amplitude_0.32_rep_7_t_H.png	 H	 t	 t	 n.a.	 3.004424e-01
2	 1	 130	 unflanked	 rf	 4	 0.061700	 0.000000	 unflanked_rf_freq_4_amplitude_0.0617_rep_9_b_D.png	 D	 b	 b	 n.a.	 6.501188e-01
2	 1	 131	 unflanked	 rf	 5	 0.268300	 0.000000	 unflanked_rf_freq_5_amplitude_0.2683_rep_6_l_D.png	 D	 l	 l	 n.a.	 3.404866e-01
2	 1	 132	 unflanked	 rf	 3	 0.010000	 0.000000	 unflanked_rf_freq_3_amplitude_0.01_rep_7_b_K.png	 K	 b	 b	 n.a.	 3.176879e-01
2	 1	 133	 unflanked	 rf	 2	 0.320000	 0.000000	 unflanked_rf_freq_2_amplitude_0.32_rep_6_l_H.png	 H	 l	 l	 n.a.	 2.563655e-01
2	 1	 134	 unflanked	 rf	 12	 0.010000	 0.000000	 unflanked_rf_freq_12_amplitude_0.01_rep_5_t_H.png	 H	 t	 l	 n.a.	 3.595249e-01
2	 1	 135	 unflanked	 rf	 8	 0.165000	 0.000000	 unflanked_rf_freq_8_amplitude_0.165_rep_0_r_N.png	 N	 r	 r	 n.a.	 2.943752e-01
2	 1	 136	 unflanked	 rf	 12	 0.216700	 0.000000	 unflanked_rf_freq_12_amplitude_0.2167_rep_9_t_D.png	 D	 t	 t	 n.a.	 3.518157e-01
2	 1	 137	 unflanked	 rf	 5	 0.268300	 0.000000	 unflanked_rf_freq_5_amplitude_0.2683_rep_5_l_N.png	 N	 l	 l	 n.a.	 2.608224e-01
2	 1	 138	 unflanked	 rf	 4	 0.061700	 0.000000	 unflanked_rf_freq_4_amplitude_0.0617_rep_4_b_H.png	 H	 b	 b	 n.a.	 4.099313e-01
2	 1	 139	 unflanked	 rf	 5	 0.216700	 0.000000	 unflanked_rf_freq_5_amplitude_0.2167_rep_6_r_H.png	 H	 r	 r	 n.a.	 2.768207e-01
2	 1	 140	 unflanked	 rf	 3	 0.268300	 0.000000	 unflanked_rf_freq_3_amplitude_0.2683_rep_2_r_N.png	 N	 r	 r	 n.a.	 2.796625e-01
2	 1	 141	 unflanked	 rf	 8	 0.010000	 0.000000	 unflanked_rf_freq_8_amplitude_0.01_rep_5_r_H.png	 H	 r	 l	 n.a.	 7.488895e-01
2	 1	 142	 unflanked	 rf	 5	 0.165000	 0.000000	 unflanked_rf_freq_5_amplitude_0.165_rep_7_t_K.png	 K	 t	 t	 n.a.	 5.223840e-01
2	 1	 143	 unflanked	 rf	 3	 0.320000	 0.000000	 unflanked_rf_freq_3_amplitude_0.32_rep_7_t_H.png	 H	 t	 t	 n.a.	 3.398704e-01
2	 1	 144	 unflanked	 rf	 12	 0.113300	 0.000000	 unflanked_rf_freq_12_amplitude_0.1133_rep_4_b_D.png	 D	 b	 b	 n.a.	 2.646755e-01
2	 1	 145	 unflanked	 rf	 8	 0.113300	 0.000000	 unflanked_rf_freq_8_amplitude_0.1133_rep_4_b_N.png	 N	 b	 t	 n.a.	 4.778011e-01
2	 1	 146	 unflanked	 rf	 3	 0.268300	 0.000000	 unflanked_rf_freq_3_amplitude_0.2683_rep_7_r_K.png	 K	 r	 r	 n.a.	 2.708557e-01
2	 1	 147	 unflanked	 rf	 12	 0.216700	 0.000000	 unflanked_rf_freq_12_amplitude_0.2167_rep_0_b_N.png	 N	 b	 b	 n.a.	 2.563064e-01
2	 1	 148	 unflanked	 rf	 3	 0.320000	 0.000000	 unflanked_rf_freq_3_amplitude_0.32_rep_5_b_H.png	 H	 b	 b	 n.a.	 2.292787e-01
2	 1	 149	 unflanked	 rf	 4	 0.320000	 0.000000	 unflanked_rf_freq_4_amplitude_0.32_rep_3_b_D.png	 D	 b	 b	 n.a.	 2.489328e-01
2	 1	 150	 unflanked	 rf	 4	 0.113300	 0.000000	 unflanked_rf_freq_4_amplitude_0.1133_rep_8_l_H.png	 H	 l	 l	 n.a.	 4.258737e-01
2	 1	 151	 unflanked	 rf	 12	 0.320000	 0.000000	 unflanked_rf_freq_12_amplitude_0.32_rep_4_t_N.png	 N	 t	 t	 n.a.	 3.199068e-01
2	 1	 152	 unflanked	 rf	 8	 0.216700	 0.000000	 unflanked_rf_freq_8_amplitude_0.2167_rep_3_l_D.png	 D	 l	 l	 n.a.	 3.019492e-01
2	 1	 153	 unflanked	 rf	 4	 0.061700	 0.000000	 unflanked_rf_freq_4_amplitude_0.0617_rep_1_l_H.png	 H	 l	 b	 n.a.	 2.351413e-01
2	 1	 154	 unflanked	 rf	 3	 0.010000	 0.000000	 unflanked_rf_freq_3_amplitude_0.01_rep_1_r_N.png	 N	 r	 b	 n.a.	 5.277596e-01
2	 1	 155	 unflanked	 rf	 8	 0.113300	 0.000000	 unflanked_rf_freq_8_amplitude_0.1133_rep_0_r_H.png	 H	 r	 r	 n.a.	 2.363768e-01
2	 1	 156	 unflanked	 rf	 2	 0.268300	 0.000000	 unflanked_rf_freq_2_amplitude_0.2683_rep_9_t_H.png	 H	 t	 t	 n.a.	 3.099566e-01
2	 1	 157	 unflanked	 rf	 12	 0.061700	 0.000000	 unflanked_rf_freq_12_amplitude_0.0617_rep_8_l_K.png	 K	 l	 l	 n.a.	 3.803787e-01
2	 1	 158	 unflanked	 rf	 3	 0.216700	 0.000000	 unflanked_rf_freq_3_amplitude_0.2167_rep_8_l_K.png	 K	 l	 l	 n.a.	 3.108323e-01
2	 1	 159	 unflanked	 rf	 4	 0.268300	 0.000000	 unflanked_rf_freq_4_amplitude_0.2683_rep_3_r_D.png	 D	 r	 r	 n.a.	 2.578169e-01
2	 1	 160	 unflanked	 rf	 4	 0.320000	 0.000000	 unflanked_rf_freq_4_amplitude_0.32_rep_9_t_H.png	 H	 t	 t	 n.a.	 3.181633e-01
2	 1	 161	 unflanked	 rf	 3	 0.113300	 0.000000	 unflanked_rf_freq_3_amplitude_0.1133_rep_9_l_K.png	 K	 l	 b	 n.a.	 4.291448e-01
2	 1	 162	 unflanked	 rf	 12	 0.165000	 0.000000	 unflanked_rf_freq_12_amplitude_0.165_rep_3_r_H.png	 H	 r	 r	 n.a.	 3.408535e-01
2	 1	 163	 unflanked	 rf	 12	 0.216700	 0.000000	 unflanked_rf_freq_12_amplitude_0.2167_rep_4_t_H.png	 H	 t	 t	 n.a.	 3.532116e-01
2	 1	 164	 unflanked	 rf	 8	 0.061700	 0.000000	 unflanked_rf_freq_8_amplitude_0.0617_rep_8_b_N.png	 N	 b	 b	 n.a.	 3.097755e-01
2	 1	 165	 unflanked	 rf	 2	 0.010000	 0.000000	 unflanked_rf_freq_2_amplitude_0.01_rep_3_t_N.png	 N	 t	 b	 n.a.	 2.505155e-01
2	 1	 166	 unflanked	 rf	 3	 0.010000	 0.000000	 unflanked_rf_freq_3_amplitude_0.01_rep_0_t_D.png	 D	 t	 l	 n.a.	 3.360132e-01
2	 1	 167	 unflanked	 rf	 4	 0.320000	 0.000000	 unflanked_rf_freq_4_amplitude_0.32_rep_5_r_D.png	 D	 r	 r	 n.a.	 2.742458e-01
2	 1	 168	 unflanked	 rf	 4	 0.216700	 0.000000	 unflanked_rf_freq_4_amplitude_0.2167_rep_1_r_D.png	 D	 r	 r	 n.a.	 2.634432e-01
2	 1	 169	 unflanked	 rf	 8	 0.010000	 0.000000	 unflanked_rf_freq_8_amplitude_0.01_rep_1_r_H.png	 H	 r	 b	 n.a.	 3.235938e-01
2	 1	 170	 unflanked	 rf	 3	 0.061700	 0.000000	 unflanked_rf_freq_3_amplitude_0.0617_rep_5_b_H.png	 H	 b	 b	 n.a.	 3.765406e-01
2	 1	 171	 unflanked	 rf	 8	 0.320000	 0.000000	 unflanked_rf_freq_8_amplitude_0.32_rep_5_r_D.png	 D	 r	 r	 n.a.	 2.267683e-01
2	 1	 172	 unflanked	 rf	 4	 0.320000	 0.000000	 unflanked_rf_freq_4_amplitude_0.32_rep_8_l_N.png	 N	 l	 l	 n.a.	 3.005195e-01
2	 1	 173	 unflanked	 rf	 2	 0.320000	 0.000000	 unflanked_rf_freq_2_amplitude_0.32_rep_7_t_K.png	 K	 t	 t	 n.a.	 5.089367e-01
2	 1	 174	 unflanked	 rf	 3	 0.268300	 0.000000	 unflanked_rf_freq_3_amplitude_0.2683_rep_1_b_H.png	 H	 b	 b	 n.a.	 2.782603e-01
2	 1	 175	 unflanked	 rf	 8	 0.320000	 0.000000	 unflanked_rf_freq_8_amplitude_0.32_rep_1_r_H.png	 H	 r	 r	 n.a.	 2.702680e-01
2	 1	 176	 unflanked	 rf	 2	 0.320000	 0.000000	 unflanked_rf_freq_2_amplitude_0.32_rep_9_b_K.png	 K	 b	 b	 n.a.	 2.801485e-01
2	 1	 177	 unflanked	 rf	 5	 0.165000	 0.000000	 unflanked_rf_freq_5_amplitude_0.165_rep_4_l_N.png	 N	 l	 l	 n.a.	 3.429372e-01
2	 1	 178	 unflanked	 rf	 3	 0.320000	 0.000000	 unflanked_rf_freq_3_amplitude_0.32_rep_8_r_K.png	 K	 r	 r	 n.a.	 2.508382e-01
2	 1	 179	 unflanked	 rf	 12	 0.113300	 0.000000	 unflanked_rf_freq_12_amplitude_0.1133_rep_7_r_K.png	 K	 r	 r	 n.a.	 2.605275e-01
2	 1	 180	 unflanked	 rf	 2	 0.320000	 0.000000	 unflanked_rf_freq_2_amplitude_0.32_rep_3_l_N.png	 N	 l	 l	 n.a.	 3.109716e-01
2	 1	 181	 unflanked	 rf	 12	 0.165000	 0.000000	 unflanked_rf_freq_12_amplitude_0.165_rep_0_b_N.png	 N	 b	 b	 n.a.	 2.404154e-01
2	 1	 182	 unflanked	 rf	 8	 0.113300	 0.000000	 unflanked_rf_freq_8_amplitude_0.1133_rep_9_r_H.png	 H	 r	 r	 n.a.	 3.013758e-01
2	 1	 183	 unflanked	 rf	 8	 0.165000	 0.000000	 unflanked_rf_freq_8_amplitude_0.165_rep_9_b_D.png	 D	 b	 b	 n.a.	 2.843144e-01
2	 1	 184	 unflanked	 rf	 3	 0.010000	 0.000000	 unflanked_rf_freq_3_amplitude_0.01_rep_8_l_D.png	 D	 l	 r	 n.a.	 3.968503e-01
2	 1	 185	 unflanked	 rf	 12	 0.165000	 0.000000	 unflanked_rf_freq_12_amplitude_0.165_rep_9_l_K.png	 K	 l	 l	 n.a.	 3.142654e-01
2	 1	 186	 unflanked	 rf	 3	 0.010000	 0.000000	 unflanked_rf_freq_3_amplitude_0.01_rep_5_t_K.png	 K	 t	 l	 n.a.	 4.914927e-01
2	 1	 187	 unflanked	 rf	 3	 0.165000	 0.000000	 unflanked_rf_freq_3_amplitude_0.165_rep_7_r_D.png	 D	 r	 r	 n.a.	 2.869291e-01
2	 1	 188	 unflanked	 rf	 4	 0.165000	 0.000000	 unflanked_rf_freq_4_amplitude_0.165_rep_3_b_D.png	 D	 b	 b	 n.a.	 3.333512e-01
2	 1	 189	 unflanked	 rf	 12	 0.061700	 0.000000	 unflanked_rf_freq_12_amplitude_0.0617_rep_0_r_N.png	 N	 r	 r	 n.a.	 3.025624e-01
2	 1	 190	 unflanked	 rf	 8	 0.216700	 0.000000	 unflanked_rf_freq_8_amplitude_0.2167_rep_8_t_D.png	 D	 t	 t	 n.a.	 3.208084e-01
2	 1	 191	 unflanked	 rf	 5	 0.010000	 0.000000	 unflanked_rf_freq_5_amplitude_0.01_rep_1_l_D.png	 D	 l	 b	 n.a.	 3.001814e-01
2	 1	 192	 unflanked	 rf	 2	 0.113300	 0.000000	 unflanked_rf_freq_2_amplitude_0.1133_rep_3_b_K.png	 K	 b	 b	 n.a.	 3.309929e-01
2	 1	 193	 unflanked	 rf	 3	 0.165000	 0.000000	 unflanked_rf_freq_3_amplitude_0.165_rep_3_b_H.png	 H	 b	 b	 n.a.	 2.750006e-01
2	 1	 194	 unflanked	 rf	 12	 0.320000	 0.000000	 unflanked_rf_freq_12_amplitude_0.32_rep_7_t_K.png	 K	 t	 t	 n.a.	 3.072117e-01
2	 1	 195	 unflanked	 rf	 12	 0.320000	 0.000000	 unflanked_rf_freq_12_amplitude_0.32_rep_6_t_N.png	 N	 t	 t	 n.a.	 6.574844e-01
2	 1	 196	 unflanked	 rf	 4	 0.061700	 0.000000	 unflanked_rf_freq_4_amplitude_0.0617_rep_8_r_N.png	 N	 r	 b	 n.a.	 4.493374e-01
2	 1	 197	 unflanked	 rf	 2	 0.268300	 0.000000	 unflanked_rf_freq_2_amplitude_0.2683_rep_1_l_N.png	 N	 l	 l	 n.a.	 3.199388e-01
2	 1	 198	 unflanked	 rf	 3	 0.268300	 0.000000	 unflanked_rf_freq_3_amplitude_0.2683_rep_9_l_H.png	 H	 l	 l	 n.a.	 3.464757e-01
2	 1	 199	 unflanked	 rf	 8	 0.010000	 0.000000	 unflanked_rf_freq_8_amplitude_0.01_rep_0_t_D.png	 D	 t	 b	 n.a.	 4.211332e-01
2	 1	 200	 unflanked	 rf	 2	 0.320000	 0.000000	 unflanked_rf_freq_2_amplitude_0.32_rep_5_b_N.png	 N	 b	 b	 n.a.	 2.905415e-01
2	 1	 201	 unflanked	 rf	 5	 0.010000	 0.000000	 unflanked_rf_freq_5_amplitude_0.01_rep_8_r_K.png	 K	 r	 l	 n.a.	 7.704714e-01
2	 1	 202	 unflanked	 rf	 4	 0.216700	 0.000000	 unflanked_rf_freq_4_amplitude_0.2167_rep_7_t_N.png	 N	 t	 t	 n.a.	 3.812929e-01
2	 1	 203	 unflanked	 rf	 8	 0.061700	 0.000000	 unflanked_rf_freq_8_amplitude_0.0617_rep_7_l_D.png	 D	 l	 l	 n.a.	 3.685974e-01
2	 1	 204	 unflanked	 rf	 2	 0.268300	 0.000000	 unflanked_rf_freq_2_amplitude_0.2683_rep_4_t_D.png	 D	 t	 t	 n.a.	 4.301689e-01
2	 1	 205	 unflanked	 rf	 5	 0.216700	 0.000000	 unflanked_rf_freq_5_amplitude_0.2167_rep_7_r_N.png	 N	 r	 r	 n.a.	 2.814221e-01
2	 1	 206	 unflanked	 rf	 12	 0.320000	 0.000000	 unflanked_rf_freq_12_amplitude_0.32_rep_0_l_N.png	 N	 l	 l	 n.a.	 2.544113e-01
2	 1	 207	 unflanked	 rf	 2	 0.010000	 0.000000	 unflanked_rf_freq_2_amplitude_0.01_rep_5_l_H.png	 H	 l	 b	 n.a.	 3.377202e-01
2	 1	 208	 unflanked	 rf	 12	 0.268300	 0.000000	 unflanked_rf_freq_12_amplitude_0.2683_rep_3_l_K.png	 K	 l	 l	 n.a.	 2.339211e-01
2	 1	 209	 unflanked	 rf	 12	 0.165000	 0.000000	 unflanked_rf_freq_12_amplitude_0.165_rep_6_b_K.png	 K	 b	 b	 n.a.	 2.544836e-01
2	 1	 210	 unflanked	 rf	 12	 0.113300	 0.000000	 unflanked_rf_freq_12_amplitude_0.1133_rep_6_b_D.png	 D	 b	 l	 n.a.	 4.735072e-01
2	 1	 211	 unflanked	 rf	 8	 0.061700	 0.000000	 unflanked_rf_freq_8_amplitude_0.0617_rep_1_l_H.png	 H	 l	 l	 n.a.	 5.167981e-01
2	 1	 212	 unflanked	 rf	 12	 0.061700	 0.000000	 unflanked_rf_freq_12_amplitude_0.0617_rep_6_b_N.png	 N	 b	 b	 n.a.	 3.060523e-01
2	 1	 213	 unflanked	 rf	 8	 0.320000	 0.000000	 unflanked_rf_freq_8_amplitude_0.32_rep_3_b_K.png	 K	 b	 b	 n.a.	 2.769661e-01
2	 1	 214	 unflanked	 rf	 3	 0.113300	 0.000000	 unflanked_rf_freq_3_amplitude_0.1133_rep_8_b_D.png	 D	 b	 b	 n.a.	 3.486169e-01
2	 1	 215	 unflanked	 rf	 3	 0.061700	 0.000000	 unflanked_rf_freq_3_amplitude_0.0617_rep_0_l_H.png	 H	 l	 l	 n.a.	 3.517276e-01
2	 1	 216	 unflanked	 rf	 5	 0.061700	 0.000000	 unflanked_rf_freq_5_amplitude_0.0617_rep_1_b_H.png	 H	 b	 b	 n.a.	 5.005882e-01
2	 1	 217	 unflanked	 rf	 8	 0.268300	 0.000000	 unflanked_rf_freq_8_amplitude_0.2683_rep_5_b_N.png	 N	 b	 b	 n.a.	 4.691448e-01
2	 1	 218	 unflanked	 rf	 8	 0.216700	 0.000000	 unflanked_rf_freq_8_amplitude_0.2167_rep_1_l_N.png	 N	 l	 l	 n.a.	 3.245691e-01
2	 1	 219	 unflanked	 rf	 2	 0.061700	 0.000000	 unflanked_rf_freq_2_amplitude_0.0617_rep_3_b_N.png	 N	 b	 t	 n.a.	 4.678944e-01
2	 1	 220	 unflanked	 rf	 4	 0.113300	 0.000000	 unflanked_rf_freq_4_amplitude_0.1133_rep_0_t_K.png	 K	 t	 b	 n.a.	 3.354292e-01
2	 1	 221	 unflanked	 rf	 4	 0.113300	 0.000000	 unflanked_rf_freq_4_amplitude_0.1133_rep_7_t_K.png	 K	 t	 l	 n.a.	 3.116668e-01
2	 1	 222	 unflanked	 rf	 2	 0.165000	 0.000000	 unflanked_rf_freq_2_amplitude_0.165_rep_9_l_K.png	 K	 l	 r	 n.a.	 1.075059e-01
2	 1	 223	 unflanked	 rf	 5	 0.061700	 0.000000	 unflanked_rf_freq_5_amplitude_0.0617_rep_7_l_D.png	 D	 l	 b	 n.a.	 4.530869e-01
2	 1	 224	 unflanked	 rf	 2	 0.216700	 0.000000	 unflanked_rf_freq_2_amplitude_0.2167_rep_2_b_H.png	 H	 b	 l	 n.a.	 2.500065e-01
2	 1	 225	 unflanked	 rf	 5	 0.165000	 0.000000	 unflanked_rf_freq_5_amplitude_0.165_rep_8_r_K.png	 K	 r	 r	 n.a.	 3.418457e-01
2	 1	 226	 unflanked	 rf	 2	 0.216700	 0.000000	 unflanked_rf_freq_2_amplitude_0.2167_rep_7_t_H.png	 H	 t	 t	 n.a.	 5.606111e-01
2	 1	 227	 unflanked	 rf	 2	 0.165000	 0.000000	 unflanked_rf_freq_2_amplitude_0.165_rep_1_r_H.png	 H	 r	 b	 n.a.	 5.606645e-01
2	 1	 228	 unflanked	 rf	 8	 0.268300	 0.000000	 unflanked_rf_freq_8_amplitude_0.2683_rep_6_b_D.png	 D	 b	 b	 n.a.	 2.995121e-01
2	 1	 229	 unflanked	 rf	 2	 0.113300	 0.000000	 unflanked_rf_freq_2_amplitude_0.1133_rep_6_l_N.png	 N	 l	 l	 n.a.	 4.009165e-01
2	 1	 230	 unflanked	 rf	 3	 0.165000	 0.000000	 unflanked_rf_freq_3_amplitude_0.165_rep_0_b_H.png	 H	 b	 b	 n.a.	 2.617097e-01
2	 1	 231	 unflanked	 rf	 5	 0.268300	 0.000000	 unflanked_rf_freq_5_amplitude_0.2683_rep_2_t_D.png	 D	 t	 t	 n.a.	 3.010816e-01
2	 1	 232	 unflanked	 rf	 5	 0.216700	 0.000000	 unflanked_rf_freq_5_amplitude_0.2167_rep_2_l_N.png	 N	 l	 l	 n.a.	 3.408447e-01
2	 1	 233	 unflanked	 rf	 12	 0.010000	 0.000000	 unflanked_rf_freq_12_amplitude_0.01_rep_7_l_K.png	 K	 l	 l	 n.a.	 4.621780e-01
2	 1	 234	 unflanked	 rf	 4	 0.165000	 0.000000	 unflanked_rf_freq_4_amplitude_0.165_rep_7_b_D.png	 D	 b	 b	 n.a.	 2.405980e-01
2	 1	 235	 unflanked	 rf	 8	 0.113300	 0.000000	 unflanked_rf_freq_8_amplitude_0.1133_rep_1_t_H.png	 H	 t	 t	 n.a.	 3.711428e-01
2	 1	 236	 unflanked	 rf	 3	 0.320000	 0.000000	 unflanked_rf_freq_3_amplitude_0.32_rep_2_r_H.png	 H	 r	 r	 n.a.	 3.014189e-01
2	 1	 237	 unflanked	 rf	 2	 0.268300	 0.000000	 unflanked_rf_freq_2_amplitude_0.2683_rep_6_t_D.png	 D	 t	 t	 n.a.	 4.188136e-01
2	 1	 238	 unflanked	 rf	 12	 0.010000	 0.000000	 unflanked_rf_freq_12_amplitude_0.01_rep_1_r_D.png	 D	 r	 l	 n.a.	 4.456433e-01
2	 1	 239	 unflanked	 rf	 12	 0.216700	 0.000000	 unflanked_rf_freq_12_amplitude_0.2167_rep_8_b_N.png	 N	 b	 b	 n.a.	 2.614643e-01
2	 1	 240	 unflanked	 rf	 12	 0.010000	 0.000000	 unflanked_rf_freq_12_amplitude_0.01_rep_9_t_K.png	 K	 t	 l	 n.a.	 5.424490e-01
2	 1	 241	 unflanked	 rf	 12	 0.061700	 0.000000	 unflanked_rf_freq_12_amplitude_0.0617_rep_1_t_N.png	 N	 t	 b	 n.a.	 3.683285e-01
2	 1	 242	 unflanked	 rf	 12	 0.216700	 0.000000	 unflanked_rf_freq_12_amplitude_0.2167_rep_7_l_K.png	 K	 l	 l	 n.a.	 3.011061e-01
2	 1	 243	 unflanked	 rf	 4	 0.061700	 0.000000	 unflanked_rf_freq_4_amplitude_0.0617_rep_7_r_D.png	 D	 r	 r	 n.a.	 4.875118e-01
2	 1	 244	 unflanked	 rf	 3	 0.320000	 0.000000	 unflanked_rf_freq_3_amplitude_0.32_rep_9_l_K.png	 K	 l	 l	 n.a.	 3.505202e-01
2	 1	 245	 unflanked	 rf	 8	 0.061700	 0.000000	 unflanked_rf_freq_8_amplitude_0.0617_rep_3_l_D.png	 D	 l	 l	 n.a.	 4.681669e-01
2	 1	 246	 unflanked	 rf	 3	 0.216700	 0.000000	 unflanked_rf_freq_3_amplitude_0.2167_rep_4_t_N.png	 N	 t	 t	 n.a.	 6.176619e-01
2	 1	 247	 unflanked	 rf	 4	 0.010000	 0.000000	 unflanked_rf_freq_4_amplitude_0.01_rep_1_r_D.png	 D	 r	 l	 n.a.	 4.503892e-01
2	 1	 248	 unflanked	 rf	 2	 0.268300	 0.000000	 unflanked_rf_freq_2_amplitude_0.2683_rep_7_t_N.png	 N	 t	 t	 n.a.	 3.505898e-01
2	 1	 249	 unflanked	 rf	 5	 0.216700	 0.000000	 unflanked_rf_freq_5_amplitude_0.2167_rep_1_r_N.png	 N	 r	 r	 n.a.	 3.059292e-01
2	 1	 250	 unflanked	 rf	 8	 0.320000	 0.000000	 unflanked_rf_freq_8_amplitude_0.32_rep_7_r_H.png	 H	 r	 r	 n.a.	 2.978490e-01
2	 1	 251	 unflanked	 rf	 8	 0.268300	 0.000000	 unflanked_rf_freq_8_amplitude_0.2683_rep_3_b_N.png	 N	 b	 b	 n.a.	 2.756394e-01
2	 1	 252	 unflanked	 rf	 2	 0.165000	 0.000000	 unflanked_rf_freq_2_amplitude_0.165_rep_3_b_H.png	 H	 b	 b	 n.a.	 6.238418e-01
2	 1	 253	 unflanked	 rf	 5	 0.010000	 0.000000	 unflanked_rf_freq_5_amplitude_0.01_rep_9_b_K.png	 K	 b	 b	 n.a.	 6.037331e-01
2	 1	 254	 unflanked	 rf	 8	 0.010000	 0.000000	 unflanked_rf_freq_8_amplitude_0.01_rep_8_b_D.png	 D	 b	 l	 n.a.	 4.207771e-01
2	 1	 255	 unflanked	 rf	 2	 0.061700	 0.000000	 unflanked_rf_freq_2_amplitude_0.0617_rep_5_r_N.png	 N	 r	 b	 n.a.	 6.674195e-01
2	 1	 256	 unflanked	 rf	 5	 0.010000	 0.000000	 unflanked_rf_freq_5_amplitude_0.01_rep_5_b_D.png	 D	 b	 r	 n.a.	 5.254028e-01
2	 1	 257	 unflanked	 rf	 5	 0.165000	 0.000000	 unflanked_rf_freq_5_amplitude_0.165_rep_2_r_D.png	 D	 r	 r	 n.a.	 2.751679e-01
2	 1	 258	 unflanked	 rf	 4	 0.113300	 0.000000	 unflanked_rf_freq_4_amplitude_0.1133_rep_3_b_H.png	 H	 b	 b	 n.a.	 4.059507e-01
2	 1	 259	 unflanked	 rf	 2	 0.320000	 0.000000	 unflanked_rf_freq_2_amplitude_0.32_rep_1_r_N.png	 N	 r	 r	 n.a.	 3.954531e-01
2	 1	 260	 unflanked	 rf	 12	 0.010000	 0.000000	 unflanked_rf_freq_12_amplitude_0.01_rep_6_r_K.png	 K	 r	 l	 n.a.	 5.017694e-01
2	 1	 261	 unflanked	 rf	 4	 0.268300	 0.000000	 unflanked_rf_freq_4_amplitude_0.2683_rep_4_l_N.png	 N	 l	 l	 n.a.	 2.990581e-01
2	 1	 262	 unflanked	 rf	 4	 0.216700	 0.000000	 unflanked_rf_freq_4_amplitude_0.2167_rep_8_t_H.png	 H	 t	 t	 n.a.	 3.498790e-01
2	 1	 263	 unflanked	 rf	 5	 0.320000	 0.000000	 unflanked_rf_freq_5_amplitude_0.32_rep_6_r_H.png	 H	 r	 r	 n.a.	 3.394987e-01
2	 1	 264	 unflanked	 rf	 5	 0.320000	 0.000000	 unflanked_rf_freq_5_amplitude_0.32_rep_3_l_N.png	 N	 l	 l	 n.a.	 3.892307e-01
2	 1	 265	 unflanked	 rf	 2	 0.216700	 0.000000	 unflanked_rf_freq_2_amplitude_0.2167_rep_3_r_D.png	 D	 r	 r	 n.a.	 3.379985e-01
2	 1	 266	 unflanked	 rf	 8	 0.113300	 0.000000	 unflanked_rf_freq_8_amplitude_0.1133_rep_8_t_H.png	 H	 t	 t	 n.a.	 4.420820e-01
2	 1	 267	 unflanked	 rf	 2	 0.268300	 0.000000	 unflanked_rf_freq_2_amplitude_0.2683_rep_0_r_H.png	 H	 r	 r	 n.a.	 3.300505e-01
2	 1	 268	 unflanked	 rf	 2	 0.010000	 0.000000	 unflanked_rf_freq_2_amplitude_0.01_rep_4_t_D.png	 D	 t	 r	 n.a.	 5.468679e-01
2	 1	 269	 unflanked	 rf	 8	 0.216700	 0.000000	 unflanked_rf_freq_8_amplitude_0.2167_rep_5_t_N.png	 N	 t	 t	 n.a.	 3.512646e-01
2	 1	 270	 unflanked	 rf	 3	 0.268300	 0.000000	 unflanked_rf_freq_3_amplitude_0.2683_rep_6_r_H.png	 H	 r	 r	 n.a.	 3.221689e-01
2	 1	 271	 unflanked	 rf	 4	 0.268300	 0.000000	 unflanked_rf_freq_4_amplitude_0.2683_rep_9_t_N.png	 N	 t	 t	 n.a.	 4.201901e-01
2	 1	 272	 unflanked	 rf	 12	 0.216700	 0.000000	 unflanked_rf_freq_12_amplitude_0.2167_rep_1_l_D.png	 D	 l	 l	 n.a.	 2.990854e-01
2	 1	 273	 unflanked	 rf	 3	 0.113300	 0.000000	 unflanked_rf_freq_3_amplitude_0.1133_rep_4_l_D.png	 D	 l	 l	 n.a.	 3.915611e-01
2	 1	 274	 unflanked	 rf	 2	 0.061700	 0.000000	 unflanked_rf_freq_2_amplitude_0.0617_rep_8_t_K.png	 K	 t	 l	 n.a.	 5.306828e-01
2	 1	 275	 unflanked	 rf	 5	 0.113300	 0.000000	 unflanked_rf_freq_5_amplitude_0.1133_rep_3_t_K.png	 K	 t	 b	 n.a.	 4.558321e-01
2	 1	 276	 unflanked	 rf	 3	 0.268300	 0.000000	 unflanked_rf_freq_3_amplitude_0.2683_rep_3_t_H.png	 H	 t	 t	 n.a.	 3.987325e-01
2	 1	 277	 unflanked	 rf	 5	 0.010000	 0.000000	 unflanked_rf_freq_5_amplitude_0.01_rep_3_t_K.png	 K	 t	 l	 n.a.	 4.338390e-01
2	 1	 278	 unflanked	 rf	 12	 0.165000	 0.000000	 unflanked_rf_freq_12_amplitude_0.165_rep_2_r_H.png	 H	 r	 r	 n.a.	 2.722811e-01
2	 1	 279	 unflanked	 rf	 2	 0.113300	 0.000000	 unflanked_rf_freq_2_amplitude_0.1133_rep_5_l_N.png	 N	 l	 b	 n.a.	 4.151764e-01
2	 1	 280	 unflanked	 rf	 5	 0.113300	 0.000000	 unflanked_rf_freq_5_amplitude_0.1133_rep_2_b_N.png	 N	 b	 b	 n.a.	 3.228489e-01
2	 1	 281	 unflanked	 rf	 4	 0.061700	 0.000000	 unflanked_rf_freq_4_amplitude_0.0617_rep_6_b_N.png	 N	 b	 t	 n.a.	 7.278505e-01
2	 1	 282	 unflanked	 rf	 5	 0.268300	 0.000000	 unflanked_rf_freq_5_amplitude_0.2683_rep_9_l_K.png	 K	 l	 l	 n.a.	 3.338322e-01
2	 1	 283	 unflanked	 rf	 5	 0.061700	 0.000000	 unflanked_rf_freq_5_amplitude_0.0617_rep_2_t_D.png	 D	 t	 b	 n.a.	 3.875412e-01
2	 1	 284	 unflanked	 rf	 12	 0.268300	 0.000000	 unflanked_rf_freq_12_amplitude_0.2683_rep_6_l_K.png	 K	 l	 l	 n.a.	 2.522029e-01
2	 1	 285	 unflanked	 rf	 3	 0.216700	 0.000000	 unflanked_rf_freq_3_amplitude_0.2167_rep_3_r_K.png	 K	 r	 t	 n.a.	 4.927190e-01
2	 1	 286	 unflanked	 rf	 4	 0.113300	 0.000000	 unflanked_rf_freq_4_amplitude_0.1133_rep_5_t_K.png	 K	 t	 b	 n.a.	 5.558823e-01
2	 1	 287	 unflanked	 rf	 4	 0.268300	 0.000000	 unflanked_rf_freq_4_amplitude_0.2683_rep_1_l_N.png	 N	 l	 l	 n.a.	 3.551169e-01
2	 1	 288	 unflanked	 rf	 8	 0.113300	 0.000000	 unflanked_rf_freq_8_amplitude_0.1133_rep_5_l_H.png	 H	 l	 l	 n.a.	 3.927639e-01
2	 1	 289	 unflanked	 rf	 2	 0.268300	 0.000000	 unflanked_rf_freq_2_amplitude_0.2683_rep_3_r_H.png	 H	 r	 r	 n.a.	 2.941772e-01
2	 1	 290	 unflanked	 rf	 2	 0.216700	 0.000000	 unflanked_rf_freq_2_amplitude_0.2167_rep_6_t_H.png	 H	 t	 t	 n.a.	 4.007732e-01
2	 1	 291	 unflanked	 rf	 12	 0.061700	 0.000000	 unflanked_rf_freq_12_amplitude_0.0617_rep_9_b_K.png	 K	 b	 b	 n.a.	 2.331931e-01
2	 1	 292	 unflanked	 rf	 2	 0.061700	 0.000000	 unflanked_rf_freq_2_amplitude_0.0617_rep_2_r_D.png	 D	 r	 b	 n.a.	 2.783005e-01
2	 1	 293	 unflanked	 rf	 2	 0.061700	 0.000000	 unflanked_rf_freq_2_amplitude_0.0617_rep_7_t_H.png	 H	 t	 r	 n.a.	 3.124384e-01
2	 1	 294	 unflanked	 rf	 4	 0.216700	 0.000000	 unflanked_rf_freq_4_amplitude_0.2167_rep_3_l_H.png	 H	 l	 l	 n.a.	 3.343157e-01
2	 1	 295	 unflanked	 rf	 8	 0.010000	 0.000000	 unflanked_rf_freq_8_amplitude_0.01_rep_7_t_D.png	 D	 t	 b	 n.a.	 3.330476e-01
2	 1	 296	 unflanked	 rf	 4	 0.165000	 0.000000	 unflanked_rf_freq_4_amplitude_0.165_rep_2_t_K.png	 K	 t	 t	 n.a.	 3.391089e-01
2	 1	 297	 unflanked	 rf	 8	 0.010000	 0.000000	 unflanked_rf_freq_8_amplitude_0.01_rep_3_l_N.png	 N	 l	 l	 n.a.	 5.381707e-01
2	 1	 298	 unflanked	 rf	 8	 0.320000	 0.000000	 unflanked_rf_freq_8_amplitude_0.32_rep_0_l_N.png	 N	 l	 l	 n.a.	 3.398577e-01
2	 1	 299	 unflanked	 rf	 3	 0.216700	 0.000000	 unflanked_rf_freq_3_amplitude_0.2167_rep_1_r_H.png	 H	 r	 r	 n.a.	 2.848528e-01
2	 1	 300	 unflanked	 rf	 2	 0.268300	 0.000000	 unflanked_rf_freq_2_amplitude_0.2683_rep_8_r_H.png	 H	 r	 r	 n.a.	 3.775533e-01
2	 1	 301	 unflanked	 rf	 4	 0.216700	 0.000000	 unflanked_rf_freq_4_amplitude_0.2167_rep_9_l_N.png	 N	 l	 l	 n.a.	 3.721852e-01
2	 1	 302	 unflanked	 rf	 4	 0.165000	 0.000000	 unflanked_rf_freq_4_amplitude_0.165_rep_4_l_N.png	 N	 l	 l	 n.a.	 3.510636e-01
2	 1	 303	 unflanked	 rf	 4	 0.061700	 0.000000	 unflanked_rf_freq_4_amplitude_0.0617_rep_5_l_N.png	 N	 l	 l	 n.a.	 5.002663e-01
2	 1	 304	 unflanked	 rf	 5	 0.113300	 0.000000	 unflanked_rf_freq_5_amplitude_0.1133_rep_9_r_D.png	 D	 r	 r	 n.a.	 3.335995e-01
2	 1	 305	 unflanked	 rf	 12	 0.216700	 0.000000	 unflanked_rf_freq_12_amplitude_0.2167_rep_3_r_N.png	 N	 r	 r	 n.a.	 3.004202e-01
2	 1	 306	 unflanked	 rf	 8	 0.320000	 0.000000	 unflanked_rf_freq_8_amplitude_0.32_rep_6_r_K.png	 K	 r	 r	 n.a.	 2.503066e-01
2	 1	 307	 unflanked	 rf	 2	 0.010000	 0.000000	 unflanked_rf_freq_2_amplitude_0.01_rep_1_l_N.png	 N	 l	 l	 n.a.	 5.719388e-01
2	 1	 308	 unflanked	 rf	 3	 0.216700	 0.000000	 unflanked_rf_freq_3_amplitude_0.2167_rep_2_r_N.png	 N	 r	 r	 n.a.	 3.089575e-01
2	 1	 309	 unflanked	 rf	 3	 0.061700	 0.000000	 unflanked_rf_freq_3_amplitude_0.0617_rep_1_t_K.png	 K	 t	 b	 n.a.	 5.139622e-01
2	 1	 310	 unflanked	 rf	 5	 0.268300	 0.000000	 unflanked_rf_freq_5_amplitude_0.2683_rep_4_l_D.png	 D	 l	 l	 n.a.	 3.017543e-01
2	 1	 311	 unflanked	 rf	 8	 0.113300	 0.000000	 unflanked_rf_freq_8_amplitude_0.1133_rep_2_r_D.png	 D	 r	 r	 n.a.	 4.821977e-01
2	 1	 312	 unflanked	 rf	 12	 0.061700	 0.000000	 unflanked_rf_freq_12_amplitude_0.0617_rep_2_b_H.png	 H	 b	 b	 n.a.	 7.033920e-01
2	 1	 313	 unflanked	 rf	 3	 0.320000	 0.000000	 unflanked_rf_freq_3_amplitude_0.32_rep_3_r_H.png	 H	 r	 r	 n.a.	 4.453406e-01
2	 1	 314	 unflanked	 rf	 4	 0.268300	 0.000000	 unflanked_rf_freq_4_amplitude_0.2683_rep_0_r_K.png	 K	 r	 r	 n.a.	 3.405425e-01
2	 1	 315	 unflanked	 rf	 5	 0.165000	 0.000000	 unflanked_rf_freq_5_amplitude_0.165_rep_0_t_D.png	 D	 t	 t	 n.a.	 5.845993e-01
2	 1	 316	 unflanked	 rf	 5	 0.216700	 0.000000	 unflanked_rf_freq_5_amplitude_0.2167_rep_0_r_H.png	 H	 r	 r	 n.a.	 3.293008e-01
2	 1	 317	 unflanked	 rf	 4	 0.268300	 0.000000	 unflanked_rf_freq_4_amplitude_0.2683_rep_2_l_N.png	 N	 l	 l	 n.a.	 3.575297e-01
2	 1	 318	 unflanked	 rf	 12	 0.320000	 0.000000	 unflanked_rf_freq_12_amplitude_0.32_rep_3_b_K.png	 K	 b	 b	 n.a.	 2.863619e-01
2	 1	 319	 unflanked	 rf	 4	 0.010000	 0.000000	 unflanked_rf_freq_4_amplitude_0.01_rep_9_t_K.png	 K	 t	 l	 n.a.	 6.093224e-01
2	 1	 320	 unflanked	 rf	 8	 0.216700	 0.000000	 unflanked_rf_freq_8_amplitude_0.2167_rep_0_t_K.png	 K	 t	 t	 n.a.	 3.975810e-01
2	 1	 321	 unflanked	 rf	 12	 0.216700	 0.000000	 unflanked_rf_freq_12_amplitude_0.2167_rep_5_l_K.png	 K	 l	 l	 n.a.	 3.401121e-01
2	 1	 322	 unflanked	 rf	 5	 0.061700	 0.000000	 unflanked_rf_freq_5_amplitude_0.0617_rep_9_r_H.png	 H	 r	 r	 n.a.	 4.810471e-01
2	 1	 323	 unflanked	 rf	 4	 0.113300	 0.000000	 unflanked_rf_freq_4_amplitude_0.1133_rep_4_b_D.png	 D	 b	 b	 n.a.	 5.968747e-01
2	 1	 324	 unflanked	 rf	 8	 0.216700	 0.000000	 unflanked_rf_freq_8_amplitude_0.2167_rep_9_r_N.png	 N	 r	 r	 n.a.	 2.978224e-01
2	 1	 325	 unflanked	 rf	 5	 0.216700	 0.000000	 unflanked_rf_freq_5_amplitude_0.2167_rep_8_b_H.png	 H	 b	 b	 n.a.	 3.192623e-01
2	 1	 326	 unflanked	 rf	 8	 0.320000	 0.000000	 unflanked_rf_freq_8_amplitude_0.32_rep_8_l_N.png	 N	 l	 l	 n.a.	 3.114769e-01
2	 1	 327	 unflanked	 rf	 8	 0.165000	 0.000000	 unflanked_rf_freq_8_amplitude_0.165_rep_2_r_D.png	 D	 r	 r	 n.a.	 2.348862e-01
2	 1	 328	 unflanked	 rf	 4	 0.113300	 0.000000	 unflanked_rf_freq_4_amplitude_0.1133_rep_1_l_D.png	 D	 l	 b	 n.a.	 4.260651e-01
2	 1	 329	 unflanked	 rf	 4	 0.113300	 0.000000	 unflanked_rf_freq_4_amplitude_0.1133_rep_2_b_H.png	 H	 b	 b	 n.a.	 3.210566e-01
2	 1	 330	 unflanked	 rf	 3	 0.165000	 0.000000	 unflanked_rf_freq_3_amplitude_0.165_rep_9_l_N.png	 N	 l	 l	 n.a.	 3.806135e-01
2	 1	 331	 unflanked	 rf	 2	 0.216700	 0.000000	 unflanked_rf_freq_2_amplitude_0.2167_rep_4_l_N.png	 N	 l	 l	 n.a.	 3.685327e-01
2	 1	 332	 unflanked	 rf	 8	 0.268300	 0.000000	 unflanked_rf_freq_8_amplitude_0.2683_rep_2_l_K.png	 K	 l	 l	 n.a.	 3.060782e-01
2	 1	 333	 unflanked	 rf	 2	 0.165000	 0.000000	 unflanked_rf_freq_2_amplitude_0.165_rep_5_r_K.png	 K	 r	 r	 n.a.	 3.133552e-01
2	 1	 334	 unflanked	 rf	 3	 0.216700	 0.000000	 unflanked_rf_freq_3_amplitude_0.2167_rep_6_l_D.png	 D	 l	 l	 n.a.	 3.613634e-01
2	 1	 335	 unflanked	 rf	 12	 0.320000	 0.000000	 unflanked_rf_freq_12_amplitude_0.32_rep_5_r_K.png	 K	 r	 r	 n.a.	 2.547250e-01
2	 1	 336	 unflanked	 rf	 8	 0.165000	 0.000000	 unflanked_rf_freq_8_amplitude_0.165_rep_5_l_N.png	 N	 l	 l	 n.a.	 3.394375e-01
2	 1	 337	 unflanked	 rf	 2	 0.010000	 0.000000	 unflanked_rf_freq_2_amplitude_0.01_rep_0_r_H.png	 H	 r	 b	 n.a.	 7.072426e-01
2	 1	 338	 unflanked	 rf	 12	 0.165000	 0.000000	 unflanked_rf_freq_12_amplitude_0.165_rep_5_t_N.png	 N	 t	 t	 n.a.	 4.052497e-01
2	 1	 339	 unflanked	 rf	 3	 0.061700	 0.000000	 unflanked_rf_freq_3_amplitude_0.0617_rep_3_b_N.png	 N	 b	 b	 n.a.	 6.386290e-01
2	 1	 340	 unflanked	 rf	 5	 0.216700	 0.000000	 unflanked_rf_freq_5_amplitude_0.2167_rep_5_t_N.png	 N	 t	 t	 n.a.	 4.394929e-01
2	 1	 341	 unflanked	 rf	 8	 0.061700	 0.000000	 unflanked_rf_freq_8_amplitude_0.0617_rep_9_r_N.png	 N	 r	 l	 n.a.	 4.275979e-01
2	 1	 342	 unflanked	 rf	 5	 0.010000	 0.000000	 unflanked_rf_freq_5_amplitude_0.01_rep_6_t_D.png	 D	 t	 b	 n.a.	 3.032954e-01
2	 1	 343	 unflanked	 rf	 12	 0.061700	 0.000000	 unflanked_rf_freq_12_amplitude_0.0617_rep_4_t_K.png	 K	 t	 t	 n.a.	 8.512998e-01
2	 1	 344	 unflanked	 rf	 8	 0.165000	 0.000000	 unflanked_rf_freq_8_amplitude_0.165_rep_8_r_D.png	 D	 r	 r	 n.a.	 4.623934e-01
2	 1	 345	 unflanked	 rf	 8	 0.061700	 0.000000	 unflanked_rf_freq_8_amplitude_0.0617_rep_6_b_D.png	 D	 b	 b	 n.a.	 4.238425e-01
2	 1	 346	 unflanked	 rf	 8	 0.216700	 0.000000	 unflanked_rf_freq_8_amplitude_0.2167_rep_2_l_K.png	 K	 l	 l	 n.a.	 3.126390e-01
2	 1	 347	 unflanked	 rf	 5	 0.165000	 0.000000	 unflanked_rf_freq_5_amplitude_0.165_rep_3_b_N.png	 N	 b	 b	 n.a.	 3.128740e-01
2	 1	 348	 unflanked	 rf	 12	 0.165000	 0.000000	 unflanked_rf_freq_12_amplitude_0.165_rep_7_b_K.png	 K	 b	 b	 n.a.	 3.199072e-01
2	 1	 349	 unflanked	 rf	 4	 0.010000	 0.000000	 unflanked_rf_freq_4_amplitude_0.01_rep_8_t_N.png	 N	 t	 b	 n.a.	 4.316216e-01
2	 1	 350	 unflanked	 rf	 8	 0.010000	 0.000000	 unflanked_rf_freq_8_amplitude_0.01_rep_2_r_N.png	 N	 r	 l	 n.a.	 4.659345e-01
2	 1	 351	 unflanked	 rf	 5	 0.320000	 0.000000	 unflanked_rf_freq_5_amplitude_0.32_rep_8_r_N.png	 N	 r	 r	 n.a.	 3.213622e-01
2	 1	 352	 unflanked	 rf	 5	 0.216700	 0.000000	 unflanked_rf_freq_5_amplitude_0.2167_rep_3_b_N.png	 N	 b	 b	 n.a.	 3.177795e-01
2	 1	 353	 unflanked	 rf	 2	 0.113300	 0.000000	 unflanked_rf_freq_2_amplitude_0.1133_rep_4_t_N.png	 N	 t	 b	 n.a.	 5.752236e-01
2	 1	 354	 unflanked	 rf	 2	 0.320000	 0.000000	 unflanked_rf_freq_2_amplitude_0.32_rep_8_t_K.png	 K	 t	 t	 n.a.	 3.876756e-01
2	 1	 355	 unflanked	 rf	 2	 0.010000	 0.000000	 unflanked_rf_freq_2_amplitude_0.01_rep_8_b_H.png	 H	 b	 r	 n.a.	 4.944252e-01
2	 1	 356	 unflanked	 rf	 5	 0.061700	 0.000000	 unflanked_rf_freq_5_amplitude_0.0617_rep_4_r_H.png	 H	 r	 l	 n.a.	 4.059763e-01
2	 1	 357	 unflanked	 rf	 4	 0.216700	 0.000000	 unflanked_rf_freq_4_amplitude_0.2167_rep_4_b_D.png	 D	 b	 b	 n.a.	 3.126798e-01
2	 1	 358	 unflanked	 rf	 5	 0.320000	 0.000000	 unflanked_rf_freq_5_amplitude_0.32_rep_2_l_H.png	 H	 l	 l	 n.a.	 3.202819e-01
2	 1	 359	 unflanked	 rf	 2	 0.268300	 0.000000	 unflanked_rf_freq_2_amplitude_0.2683_rep_5_l_K.png	 K	 l	 l	 n.a.	 3.881021e-01
2	 1	 360	 unflanked	 rf	 12	 0.165000	 0.000000	 unflanked_rf_freq_12_amplitude_0.165_rep_1_l_H.png	 H	 l	 l	 n.a.	 3.365508e-01
2	 1	 361	 unflanked	 rf	 5	 0.061700	 0.000000	 unflanked_rf_freq_5_amplitude_0.0617_rep_6_r_D.png	 D	 r	 r	 n.a.	 3.627059e-01
2	 1	 362	 unflanked	 rf	 2	 0.165000	 0.000000	 unflanked_rf_freq_2_amplitude_0.165_rep_6_l_K.png	 K	 l	 l	 n.a.	 3.834487e-01
2	 1	 363	 unflanked	 rf	 5	 0.268300	 0.000000	 unflanked_rf_freq_5_amplitude_0.2683_rep_7_t_K.png	 K	 t	 t	 n.a.	 3.619965e-01
2	 1	 364	 unflanked	 rf	 3	 0.268300	 0.000000	 unflanked_rf_freq_3_amplitude_0.2683_rep_8_r_H.png	 H	 r	 r	 n.a.	 3.007751e-01
2	 1	 365	 unflanked	 rf	 8	 0.268300	 0.000000	 unflanked_rf_freq_8_amplitude_0.2683_rep_8_l_K.png	 K	 l	 l	 n.a.	 3.017790e-01
2	 1	 366	 unflanked	 rf	 3	 0.268300	 0.000000	 unflanked_rf_freq_3_amplitude_0.2683_rep_0_r_D.png	 D	 r	 r	 n.a.	 3.289934e-01
2	 1	 367	 unflanked	 rf	 5	 0.113300	 0.000000	 unflanked_rf_freq_5_amplitude_0.1133_rep_7_l_D.png	 D	 l	 l	 n.a.	 3.783473e-01
2	 1	 368	 unflanked	 rf	 5	 0.216700	 0.000000	 unflanked_rf_freq_5_amplitude_0.2167_rep_4_t_D.png	 D	 t	 t	 n.a.	 4.737681e-01
2	 1	 369	 unflanked	 rf	 2	 0.061700	 0.000000	 unflanked_rf_freq_2_amplitude_0.0617_rep_0_r_H.png	 H	 r	 l	 n.a.	 4.004075e-01
2	 1	 370	 unflanked	 rf	 2	 0.113300	 0.000000	 unflanked_rf_freq_2_amplitude_0.1133_rep_7_t_D.png	 D	 t	 t	 n.a.	 6.346985e-01
2	 1	 371	 unflanked	 rf	 2	 0.320000	 0.000000	 unflanked_rf_freq_2_amplitude_0.32_rep_2_b_K.png	 K	 b	 b	 n.a.	 3.165839e-01
2	 1	 372	 unflanked	 rf	 8	 0.113300	 0.000000	 unflanked_rf_freq_8_amplitude_0.1133_rep_3_r_H.png	 H	 r	 r	 n.a.	 3.284236e-01
2	 1	 373	 unflanked	 rf	 12	 0.165000	 0.000000	 unflanked_rf_freq_12_amplitude_0.165_rep_4_b_H.png	 H	 b	 b	 n.a.	 2.604244e-01
2	 1	 374	 unflanked	 rf	 12	 0.113300	 0.000000	 unflanked_rf_freq_12_amplitude_0.1133_rep_5_t_H.png	 H	 t	 t	 n.a.	 3.788696e-01
2	 1	 375	 unflanked	 rf	 3	 0.216700	 0.000000	 unflanked_rf_freq_3_amplitude_0.2167_rep_9_b_N.png	 N	 b	 b	 n.a.	 3.330763e-01
2	 1	 376	 unflanked	 rf	 12	 0.165000	 0.000000	 unflanked_rf_freq_12_amplitude_0.165_rep_8_t_N.png	 N	 t	 l	 n.a.	 5.350857e-01
2	 1	 377	 unflanked	 rf	 3	 0.113300	 0.000000	 unflanked_rf_freq_3_amplitude_0.1133_rep_5_t_H.png	 H	 t	 l	 n.a.	 8.549602e-01
2	 1	 378	 unflanked	 rf	 12	 0.010000	 0.000000	 unflanked_rf_freq_12_amplitude_0.01_rep_8_b_D.png	 D	 b	 t	 n.a.	 6.519449e-01
2	 1	 379	 unflanked	 rf	 12	 0.216700	 0.000000	 unflanked_rf_freq_12_amplitude_0.2167_rep_2_t_N.png	 N	 t	 t	 n.a.	 3.538736e-01
2	 1	 380	 unflanked	 rf	 3	 0.320000	 0.000000	 unflanked_rf_freq_3_amplitude_0.32_rep_0_t_N.png	 N	 t	 t	 n.a.	 3.730100e-01
2	 1	 381	 unflanked	 rf	 4	 0.216700	 0.000000	 unflanked_rf_freq_4_amplitude_0.2167_rep_0_b_N.png	 N	 b	 b	 n.a.	 3.011901e-01
2	 1	 382	 unflanked	 rf	 2	 0.113300	 0.000000	 unflanked_rf_freq_2_amplitude_0.1133_rep_9_t_D.png	 D	 t	 l	 n.a.	 6.310875e-01
2	 1	 383	 unflanked	 rf	 8	 0.061700	 0.000000	 unflanked_rf_freq_8_amplitude_0.0617_rep_2_r_K.png	 K	 r	 t	 n.a.	 6.442014e-01
2	 1	 384	 unflanked	 rf	 3	 0.268300	 0.000000	 unflanked_rf_freq_3_amplitude_0.2683_rep_5_b_D.png	 D	 b	 b	 n.a.	 3.086686e-01
2	 1	 385	 unflanked	 rf	 8	 0.216700	 0.000000	 unflanked_rf_freq_8_amplitude_0.2167_rep_6_r_K.png	 K	 r	 b	 n.a.	 4.042346e-01
2	 1	 386	 unflanked	 rf	 3	 0.268300	 0.000000	 unflanked_rf_freq_3_amplitude_0.2683_rep_4_b_N.png	 N	 b	 b	 n.a.	 3.363839e-01
2	 1	 387	 unflanked	 rf	 5	 0.113300	 0.000000	 unflanked_rf_freq_5_amplitude_0.1133_rep_8_r_K.png	 K	 r	 r	 n.a.	 6.040828e-01
2	 1	 388	 unflanked	 rf	 5	 0.268300	 0.000000	 unflanked_rf_freq_5_amplitude_0.2683_rep_8_b_N.png	 N	 b	 b	 n.a.	 3.031716e-01
2	 1	 389	 unflanked	 rf	 12	 0.268300	 0.000000	 unflanked_rf_freq_12_amplitude_0.2683_rep_5_l_D.png	 D	 l	 l	 n.a.	 3.380939e-01
2	 1	 390	 unflanked	 rf	 2	 0.165000	 0.000000	 unflanked_rf_freq_2_amplitude_0.165_rep_7_r_K.png	 K	 r	 r	 n.a.	 3.470186e-01
2	 1	 391	 unflanked	 rf	 4	 0.320000	 0.000000	 unflanked_rf_freq_4_amplitude_0.32_rep_4_l_H.png	 H	 l	 l	 n.a.	 4.196395e-01
2	 1	 392	 unflanked	 rf	 8	 0.320000	 0.000000	 unflanked_rf_freq_8_amplitude_0.32_rep_2_b_D.png	 D	 b	 b	 n.a.	 2.851170e-01
2	 1	 393	 unflanked	 rf	 4	 0.010000	 0.000000	 unflanked_rf_freq_4_amplitude_0.01_rep_7_r_K.png	 K	 r	 l	 n.a.	 6.706655e-01
2	 1	 394	 unflanked	 rf	 2	 0.216700	 0.000000	 unflanked_rf_freq_2_amplitude_0.2167_rep_9_b_D.png	 D	 b	 b	 n.a.	 3.317109e-01
2	 1	 395	 unflanked	 rf	 3	 0.113300	 0.000000	 unflanked_rf_freq_3_amplitude_0.1133_rep_6_t_D.png	 D	 t	 l	 n.a.	 6.722399e-01
2	 1	 396	 unflanked	 rf	 2	 0.268300	 0.000000	 unflanked_rf_freq_2_amplitude_0.2683_rep_2_t_H.png	 H	 t	 t	 n.a.	 4.646534e-01
2	 1	 397	 unflanked	 rf	 4	 0.165000	 0.000000	 unflanked_rf_freq_4_amplitude_0.165_rep_9_t_N.png	 N	 t	 r	 n.a.	 5.990617e-01
2	 1	 398	 unflanked	 rf	 8	 0.268300	 0.000000	 unflanked_rf_freq_8_amplitude_0.2683_rep_1_r_H.png	 H	 r	 r	 n.a.	 3.414430e-01
2	 1	 399	 unflanked	 rf	 5	 0.320000	 0.000000	 unflanked_rf_freq_5_amplitude_0.32_rep_4_r_D.png	 D	 r	 r	 n.a.	 4.639059e-01
2	 1	 400	 unflanked	 rf	 12	 0.216700	 0.000000	 unflanked_rf_freq_12_amplitude_0.2167_rep_6_b_D.png	 D	 b	 b	 n.a.	 3.640308e-01
2	 1	 401	 unflanked	 rf	 3	 0.165000	 0.000000	 unflanked_rf_freq_3_amplitude_0.165_rep_6_b_N.png	 N	 b	 b	 n.a.	 3.528084e-01
2	 1	 402	 unflanked	 rf	 4	 0.010000	 0.000000	 unflanked_rf_freq_4_amplitude_0.01_rep_6_b_N.png	 N	 b	 l	 n.a.	 4.632319e-01
2	 1	 403	 unflanked	 rf	 5	 0.113300	 0.000000	 unflanked_rf_freq_5_amplitude_0.1133_rep_1_l_K.png	 K	 l	 l	 n.a.	 4.226613e-01
2	 1	 404	 unflanked	 rf	 3	 0.165000	 0.000000	 unflanked_rf_freq_3_amplitude_0.165_rep_8_t_H.png	 H	 t	 t	 n.a.	 5.586946e-01
2	 1	 405	 unflanked	 rf	 4	 0.320000	 0.000000	 unflanked_rf_freq_4_amplitude_0.32_rep_0_t_K.png	 K	 t	 t	 n.a.	 3.675451e-01
2	 1	 406	 unflanked	 rf	 8	 0.268300	 0.000000	 unflanked_rf_freq_8_amplitude_0.2683_rep_9_t_K.png	 K	 t	 t	 n.a.	 3.753281e-01
2	 1	 407	 unflanked	 rf	 12	 0.010000	 0.000000	 unflanked_rf_freq_12_amplitude_0.01_rep_0_b_K.png	 K	 b	 b	 n.a.	 3.937450e-01
2	 1	 408	 unflanked	 rf	 12	 0.010000	 0.000000	 unflanked_rf_freq_12_amplitude_0.01_rep_2_r_N.png	 N	 r	 l	 n.a.	 5.087085e-01
2	 1	 409	 unflanked	 rf	 12	 0.113300	 0.000000	 unflanked_rf_freq_12_amplitude_0.1133_rep_9_l_K.png	 K	 l	 b	 n.a.	 6.598731e-01
2	 1	 410	 unflanked	 rf	 5	 0.061700	 0.000000	 unflanked_rf_freq_5_amplitude_0.0617_rep_5_t_D.png	 D	 t	 t	 n.a.	 4.858168e-01
2	 1	 411	 unflanked	 rf	 4	 0.216700	 0.000000	 unflanked_rf_freq_4_amplitude_0.2167_rep_5_l_N.png	 N	 l	 r	 n.a.	 4.628561e-01
2	 1	 412	 unflanked	 rf	 5	 0.268300	 0.000000	 unflanked_rf_freq_5_amplitude_0.2683_rep_3_r_K.png	 K	 r	 r	 n.a.	 2.899850e-01
2	 1	 413	 unflanked	 rf	 8	 0.113300	 0.000000	 unflanked_rf_freq_8_amplitude_0.1133_rep_6_l_N.png	 N	 l	 l	 n.a.	 3.369407e-01
2	 1	 414	 unflanked	 rf	 4	 0.268300	 0.000000	 unflanked_rf_freq_4_amplitude_0.2683_rep_7_l_D.png	 D	 l	 l	 n.a.	 4.435941e-01
2	 1	 415	 unflanked	 rf	 2	 0.165000	 0.000000	 unflanked_rf_freq_2_amplitude_0.165_rep_8_r_K.png	 K	 r	 r	 n.a.	 4.531119e-01
2	 1	 416	 unflanked	 rf	 5	 0.165000	 0.000000	 unflanked_rf_freq_5_amplitude_0.165_rep_5_r_N.png	 N	 r	 r	 n.a.	 3.168481e-01
2	 1	 417	 unflanked	 rf	 8	 0.165000	 0.000000	 unflanked_rf_freq_8_amplitude_0.165_rep_7_b_D.png	 D	 b	 b	 n.a.	 2.519023e-01
2	 1	 418	 unflanked	 rf	 8	 0.268300	 0.000000	 unflanked_rf_freq_8_amplitude_0.2683_rep_7_r_H.png	 H	 r	 r	 n.a.	 2.814945e-01
2	 1	 419	 unflanked	 rf	 8	 0.165000	 0.000000	 unflanked_rf_freq_8_amplitude_0.165_rep_3_t_N.png	 N	 t	 t	 n.a.	 4.052624e-01
2	 1	 420	 unflanked	 rf	 8	 0.320000	 0.000000	 unflanked_rf_freq_8_amplitude_0.32_rep_9_r_N.png	 N	 r	 r	 n.a.	 2.489999e-01
