subject	 session	 trial	 flanked	 distortion	 freq	 amplitude	 spacing	 im_name	 targ_letter	 targ_pos	 response	 eyemovement	 RT
7	 3	 1	 flanked	 bex	 4	 3.000000	 2.000000	 flanked_bex_freq_4_amplitude_3_rep_5_r_D_2.0.png	 D	 r	 r	 n.a.	 4.927009e-01
7	 3	 2	 flanked	 bex	 2	 5.000000	 2.000000	 flanked_bex_freq_2_amplitude_5_rep_0_t_N_2.0.png	 N	 t	 b	 n.a.	 8.366061e-01
7	 3	 3	 flanked	 bex	 32	 1.500000	 2.000000	 flanked_bex_freq_32_amplitude_1.5_rep_9_l_K_2.0.png	 K	 l	 r	 n.a.	 6.996060e-01
7	 3	 4	 flanked	 bex	 2	 3.000000	 2.000000	 flanked_bex_freq_2_amplitude_3_rep_8_b_D_2.0.png	 D	 b	 b	 n.a.	 7.674495e-01
7	 3	 5	 flanked	 bex	 2	 0.500000	 2.000000	 flanked_bex_freq_2_amplitude_0.5_rep_6_b_H_2.0.png	 H	 b	 t	 n.a.	 1.128849e+00
7	 3	 6	 flanked	 bex	 4	 1.000000	 2.000000	 flanked_bex_freq_4_amplitude_1_rep_2_b_D_2.0.png	 D	 b	 r	 n.a.	 6.196399e-01
7	 3	 7	 flanked	 bex	 32	 2.000000	 2.000000	 flanked_bex_freq_32_amplitude_2_rep_4_r_K_2.0.png	 K	 r	 b	 n.a.	 6.687313e-01
7	 3	 8	 flanked	 bex	 32	 1.500000	 2.000000	 flanked_bex_freq_32_amplitude_1.5_rep_6_l_N_2.0.png	 N	 l	 r	 n.a.	 7.331601e-01
7	 3	 9	 flanked	 bex	 6	 0.500000	 2.000000	 flanked_bex_freq_6_amplitude_0.5_rep_8_t_K_2.0.png	 K	 t	 t	 n.a.	 5.104573e-01
7	 3	 10	 flanked	 bex	 6	 2.500000	 2.000000	 flanked_bex_freq_6_amplitude_2.5_rep_6_t_D_2.0.png	 D	 t	 l	 n.a.	 7.074399e-01
7	 3	 11	 flanked	 bex	 16	 3.000000	 2.000000	 flanked_bex_freq_16_amplitude_3_rep_5_r_K_2.0.png	 K	 r	 r	 n.a.	 5.356520e-01
7	 3	 12	 flanked	 bex	 6	 1.000000	 2.000000	 flanked_bex_freq_6_amplitude_1_rep_4_r_H_2.0.png	 H	 r	 b	 n.a.	 7.316134e-01
7	 3	 13	 flanked	 bex	 4	 0.500000	 2.000000	 flanked_bex_freq_4_amplitude_0.5_rep_7_t_K_2.0.png	 K	 t	 t	 n.a.	 6.346823e-01
7	 3	 14	 flanked	 bex	 32	 2.000000	 2.000000	 flanked_bex_freq_32_amplitude_2_rep_0_t_K_2.0.png	 K	 t	 r	 n.a.	 1.046672e+00
7	 3	 15	 flanked	 bex	 8	 3.000000	 2.000000	 flanked_bex_freq_8_amplitude_3_rep_6_r_H_2.0.png	 H	 r	 r	 n.a.	 6.299716e-01
7	 3	 16	 flanked	 bex	 4	 2.000000	 2.000000	 flanked_bex_freq_4_amplitude_2_rep_3_r_H_2.0.png	 H	 r	 r	 n.a.	 7.396780e-01
7	 3	 17	 flanked	 bex	 16	 1.500000	 2.000000	 flanked_bex_freq_16_amplitude_1.5_rep_2_l_N_2.0.png	 N	 l	 t	 n.a.	 7.895754e-01
7	 3	 18	 flanked	 bex	 4	 2.500000	 2.000000	 flanked_bex_freq_4_amplitude_2.5_rep_2_t_N_2.0.png	 N	 t	 b	 n.a.	 1.087035e+00
7	 3	 19	 flanked	 bex	 32	 2.500000	 2.000000	 flanked_bex_freq_32_amplitude_2.5_rep_0_l_D_2.0.png	 D	 l	 t	 n.a.	 7.171482e-01
7	 3	 20	 flanked	 bex	 32	 2.500000	 2.000000	 flanked_bex_freq_32_amplitude_2.5_rep_1_r_D_2.0.png	 D	 r	 r	 n.a.	 5.596853e-01
7	 3	 21	 flanked	 bex	 16	 2.500000	 2.000000	 flanked_bex_freq_16_amplitude_2.5_rep_6_r_D_2.0.png	 D	 r	 r	 n.a.	 6.105936e-01
7	 3	 22	 flanked	 bex	 8	 3.000000	 2.000000	 flanked_bex_freq_8_amplitude_3_rep_7_l_K_2.0.png	 K	 l	 l	 n.a.	 5.087513e-01
7	 3	 23	 flanked	 bex	 6	 1.000000	 2.000000	 flanked_bex_freq_6_amplitude_1_rep_8_b_D_2.0.png	 D	 b	 b	 n.a.	 6.354871e-01
7	 3	 24	 flanked	 bex	 6	 1.500000	 2.000000	 flanked_bex_freq_6_amplitude_1.5_rep_8_b_K_2.0.png	 K	 b	 r	 n.a.	 7.120713e-01
7	 3	 25	 flanked	 bex	 8	 1.000000	 2.000000	 flanked_bex_freq_8_amplitude_1_rep_1_t_H_2.0.png	 H	 t	 t	 n.a.	 7.518124e-01
7	 3	 26	 flanked	 bex	 8	 2.000000	 2.000000	 flanked_bex_freq_8_amplitude_2_rep_7_l_D_2.0.png	 D	 l	 l	 n.a.	 5.165072e-01
7	 3	 27	 flanked	 bex	 6	 3.000000	 2.000000	 flanked_bex_freq_6_amplitude_3_rep_2_t_D_2.0.png	 D	 t	 t	 n.a.	 5.247899e-01
7	 3	 28	 flanked	 bex	 4	 0.500000	 2.000000	 flanked_bex_freq_4_amplitude_0.5_rep_4_b_N_2.0.png	 N	 b	 l	 n.a.	 5.561725e-01
7	 3	 29	 flanked	 bex	 32	 1.500000	 2.000000	 flanked_bex_freq_32_amplitude_1.5_rep_2_l_K_2.0.png	 K	 l	 b	 n.a.	 6.194178e-01
7	 3	 30	 flanked	 bex	 16	 1.000000	 2.000000	 flanked_bex_freq_16_amplitude_1_rep_6_l_N_2.0.png	 N	 l	 t	 n.a.	 5.255060e-01
7	 3	 31	 flanked	 bex	 2	 3.000000	 2.000000	 flanked_bex_freq_2_amplitude_3_rep_6_b_N_2.0.png	 N	 b	 b	 n.a.	 6.299033e-01
7	 3	 32	 flanked	 bex	 8	 5.000000	 2.000000	 flanked_bex_freq_8_amplitude_5_rep_9_t_H_2.0.png	 H	 t	 t	 n.a.	 3.944169e-01
7	 3	 33	 flanked	 bex	 2	 1.000000	 2.000000	 flanked_bex_freq_2_amplitude_1_rep_7_b_N_2.0.png	 N	 b	 l	 n.a.	 5.455780e-01
7	 3	 34	 flanked	 bex	 2	 2.500000	 2.000000	 flanked_bex_freq_2_amplitude_2.5_rep_6_t_K_2.0.png	 K	 t	 t	 n.a.	 5.886410e-01
7	 3	 35	 flanked	 bex	 8	 2.000000	 2.000000	 flanked_bex_freq_8_amplitude_2_rep_3_b_D_2.0.png	 D	 b	 b	 n.a.	 5.867825e-01
7	 3	 36	 flanked	 bex	 8	 0.500000	 2.000000	 flanked_bex_freq_8_amplitude_0.5_rep_8_l_D_2.0.png	 D	 l	 t	 n.a.	 7.814333e-01
7	 3	 37	 flanked	 bex	 6	 5.000000	 2.000000	 flanked_bex_freq_6_amplitude_5_rep_7_l_D_2.0.png	 D	 l	 l	 n.a.	 3.530651e-01
7	 3	 38	 flanked	 bex	 32	 2.500000	 2.000000	 flanked_bex_freq_32_amplitude_2.5_rep_2_b_H_2.0.png	 H	 b	 b	 n.a.	 5.276908e-01
7	 3	 39	 flanked	 bex	 6	 2.500000	 2.000000	 flanked_bex_freq_6_amplitude_2.5_rep_4_t_K_2.0.png	 K	 t	 t	 n.a.	 6.671668e-01
7	 3	 40	 flanked	 bex	 6	 0.500000	 2.000000	 flanked_bex_freq_6_amplitude_0.5_rep_1_t_D_2.0.png	 D	 t	 t	 n.a.	 1.049951e+00
7	 3	 41	 flanked	 bex	 32	 1.500000	 2.000000	 flanked_bex_freq_32_amplitude_1.5_rep_4_b_H_2.0.png	 H	 b	 t	 n.a.	 8.443763e-01
7	 3	 42	 flanked	 bex	 2	 0.500000	 2.000000	 flanked_bex_freq_2_amplitude_0.5_rep_0_b_H_2.0.png	 H	 b	 l	 n.a.	 9.224854e-01
7	 3	 43	 flanked	 bex	 2	 1.000000	 2.000000	 flanked_bex_freq_2_amplitude_1_rep_3_b_K_2.0.png	 K	 b	 t	 n.a.	 8.129437e-01
7	 3	 44	 flanked	 bex	 2	 0.500000	 2.000000	 flanked_bex_freq_2_amplitude_0.5_rep_2_b_K_2.0.png	 K	 b	 b	 n.a.	 6.884204e-01
7	 3	 45	 flanked	 bex	 8	 1.500000	 2.000000	 flanked_bex_freq_8_amplitude_1.5_rep_2_b_D_2.0.png	 D	 b	 b	 n.a.	 7.245827e-01
7	 3	 46	 flanked	 bex	 8	 1.500000	 2.000000	 flanked_bex_freq_8_amplitude_1.5_rep_1_b_H_2.0.png	 H	 b	 b	 n.a.	 7.279825e-01
7	 3	 47	 flanked	 bex	 2	 2.000000	 2.000000	 flanked_bex_freq_2_amplitude_2_rep_6_t_N_2.0.png	 N	 t	 b	 n.a.	 8.673745e-01
7	 3	 48	 flanked	 bex	 16	 2.500000	 2.000000	 flanked_bex_freq_16_amplitude_2.5_rep_5_t_K_2.0.png	 K	 t	 t	 n.a.	 6.599195e-01
7	 3	 49	 flanked	 bex	 6	 1.500000	 2.000000	 flanked_bex_freq_6_amplitude_1.5_rep_7_b_H_2.0.png	 H	 b	 t	 n.a.	 8.589212e-01
7	 3	 50	 flanked	 bex	 2	 3.000000	 2.000000	 flanked_bex_freq_2_amplitude_3_rep_1_b_K_2.0.png	 K	 b	 l	 n.a.	 9.361088e-01
7	 3	 51	 flanked	 bex	 4	 5.000000	 2.000000	 flanked_bex_freq_4_amplitude_5_rep_8_l_N_2.0.png	 N	 l	 l	 n.a.	 7.078708e-01
7	 3	 52	 flanked	 bex	 32	 2.000000	 2.000000	 flanked_bex_freq_32_amplitude_2_rep_3_b_K_2.0.png	 K	 b	 b	 n.a.	 7.633754e-01
7	 3	 53	 flanked	 bex	 6	 2.500000	 2.000000	 flanked_bex_freq_6_amplitude_2.5_rep_2_r_D_2.0.png	 D	 r	 r	 n.a.	 6.424739e-01
7	 3	 54	 flanked	 bex	 8	 2.500000	 2.000000	 flanked_bex_freq_8_amplitude_2.5_rep_8_r_N_2.0.png	 N	 r	 r	 n.a.	 6.619942e-01
7	 3	 55	 flanked	 bex	 2	 5.000000	 2.000000	 flanked_bex_freq_2_amplitude_5_rep_5_t_H_2.0.png	 H	 t	 t	 n.a.	 6.320193e-01
7	 3	 56	 flanked	 bex	 2	 2.500000	 2.000000	 flanked_bex_freq_2_amplitude_2.5_rep_4_b_N_2.0.png	 N	 b	 l	 n.a.	 9.078445e-01
7	 3	 57	 flanked	 bex	 2	 5.000000	 2.000000	 flanked_bex_freq_2_amplitude_5_rep_2_t_N_2.0.png	 N	 t	 t	 n.a.	 6.209915e-01
7	 3	 58	 flanked	 bex	 16	 3.000000	 2.000000	 flanked_bex_freq_16_amplitude_3_rep_7_r_H_2.0.png	 H	 r	 r	 n.a.	 6.013957e-01
7	 3	 59	 flanked	 bex	 2	 0.500000	 2.000000	 flanked_bex_freq_2_amplitude_0.5_rep_4_b_H_2.0.png	 H	 b	 r	 n.a.	 6.769904e-01
7	 3	 60	 flanked	 bex	 8	 3.000000	 2.000000	 flanked_bex_freq_8_amplitude_3_rep_2_r_D_2.0.png	 D	 r	 r	 n.a.	 5.934667e-01
7	 3	 61	 flanked	 bex	 6	 0.500000	 2.000000	 flanked_bex_freq_6_amplitude_0.5_rep_2_t_K_2.0.png	 K	 t	 l	 n.a.	 6.363001e-01
7	 3	 62	 flanked	 bex	 6	 2.000000	 2.000000	 flanked_bex_freq_6_amplitude_2_rep_9_t_H_2.0.png	 H	 t	 t	 n.a.	 4.785821e-01
7	 3	 63	 flanked	 bex	 4	 2.500000	 2.000000	 flanked_bex_freq_4_amplitude_2.5_rep_7_t_D_2.0.png	 D	 t	 t	 n.a.	 5.599393e-01
7	 3	 64	 flanked	 bex	 32	 3.000000	 2.000000	 flanked_bex_freq_32_amplitude_3_rep_7_b_D_2.0.png	 D	 b	 t	 n.a.	 5.428395e-01
7	 3	 65	 flanked	 bex	 16	 5.000000	 2.000000	 flanked_bex_freq_16_amplitude_5_rep_2_l_D_2.0.png	 D	 l	 l	 n.a.	 2.896767e-01
7	 3	 66	 flanked	 bex	 8	 3.000000	 2.000000	 flanked_bex_freq_8_amplitude_3_rep_1_b_K_2.0.png	 K	 b	 b	 n.a.	 3.877421e-01
7	 3	 67	 flanked	 bex	 2	 1.500000	 2.000000	 flanked_bex_freq_2_amplitude_1.5_rep_0_b_D_2.0.png	 D	 b	 r	 n.a.	 6.529052e-01
7	 3	 68	 flanked	 bex	 6	 5.000000	 2.000000	 flanked_bex_freq_6_amplitude_5_rep_6_b_K_2.0.png	 K	 b	 b	 n.a.	 3.977589e-01
7	 3	 69	 flanked	 bex	 4	 0.500000	 2.000000	 flanked_bex_freq_4_amplitude_0.5_rep_6_l_H_2.0.png	 H	 l	 t	 n.a.	 4.546095e-01
7	 3	 70	 flanked	 bex	 2	 5.000000	 2.000000	 flanked_bex_freq_2_amplitude_5_rep_4_b_H_2.0.png	 H	 b	 b	 n.a.	 3.830298e-01
7	 3	 71	 flanked	 bex	 4	 3.000000	 2.000000	 flanked_bex_freq_4_amplitude_3_rep_2_t_N_2.0.png	 N	 t	 l	 n.a.	 5.215927e-01
7	 3	 72	 flanked	 bex	 32	 5.000000	 2.000000	 flanked_bex_freq_32_amplitude_5_rep_3_r_H_2.0.png	 H	 r	 r	 n.a.	 3.268863e-01
7	 3	 73	 flanked	 bex	 32	 0.500000	 2.000000	 flanked_bex_freq_32_amplitude_0.5_rep_0_b_K_2.0.png	 K	 b	 b	 n.a.	 4.259288e-01
7	 3	 74	 flanked	 bex	 4	 2.000000	 2.000000	 flanked_bex_freq_4_amplitude_2_rep_6_l_D_2.0.png	 D	 l	 r	 n.a.	 5.836783e-01
7	 3	 75	 flanked	 bex	 32	 1.500000	 2.000000	 flanked_bex_freq_32_amplitude_1.5_rep_3_r_D_2.0.png	 D	 r	 b	 n.a.	 4.933299e-01
7	 3	 76	 flanked	 bex	 16	 1.500000	 2.000000	 flanked_bex_freq_16_amplitude_1.5_rep_6_b_K_2.0.png	 K	 b	 r	 n.a.	 6.134260e-01
7	 3	 77	 flanked	 bex	 6	 2.000000	 2.000000	 flanked_bex_freq_6_amplitude_2_rep_3_r_K_2.0.png	 K	 r	 r	 n.a.	 4.776781e-01
7	 3	 78	 flanked	 bex	 16	 0.500000	 2.000000	 flanked_bex_freq_16_amplitude_0.5_rep_6_t_N_2.0.png	 N	 t	 b	 n.a.	 4.798024e-01
7	 3	 79	 flanked	 bex	 4	 2.000000	 2.000000	 flanked_bex_freq_4_amplitude_2_rep_8_t_H_2.0.png	 H	 t	 t	 n.a.	 7.567570e-01
7	 3	 80	 flanked	 bex	 4	 3.000000	 2.000000	 flanked_bex_freq_4_amplitude_3_rep_4_t_D_2.0.png	 D	 t	 r	 n.a.	 5.804657e-01
7	 3	 81	 flanked	 bex	 2	 5.000000	 2.000000	 flanked_bex_freq_2_amplitude_5_rep_1_r_N_2.0.png	 N	 r	 r	 n.a.	 4.986645e-01
7	 3	 82	 flanked	 bex	 8	 2.500000	 2.000000	 flanked_bex_freq_8_amplitude_2.5_rep_1_l_D_2.0.png	 D	 l	 l	 n.a.	 3.134350e-01
7	 3	 83	 flanked	 bex	 6	 2.000000	 2.000000	 flanked_bex_freq_6_amplitude_2_rep_4_t_D_2.0.png	 D	 t	 l	 n.a.	 8.108068e-01
7	 3	 84	 flanked	 bex	 16	 1.000000	 2.000000	 flanked_bex_freq_16_amplitude_1_rep_9_t_D_2.0.png	 D	 t	 t	 n.a.	 7.613095e-01
7	 3	 85	 flanked	 bex	 16	 5.000000	 2.000000	 flanked_bex_freq_16_amplitude_5_rep_5_r_N_2.0.png	 N	 r	 r	 n.a.	 5.141287e-01
7	 3	 86	 flanked	 bex	 16	 0.500000	 2.000000	 flanked_bex_freq_16_amplitude_0.5_rep_8_t_H_2.0.png	 H	 t	 r	 n.a.	 6.159501e-01
7	 3	 87	 flanked	 bex	 6	 0.500000	 2.000000	 flanked_bex_freq_6_amplitude_0.5_rep_3_t_K_2.0.png	 K	 t	 t	 n.a.	 5.866830e-01
7	 3	 88	 flanked	 bex	 16	 5.000000	 2.000000	 flanked_bex_freq_16_amplitude_5_rep_4_b_N_2.0.png	 N	 b	 b	 n.a.	 4.194187e-01
7	 3	 89	 flanked	 bex	 8	 2.500000	 2.000000	 flanked_bex_freq_8_amplitude_2.5_rep_6_t_H_2.0.png	 H	 t	 r	 n.a.	 6.722169e-01
7	 3	 90	 flanked	 bex	 32	 2.000000	 2.000000	 flanked_bex_freq_32_amplitude_2_rep_1_b_H_2.0.png	 H	 b	 b	 n.a.	 7.431428e-01
7	 3	 91	 flanked	 bex	 4	 1.000000	 2.000000	 flanked_bex_freq_4_amplitude_1_rep_7_l_D_2.0.png	 D	 l	 b	 n.a.	 8.915441e-01
7	 3	 92	 flanked	 bex	 32	 2.500000	 2.000000	 flanked_bex_freq_32_amplitude_2.5_rep_9_l_N_2.0.png	 N	 l	 l	 n.a.	 5.205374e-01
7	 3	 93	 flanked	 bex	 2	 3.000000	 2.000000	 flanked_bex_freq_2_amplitude_3_rep_9_r_N_2.0.png	 N	 r	 l	 n.a.	 5.557034e-01
7	 3	 94	 flanked	 bex	 2	 5.000000	 2.000000	 flanked_bex_freq_2_amplitude_5_rep_9_l_N_2.0.png	 N	 l	 l	 n.a.	 7.150678e-01
7	 3	 95	 flanked	 bex	 6	 3.000000	 2.000000	 flanked_bex_freq_6_amplitude_3_rep_5_b_K_2.0.png	 K	 b	 b	 n.a.	 4.506630e-01
7	 3	 96	 flanked	 bex	 32	 3.000000	 2.000000	 flanked_bex_freq_32_amplitude_3_rep_0_t_H_2.0.png	 H	 t	 t	 n.a.	 5.607849e-01
7	 3	 97	 flanked	 bex	 4	 1.000000	 2.000000	 flanked_bex_freq_4_amplitude_1_rep_9_b_D_2.0.png	 D	 b	 t	 n.a.	 6.089540e-01
7	 3	 98	 flanked	 bex	 8	 0.500000	 2.000000	 flanked_bex_freq_8_amplitude_0.5_rep_3_t_H_2.0.png	 H	 t	 b	 n.a.	 6.106423e-01
7	 3	 99	 flanked	 bex	 16	 2.000000	 2.000000	 flanked_bex_freq_16_amplitude_2_rep_6_t_D_2.0.png	 D	 t	 l	 n.a.	 7.326368e-01
7	 3	 100	 flanked	 bex	 6	 2.500000	 2.000000	 flanked_bex_freq_6_amplitude_2.5_rep_9_l_K_2.0.png	 K	 l	 l	 n.a.	 5.164615e-01
7	 3	 101	 flanked	 bex	 6	 5.000000	 2.000000	 flanked_bex_freq_6_amplitude_5_rep_2_b_H_2.0.png	 H	 b	 b	 n.a.	 4.179040e-01
7	 3	 102	 flanked	 bex	 2	 2.000000	 2.000000	 flanked_bex_freq_2_amplitude_2_rep_2_r_N_2.0.png	 N	 r	 b	 n.a.	 4.863514e-01
7	 3	 103	 flanked	 bex	 32	 2.500000	 2.000000	 flanked_bex_freq_32_amplitude_2.5_rep_4_l_N_2.0.png	 N	 l	 l	 n.a.	 3.858055e-01
7	 3	 104	 flanked	 bex	 4	 2.500000	 2.000000	 flanked_bex_freq_4_amplitude_2.5_rep_5_r_H_2.0.png	 H	 r	 r	 n.a.	 4.297181e-01
7	 3	 105	 flanked	 bex	 4	 2.500000	 2.000000	 flanked_bex_freq_4_amplitude_2.5_rep_6_l_N_2.0.png	 N	 l	 l	 n.a.	 4.067076e-01
7	 3	 106	 flanked	 bex	 2	 3.000000	 2.000000	 flanked_bex_freq_2_amplitude_3_rep_4_r_D_2.0.png	 D	 r	 r	 n.a.	 4.321124e-01
7	 3	 107	 flanked	 bex	 6	 5.000000	 2.000000	 flanked_bex_freq_6_amplitude_5_rep_8_l_K_2.0.png	 K	 l	 l	 n.a.	 3.119767e-01
7	 3	 108	 flanked	 bex	 8	 2.000000	 2.000000	 flanked_bex_freq_8_amplitude_2_rep_2_r_H_2.0.png	 H	 r	 r	 n.a.	 4.146398e-01
7	 3	 109	 flanked	 bex	 6	 0.500000	 2.000000	 flanked_bex_freq_6_amplitude_0.5_rep_7_r_K_2.0.png	 K	 r	 t	 n.a.	 7.168209e-01
7	 3	 110	 flanked	 bex	 16	 3.000000	 2.000000	 flanked_bex_freq_16_amplitude_3_rep_9_r_K_2.0.png	 K	 r	 r	 n.a.	 3.493010e-01
7	 3	 111	 flanked	 bex	 2	 2.500000	 2.000000	 flanked_bex_freq_2_amplitude_2.5_rep_8_r_H_2.0.png	 H	 r	 b	 n.a.	 4.967755e-01
7	 3	 112	 flanked	 bex	 2	 2.500000	 2.000000	 flanked_bex_freq_2_amplitude_2.5_rep_5_t_N_2.0.png	 N	 t	 r	 n.a.	 6.688230e-01
7	 3	 113	 flanked	 bex	 16	 0.500000	 2.000000	 flanked_bex_freq_16_amplitude_0.5_rep_3_l_D_2.0.png	 D	 l	 b	 n.a.	 4.827222e-01
7	 3	 114	 flanked	 bex	 4	 0.500000	 2.000000	 flanked_bex_freq_4_amplitude_0.5_rep_3_l_K_2.0.png	 K	 l	 l	 n.a.	 3.502584e-01
7	 3	 115	 flanked	 bex	 2	 5.000000	 2.000000	 flanked_bex_freq_2_amplitude_5_rep_3_l_H_2.0.png	 H	 l	 l	 n.a.	 5.303659e-01
7	 3	 116	 flanked	 bex	 8	 1.500000	 2.000000	 flanked_bex_freq_8_amplitude_1.5_rep_3_t_K_2.0.png	 K	 t	 t	 n.a.	 5.036555e-01
7	 3	 117	 flanked	 bex	 2	 1.000000	 2.000000	 flanked_bex_freq_2_amplitude_1_rep_2_l_N_2.0.png	 N	 l	 l	 n.a.	 8.311838e-01
7	 3	 118	 flanked	 bex	 6	 2.000000	 2.000000	 flanked_bex_freq_6_amplitude_2_rep_8_r_D_2.0.png	 D	 r	 r	 n.a.	 5.092100e-01
7	 3	 119	 flanked	 bex	 4	 2.500000	 2.000000	 flanked_bex_freq_4_amplitude_2.5_rep_4_l_H_2.0.png	 H	 l	 l	 n.a.	 3.604542e-01
7	 3	 120	 flanked	 bex	 16	 5.000000	 2.000000	 flanked_bex_freq_16_amplitude_5_rep_3_b_N_2.0.png	 N	 b	 b	 n.a.	 4.094370e-01
7	 3	 121	 flanked	 bex	 6	 5.000000	 2.000000	 flanked_bex_freq_6_amplitude_5_rep_0_b_N_2.0.png	 N	 b	 b	 n.a.	 3.983627e-01
7	 3	 122	 flanked	 bex	 6	 1.000000	 2.000000	 flanked_bex_freq_6_amplitude_1_rep_0_t_K_2.0.png	 K	 t	 t	 n.a.	 6.342652e-01
7	 3	 123	 flanked	 bex	 6	 2.000000	 2.000000	 flanked_bex_freq_6_amplitude_2_rep_0_r_H_2.0.png	 H	 r	 r	 n.a.	 4.727298e-01
7	 3	 124	 flanked	 bex	 8	 2.000000	 2.000000	 flanked_bex_freq_8_amplitude_2_rep_9_l_D_2.0.png	 D	 l	 l	 n.a.	 3.153818e-01
7	 3	 125	 flanked	 bex	 4	 5.000000	 2.000000	 flanked_bex_freq_4_amplitude_5_rep_1_t_K_2.0.png	 K	 t	 t	 n.a.	 3.083341e-01
7	 3	 126	 flanked	 bex	 8	 1.500000	 2.000000	 flanked_bex_freq_8_amplitude_1.5_rep_8_b_H_2.0.png	 H	 b	 r	 n.a.	 5.206338e-01
7	 3	 127	 flanked	 bex	 2	 2.500000	 2.000000	 flanked_bex_freq_2_amplitude_2.5_rep_9_r_N_2.0.png	 N	 r	 b	 n.a.	 5.611058e-01
7	 3	 128	 flanked	 bex	 2	 2.000000	 2.000000	 flanked_bex_freq_2_amplitude_2_rep_8_b_K_2.0.png	 K	 b	 t	 n.a.	 8.279535e-01
7	 3	 129	 flanked	 bex	 16	 2.500000	 2.000000	 flanked_bex_freq_16_amplitude_2.5_rep_7_r_D_2.0.png	 D	 r	 r	 n.a.	 4.109872e-01
7	 3	 130	 flanked	 bex	 16	 0.500000	 2.000000	 flanked_bex_freq_16_amplitude_0.5_rep_2_l_H_2.0.png	 H	 l	 b	 n.a.	 6.934090e-01
7	 3	 131	 flanked	 bex	 32	 1.500000	 2.000000	 flanked_bex_freq_32_amplitude_1.5_rep_1_r_K_2.0.png	 K	 r	 r	 n.a.	 5.639871e-01
7	 3	 132	 flanked	 bex	 8	 1.500000	 2.000000	 flanked_bex_freq_8_amplitude_1.5_rep_7_b_N_2.0.png	 N	 b	 b	 n.a.	 5.963845e-01
7	 3	 133	 flanked	 bex	 4	 3.000000	 2.000000	 flanked_bex_freq_4_amplitude_3_rep_6_l_H_2.0.png	 H	 l	 l	 n.a.	 4.294478e-01
7	 3	 134	 flanked	 bex	 8	 1.000000	 2.000000	 flanked_bex_freq_8_amplitude_1_rep_8_r_K_2.0.png	 K	 r	 b	 n.a.	 6.368659e-01
7	 3	 135	 flanked	 bex	 4	 1.500000	 2.000000	 flanked_bex_freq_4_amplitude_1.5_rep_4_l_N_2.0.png	 N	 l	 l	 n.a.	 5.717747e-01
7	 3	 136	 flanked	 bex	 8	 2.500000	 2.000000	 flanked_bex_freq_8_amplitude_2.5_rep_7_b_N_2.0.png	 N	 b	 b	 n.a.	 4.547862e-01
7	 3	 137	 flanked	 bex	 8	 0.500000	 2.000000	 flanked_bex_freq_8_amplitude_0.5_rep_9_t_D_2.0.png	 D	 t	 b	 n.a.	 6.462745e-01
7	 3	 138	 flanked	 bex	 4	 2.000000	 2.000000	 flanked_bex_freq_4_amplitude_2_rep_9_r_D_2.0.png	 D	 r	 r	 n.a.	 4.283232e-01
7	 3	 139	 flanked	 bex	 16	 5.000000	 2.000000	 flanked_bex_freq_16_amplitude_5_rep_6_l_N_2.0.png	 N	 l	 l	 n.a.	 3.768614e-01
7	 3	 140	 flanked	 bex	 32	 5.000000	 2.000000	 flanked_bex_freq_32_amplitude_5_rep_6_l_N_2.0.png	 N	 l	 l	 n.a.	 4.675670e-01
7	 3	 141	 flanked	 bex	 8	 5.000000	 2.000000	 flanked_bex_freq_8_amplitude_5_rep_6_t_N_2.0.png	 N	 t	 t	 n.a.	 2.956754e-01
7	 3	 142	 flanked	 bex	 4	 1.500000	 2.000000	 flanked_bex_freq_4_amplitude_1.5_rep_9_b_K_2.0.png	 K	 b	 b	 n.a.	 5.126486e-01
7	 3	 143	 flanked	 bex	 32	 1.000000	 2.000000	 flanked_bex_freq_32_amplitude_1_rep_2_l_H_2.0.png	 H	 l	 b	 n.a.	 6.184809e-01
7	 3	 144	 flanked	 bex	 4	 2.000000	 2.000000	 flanked_bex_freq_4_amplitude_2_rep_7_t_D_2.0.png	 D	 t	 t	 n.a.	 5.647336e-01
7	 3	 145	 flanked	 bex	 6	 2.000000	 2.000000	 flanked_bex_freq_6_amplitude_2_rep_5_t_D_2.0.png	 D	 t	 t	 n.a.	 5.785598e-01
7	 3	 146	 flanked	 bex	 6	 0.500000	 2.000000	 flanked_bex_freq_6_amplitude_0.5_rep_0_r_N_2.0.png	 N	 r	 t	 n.a.	 5.766046e-01
7	 3	 147	 flanked	 bex	 32	 3.000000	 2.000000	 flanked_bex_freq_32_amplitude_3_rep_3_t_D_2.0.png	 D	 t	 b	 n.a.	 4.541257e-01
7	 3	 148	 flanked	 bex	 32	 2.000000	 2.000000	 flanked_bex_freq_32_amplitude_2_rep_6_l_D_2.0.png	 D	 l	 l	 n.a.	 5.937161e-01
7	 3	 149	 flanked	 bex	 16	 1.000000	 2.000000	 flanked_bex_freq_16_amplitude_1_rep_5_l_D_2.0.png	 D	 l	 t	 n.a.	 5.555220e-01
7	 3	 150	 flanked	 bex	 4	 3.000000	 2.000000	 flanked_bex_freq_4_amplitude_3_rep_3_r_D_2.0.png	 D	 r	 r	 n.a.	 3.512738e-01
7	 3	 151	 flanked	 bex	 2	 2.500000	 2.000000	 flanked_bex_freq_2_amplitude_2.5_rep_3_b_K_2.0.png	 K	 b	 b	 n.a.	 4.609294e-01
7	 3	 152	 flanked	 bex	 8	 5.000000	 2.000000	 flanked_bex_freq_8_amplitude_5_rep_2_l_N_2.0.png	 N	 l	 l	 n.a.	 3.414682e-01
7	 3	 153	 flanked	 bex	 2	 2.000000	 2.000000	 flanked_bex_freq_2_amplitude_2_rep_1_b_D_2.0.png	 D	 b	 b	 n.a.	 7.906804e-01
7	 3	 154	 flanked	 bex	 16	 5.000000	 2.000000	 flanked_bex_freq_16_amplitude_5_rep_0_t_D_2.0.png	 D	 t	 t	 n.a.	 4.617746e-01
7	 3	 155	 flanked	 bex	 4	 1.500000	 2.000000	 flanked_bex_freq_4_amplitude_1.5_rep_0_b_H_2.0.png	 H	 b	 l	 n.a.	 4.378022e-01
7	 3	 156	 flanked	 bex	 6	 1.500000	 2.000000	 flanked_bex_freq_6_amplitude_1.5_rep_5_b_K_2.0.png	 K	 b	 t	 n.a.	 8.982173e-01
7	 3	 157	 flanked	 bex	 6	 2.500000	 2.000000	 flanked_bex_freq_6_amplitude_2.5_rep_1_l_H_2.0.png	 H	 l	 l	 n.a.	 4.312347e-01
7	 3	 158	 flanked	 bex	 4	 0.500000	 2.000000	 flanked_bex_freq_4_amplitude_0.5_rep_1_r_H_2.0.png	 H	 r	 b	 n.a.	 5.202710e-01
7	 3	 159	 flanked	 bex	 32	 0.500000	 2.000000	 flanked_bex_freq_32_amplitude_0.5_rep_5_r_K_2.0.png	 K	 r	 t	 n.a.	 4.924371e-01
7	 3	 160	 flanked	 bex	 32	 1.000000	 2.000000	 flanked_bex_freq_32_amplitude_1_rep_6_t_D_2.0.png	 D	 t	 l	 n.a.	 4.349089e-01
7	 3	 161	 flanked	 bex	 8	 5.000000	 2.000000	 flanked_bex_freq_8_amplitude_5_rep_0_r_D_2.0.png	 D	 r	 r	 n.a.	 3.172832e-01
7	 3	 162	 flanked	 bex	 2	 2.500000	 2.000000	 flanked_bex_freq_2_amplitude_2.5_rep_2_l_K_2.0.png	 K	 l	 l	 n.a.	 4.625579e-01
7	 3	 163	 flanked	 bex	 6	 2.000000	 2.000000	 flanked_bex_freq_6_amplitude_2_rep_7_t_N_2.0.png	 N	 t	 t	 n.a.	 3.786435e-01
7	 3	 164	 flanked	 bex	 6	 1.000000	 2.000000	 flanked_bex_freq_6_amplitude_1_rep_3_r_D_2.0.png	 D	 r	 r	 n.a.	 3.952261e-01
7	 3	 165	 flanked	 bex	 32	 5.000000	 2.000000	 flanked_bex_freq_32_amplitude_5_rep_2_r_D_2.0.png	 D	 r	 r	 n.a.	 3.679250e-01
7	 3	 166	 flanked	 bex	 8	 2.500000	 2.000000	 flanked_bex_freq_8_amplitude_2.5_rep_3_l_N_2.0.png	 N	 l	 l	 n.a.	 3.356530e-01
7	 3	 167	 flanked	 bex	 2	 3.000000	 2.000000	 flanked_bex_freq_2_amplitude_3_rep_7_r_H_2.0.png	 H	 r	 r	 n.a.	 3.959013e-01
7	 3	 168	 flanked	 bex	 16	 2.000000	 2.000000	 flanked_bex_freq_16_amplitude_2_rep_7_t_D_2.0.png	 D	 t	 l	 n.a.	 3.118567e-01
7	 3	 169	 flanked	 bex	 6	 2.500000	 2.000000	 flanked_bex_freq_6_amplitude_2.5_rep_0_r_N_2.0.png	 N	 r	 r	 n.a.	 3.810838e-01
7	 3	 170	 flanked	 bex	 2	 2.000000	 2.000000	 flanked_bex_freq_2_amplitude_2_rep_9_l_H_2.0.png	 H	 l	 l	 n.a.	 4.103273e-01
7	 3	 171	 flanked	 bex	 4	 1.500000	 2.000000	 flanked_bex_freq_4_amplitude_1.5_rep_3_l_D_2.0.png	 D	 l	 r	 n.a.	 6.181510e-01
7	 3	 172	 flanked	 bex	 16	 2.000000	 2.000000	 flanked_bex_freq_16_amplitude_2_rep_3_b_H_2.0.png	 H	 b	 t	 n.a.	 3.912844e-01
7	 3	 173	 flanked	 bex	 2	 2.500000	 2.000000	 flanked_bex_freq_2_amplitude_2.5_rep_1_t_H_2.0.png	 H	 t	 l	 n.a.	 4.907463e-01
7	 3	 174	 flanked	 bex	 8	 0.500000	 2.000000	 flanked_bex_freq_8_amplitude_0.5_rep_6_t_N_2.0.png	 N	 t	 l	 n.a.	 8.452673e-01
7	 3	 175	 flanked	 bex	 4	 2.500000	 2.000000	 flanked_bex_freq_4_amplitude_2.5_rep_0_t_K_2.0.png	 K	 t	 t	 n.a.	 4.114066e-01
7	 3	 176	 flanked	 bex	 16	 5.000000	 2.000000	 flanked_bex_freq_16_amplitude_5_rep_9_b_D_2.0.png	 D	 b	 b	 n.a.	 3.561390e-01
7	 3	 177	 flanked	 bex	 2	 2.000000	 2.000000	 flanked_bex_freq_2_amplitude_2_rep_5_t_D_2.0.png	 D	 t	 b	 n.a.	 5.470931e-01
7	 3	 178	 flanked	 bex	 32	 0.500000	 2.000000	 flanked_bex_freq_32_amplitude_0.5_rep_2_b_H_2.0.png	 H	 b	 r	 n.a.	 4.922067e-01
7	 3	 179	 flanked	 bex	 16	 0.500000	 2.000000	 flanked_bex_freq_16_amplitude_0.5_rep_1_l_D_2.0.png	 D	 l	 b	 n.a.	 4.527256e-01
7	 3	 180	 flanked	 bex	 16	 1.000000	 2.000000	 flanked_bex_freq_16_amplitude_1_rep_1_l_K_2.0.png	 K	 l	 l	 n.a.	 3.447304e-01
7	 3	 181	 flanked	 bex	 2	 3.000000	 2.000000	 flanked_bex_freq_2_amplitude_3_rep_0_l_H_2.0.png	 H	 l	 l	 n.a.	 6.623292e-01
7	 3	 182	 flanked	 bex	 32	 1.000000	 2.000000	 flanked_bex_freq_32_amplitude_1_rep_1_b_K_2.0.png	 K	 b	 b	 n.a.	 4.009979e-01
7	 3	 183	 flanked	 bex	 2	 2.500000	 2.000000	 flanked_bex_freq_2_amplitude_2.5_rep_7_l_K_2.0.png	 K	 l	 b	 n.a.	 5.775573e-01
7	 3	 184	 flanked	 bex	 4	 0.500000	 2.000000	 flanked_bex_freq_4_amplitude_0.5_rep_9_t_K_2.0.png	 K	 t	 b	 n.a.	 6.319303e-01
7	 3	 185	 flanked	 bex	 6	 0.500000	 2.000000	 flanked_bex_freq_6_amplitude_0.5_rep_5_r_D_2.0.png	 D	 r	 r	 n.a.	 9.654077e-01
7	 3	 186	 flanked	 bex	 16	 3.000000	 2.000000	 flanked_bex_freq_16_amplitude_3_rep_2_r_N_2.0.png	 N	 r	 r	 n.a.	 6.324737e-01
7	 3	 187	 flanked	 bex	 16	 1.500000	 2.000000	 flanked_bex_freq_16_amplitude_1.5_rep_0_b_K_2.0.png	 K	 b	 b	 n.a.	 5.623384e-01
7	 3	 188	 flanked	 bex	 32	 5.000000	 2.000000	 flanked_bex_freq_32_amplitude_5_rep_0_b_N_2.0.png	 N	 b	 b	 n.a.	 5.196302e-01
7	 3	 189	 flanked	 bex	 6	 2.500000	 2.000000	 flanked_bex_freq_6_amplitude_2.5_rep_3_l_H_2.0.png	 H	 l	 l	 n.a.	 4.504734e-01
7	 3	 190	 flanked	 bex	 4	 0.500000	 2.000000	 flanked_bex_freq_4_amplitude_0.5_rep_5_r_K_2.0.png	 K	 r	 b	 n.a.	 7.173534e-01
7	 3	 191	 flanked	 bex	 32	 2.000000	 2.000000	 flanked_bex_freq_32_amplitude_2_rep_9_l_N_2.0.png	 N	 l	 l	 n.a.	 4.958565e-01
7	 3	 192	 flanked	 bex	 32	 2.000000	 2.000000	 flanked_bex_freq_32_amplitude_2_rep_8_l_N_2.0.png	 N	 l	 b	 n.a.	 5.816013e-01
7	 3	 193	 flanked	 bex	 4	 5.000000	 2.000000	 flanked_bex_freq_4_amplitude_5_rep_0_t_D_2.0.png	 D	 t	 b	 n.a.	 5.587666e-01
7	 3	 194	 flanked	 bex	 2	 1.500000	 2.000000	 flanked_bex_freq_2_amplitude_1.5_rep_3_b_N_2.0.png	 N	 b	 l	 n.a.	 6.049459e-01
7	 3	 195	 flanked	 bex	 4	 2.000000	 2.000000	 flanked_bex_freq_4_amplitude_2_rep_1_t_D_2.0.png	 D	 t	 b	 n.a.	 5.318159e-01
7	 3	 196	 flanked	 bex	 8	 2.500000	 2.000000	 flanked_bex_freq_8_amplitude_2.5_rep_2_l_D_2.0.png	 D	 l	 l	 n.a.	 3.927976e-01
7	 3	 197	 flanked	 bex	 2	 2.000000	 2.000000	 flanked_bex_freq_2_amplitude_2_rep_7_t_H_2.0.png	 H	 t	 r	 n.a.	 8.261669e-01
7	 3	 198	 flanked	 bex	 6	 3.000000	 2.000000	 flanked_bex_freq_6_amplitude_3_rep_0_b_K_2.0.png	 K	 b	 b	 n.a.	 5.549029e-01
7	 3	 199	 flanked	 bex	 6	 1.000000	 2.000000	 flanked_bex_freq_6_amplitude_1_rep_9_t_K_2.0.png	 K	 t	 l	 n.a.	 8.098908e-01
7	 3	 200	 flanked	 bex	 8	 3.000000	 2.000000	 flanked_bex_freq_8_amplitude_3_rep_9_l_K_2.0.png	 K	 l	 l	 n.a.	 6.100420e-01
7	 3	 201	 flanked	 bex	 2	 1.500000	 2.000000	 flanked_bex_freq_2_amplitude_1.5_rep_6_l_H_2.0.png	 H	 l	 b	 n.a.	 6.267676e-01
7	 3	 202	 flanked	 bex	 8	 1.000000	 2.000000	 flanked_bex_freq_8_amplitude_1_rep_9_b_D_2.0.png	 D	 b	 l	 n.a.	 6.192542e-01
7	 3	 203	 flanked	 bex	 32	 2.000000	 2.000000	 flanked_bex_freq_32_amplitude_2_rep_2_b_N_2.0.png	 N	 b	 l	 n.a.	 6.073252e-01
7	 3	 204	 flanked	 bex	 32	 3.000000	 2.000000	 flanked_bex_freq_32_amplitude_3_rep_4_b_N_2.0.png	 N	 b	 l	 n.a.	 8.848070e-01
7	 3	 205	 flanked	 bex	 32	 1.500000	 2.000000	 flanked_bex_freq_32_amplitude_1.5_rep_5_l_N_2.0.png	 N	 l	 b	 n.a.	 5.415631e-01
7	 3	 206	 flanked	 bex	 32	 0.500000	 2.000000	 flanked_bex_freq_32_amplitude_0.5_rep_8_b_N_2.0.png	 N	 b	 t	 n.a.	 1.162199e+00
7	 3	 207	 flanked	 bex	 16	 5.000000	 2.000000	 flanked_bex_freq_16_amplitude_5_rep_8_t_N_2.0.png	 N	 t	 t	 n.a.	 6.919938e-01
7	 3	 208	 flanked	 bex	 8	 3.000000	 2.000000	 flanked_bex_freq_8_amplitude_3_rep_3_b_D_2.0.png	 D	 b	 b	 n.a.	 5.298801e-01
7	 3	 209	 flanked	 bex	 16	 3.000000	 2.000000	 flanked_bex_freq_16_amplitude_3_rep_8_b_H_2.0.png	 H	 b	 b	 n.a.	 5.589144e-01
7	 3	 210	 flanked	 bex	 16	 2.000000	 2.000000	 flanked_bex_freq_16_amplitude_2_rep_5_b_N_2.0.png	 N	 b	 t	 n.a.	 6.463043e-01
7	 3	 211	 flanked	 bex	 4	 0.500000	 2.000000	 flanked_bex_freq_4_amplitude_0.5_rep_0_b_H_2.0.png	 H	 b	 b	 n.a.	 4.455688e-01
7	 3	 212	 flanked	 bex	 32	 2.500000	 2.000000	 flanked_bex_freq_32_amplitude_2.5_rep_8_b_H_2.0.png	 H	 b	 r	 n.a.	 4.696068e-01
7	 3	 213	 flanked	 bex	 2	 3.000000	 2.000000	 flanked_bex_freq_2_amplitude_3_rep_2_l_K_2.0.png	 K	 l	 b	 n.a.	 7.989295e-01
7	 3	 214	 flanked	 bex	 6	 3.000000	 2.000000	 flanked_bex_freq_6_amplitude_3_rep_3_l_H_2.0.png	 H	 l	 l	 n.a.	 2.786102e-01
7	 3	 215	 flanked	 bex	 16	 1.500000	 2.000000	 flanked_bex_freq_16_amplitude_1.5_rep_7_l_H_2.0.png	 H	 l	 l	 n.a.	 3.450538e-01
7	 3	 216	 flanked	 bex	 16	 1.000000	 2.000000	 flanked_bex_freq_16_amplitude_1_rep_3_l_K_2.0.png	 K	 l	 t	 n.a.	 4.416099e-01
7	 3	 217	 flanked	 bex	 4	 5.000000	 2.000000	 flanked_bex_freq_4_amplitude_5_rep_2_r_D_2.0.png	 D	 r	 r	 n.a.	 2.535299e-01
7	 3	 218	 flanked	 bex	 4	 5.000000	 2.000000	 flanked_bex_freq_4_amplitude_5_rep_9_r_N_2.0.png	 N	 r	 r	 n.a.	 3.199240e-01
7	 3	 219	 flanked	 bex	 2	 1.000000	 2.000000	 flanked_bex_freq_2_amplitude_1_rep_1_b_D_2.0.png	 D	 b	 b	 n.a.	 6.589980e-01
7	 3	 220	 flanked	 bex	 6	 3.000000	 2.000000	 flanked_bex_freq_6_amplitude_3_rep_9_l_D_2.0.png	 D	 l	 l	 n.a.	 3.245013e-01
7	 3	 221	 flanked	 bex	 2	 1.000000	 2.000000	 flanked_bex_freq_2_amplitude_1_rep_4_l_K_2.0.png	 K	 l	 r	 n.a.	 4.875148e-01
7	 3	 222	 flanked	 bex	 8	 1.000000	 2.000000	 flanked_bex_freq_8_amplitude_1_rep_0_r_H_2.0.png	 H	 r	 b	 n.a.	 7.562033e-01
7	 3	 223	 flanked	 bex	 2	 1.000000	 2.000000	 flanked_bex_freq_2_amplitude_1_rep_9_t_D_2.0.png	 D	 t	 l	 n.a.	 1.016427e+00
7	 3	 224	 flanked	 bex	 2	 0.500000	 2.000000	 flanked_bex_freq_2_amplitude_0.5_rep_3_t_N_2.0.png	 N	 t	 r	 n.a.	 6.713947e-01
7	 3	 225	 flanked	 bex	 16	 1.500000	 2.000000	 flanked_bex_freq_16_amplitude_1.5_rep_8_l_N_2.0.png	 N	 l	 l	 n.a.	 4.372426e-01
7	 3	 226	 flanked	 bex	 4	 0.500000	 2.000000	 flanked_bex_freq_4_amplitude_0.5_rep_2_r_N_2.0.png	 N	 r	 l	 n.a.	 5.654548e-01
7	 3	 227	 flanked	 bex	 8	 1.500000	 2.000000	 flanked_bex_freq_8_amplitude_1.5_rep_4_l_D_2.0.png	 D	 l	 l	 n.a.	 4.086757e-01
7	 3	 228	 flanked	 bex	 8	 1.000000	 2.000000	 flanked_bex_freq_8_amplitude_1_rep_4_t_N_2.0.png	 N	 t	 l	 n.a.	 1.013756e+00
7	 3	 229	 flanked	 bex	 16	 2.500000	 2.000000	 flanked_bex_freq_16_amplitude_2.5_rep_9_r_N_2.0.png	 N	 r	 r	 n.a.	 4.161644e-01
7	 3	 230	 flanked	 bex	 6	 0.500000	 2.000000	 flanked_bex_freq_6_amplitude_0.5_rep_9_r_N_2.0.png	 N	 r	 t	 n.a.	 4.156583e-01
7	 3	 231	 flanked	 bex	 8	 5.000000	 2.000000	 flanked_bex_freq_8_amplitude_5_rep_3_l_N_2.0.png	 N	 l	 l	 n.a.	 3.073535e-01
7	 3	 232	 flanked	 bex	 4	 2.000000	 2.000000	 flanked_bex_freq_4_amplitude_2_rep_4_l_N_2.0.png	 N	 l	 l	 n.a.	 3.659582e-01
7	 3	 233	 flanked	 bex	 2	 1.500000	 2.000000	 flanked_bex_freq_2_amplitude_1.5_rep_8_l_D_2.0.png	 D	 l	 l	 n.a.	 3.963298e-01
7	 3	 234	 flanked	 bex	 16	 2.500000	 2.000000	 flanked_bex_freq_16_amplitude_2.5_rep_3_l_N_2.0.png	 N	 l	 l	 n.a.	 3.403766e-01
7	 3	 235	 flanked	 bex	 32	 3.000000	 2.000000	 flanked_bex_freq_32_amplitude_3_rep_1_t_K_2.0.png	 K	 t	 b	 n.a.	 9.789348e-01
7	 3	 236	 flanked	 bex	 32	 1.500000	 2.000000	 flanked_bex_freq_32_amplitude_1.5_rep_0_b_H_2.0.png	 H	 b	 r	 n.a.	 8.224898e-01
7	 3	 237	 flanked	 bex	 16	 3.000000	 2.000000	 flanked_bex_freq_16_amplitude_3_rep_1_b_H_2.0.png	 H	 b	 b	 n.a.	 6.238459e-01
7	 3	 238	 flanked	 bex	 16	 3.000000	 2.000000	 flanked_bex_freq_16_amplitude_3_rep_3_r_N_2.0.png	 N	 r	 r	 n.a.	 4.597805e-01
7	 3	 239	 flanked	 bex	 32	 1.000000	 2.000000	 flanked_bex_freq_32_amplitude_1_rep_9_t_K_2.0.png	 K	 t	 t	 n.a.	 7.045842e-01
7	 3	 240	 flanked	 bex	 4	 3.000000	 2.000000	 flanked_bex_freq_4_amplitude_3_rep_9_r_H_2.0.png	 H	 r	 r	 n.a.	 4.469972e-01
7	 3	 241	 flanked	 bex	 4	 2.500000	 2.000000	 flanked_bex_freq_4_amplitude_2.5_rep_1_l_N_2.0.png	 N	 l	 l	 n.a.	 4.109094e-01
7	 3	 242	 flanked	 bex	 8	 3.000000	 2.000000	 flanked_bex_freq_8_amplitude_3_rep_5_t_H_2.0.png	 H	 t	 t	 n.a.	 6.510541e-01
7	 3	 243	 flanked	 bex	 4	 1.000000	 2.000000	 flanked_bex_freq_4_amplitude_1_rep_6_r_D_2.0.png	 D	 r	 r	 n.a.	 4.585349e-01
7	 3	 244	 flanked	 bex	 4	 2.500000	 2.000000	 flanked_bex_freq_4_amplitude_2.5_rep_3_t_D_2.0.png	 D	 t	 b	 n.a.	 6.154868e-01
7	 3	 245	 flanked	 bex	 2	 1.500000	 2.000000	 flanked_bex_freq_2_amplitude_1.5_rep_9_t_D_2.0.png	 D	 t	 r	 n.a.	 4.475283e-01
7	 3	 246	 flanked	 bex	 8	 1.000000	 2.000000	 flanked_bex_freq_8_amplitude_1_rep_3_t_K_2.0.png	 K	 t	 r	 n.a.	 4.899767e-01
7	 3	 247	 flanked	 bex	 16	 2.000000	 2.000000	 flanked_bex_freq_16_amplitude_2_rep_9_l_H_2.0.png	 H	 l	 l	 n.a.	 3.401669e-01
7	 3	 248	 flanked	 bex	 16	 1.500000	 2.000000	 flanked_bex_freq_16_amplitude_1.5_rep_5_t_H_2.0.png	 H	 t	 t	 n.a.	 4.279288e-01
7	 3	 249	 flanked	 bex	 2	 0.500000	 2.000000	 flanked_bex_freq_2_amplitude_0.5_rep_5_l_D_2.0.png	 D	 l	 l	 n.a.	 5.284079e-01
7	 3	 250	 flanked	 bex	 6	 3.000000	 2.000000	 flanked_bex_freq_6_amplitude_3_rep_1_b_N_2.0.png	 N	 b	 b	 n.a.	 3.883580e-01
7	 3	 251	 flanked	 bex	 8	 3.000000	 2.000000	 flanked_bex_freq_8_amplitude_3_rep_0_b_K_2.0.png	 K	 b	 b	 n.a.	 5.103703e-01
7	 3	 252	 flanked	 bex	 6	 2.500000	 2.000000	 flanked_bex_freq_6_amplitude_2.5_rep_7_b_N_2.0.png	 N	 b	 b	 n.a.	 4.213051e-01
7	 3	 253	 flanked	 bex	 8	 0.500000	 2.000000	 flanked_bex_freq_8_amplitude_0.5_rep_4_l_D_2.0.png	 D	 l	 b	 n.a.	 4.172669e-01
7	 3	 254	 flanked	 bex	 4	 5.000000	 2.000000	 flanked_bex_freq_4_amplitude_5_rep_5_b_N_2.0.png	 N	 b	 b	 n.a.	 3.689938e-01
7	 3	 255	 flanked	 bex	 32	 3.000000	 2.000000	 flanked_bex_freq_32_amplitude_3_rep_9_l_D_2.0.png	 D	 l	 l	 n.a.	 4.416204e-01
7	 3	 256	 flanked	 bex	 2	 2.000000	 2.000000	 flanked_bex_freq_2_amplitude_2_rep_3_l_H_2.0.png	 H	 l	 b	 n.a.	 4.779233e-01
7	 3	 257	 flanked	 bex	 16	 2.500000	 2.000000	 flanked_bex_freq_16_amplitude_2.5_rep_8_l_N_2.0.png	 N	 l	 l	 n.a.	 2.874519e-01
7	 3	 258	 flanked	 bex	 6	 1.500000	 2.000000	 flanked_bex_freq_6_amplitude_1.5_rep_6_b_N_2.0.png	 N	 b	 b	 n.a.	 4.334252e-01
7	 3	 259	 flanked	 bex	 6	 1.500000	 2.000000	 flanked_bex_freq_6_amplitude_1.5_rep_0_b_N_2.0.png	 N	 b	 b	 n.a.	 6.628209e-01
7	 3	 260	 flanked	 bex	 8	 2.000000	 2.000000	 flanked_bex_freq_8_amplitude_2_rep_8_l_D_2.0.png	 D	 l	 l	 n.a.	 3.680147e-01
7	 3	 261	 flanked	 bex	 8	 2.000000	 2.000000	 flanked_bex_freq_8_amplitude_2_rep_5_t_D_2.0.png	 D	 t	 t	 n.a.	 3.288532e-01
7	 3	 262	 flanked	 bex	 2	 1.000000	 2.000000	 flanked_bex_freq_2_amplitude_1_rep_5_r_N_2.0.png	 N	 r	 t	 n.a.	 7.591220e-01
7	 3	 263	 flanked	 bex	 16	 0.500000	 2.000000	 flanked_bex_freq_16_amplitude_0.5_rep_0_t_N_2.0.png	 N	 t	 t	 n.a.	 7.221612e-01
7	 3	 264	 flanked	 bex	 2	 1.500000	 2.000000	 flanked_bex_freq_2_amplitude_1.5_rep_2_b_H_2.0.png	 H	 b	 b	 n.a.	 6.597113e-01
7	 3	 265	 flanked	 bex	 16	 1.000000	 2.000000	 flanked_bex_freq_16_amplitude_1_rep_7_t_H_2.0.png	 H	 t	 l	 n.a.	 9.674922e-01
7	 3	 266	 flanked	 bex	 4	 1.500000	 2.000000	 flanked_bex_freq_4_amplitude_1.5_rep_8_r_N_2.0.png	 N	 r	 l	 n.a.	 7.914080e-01
7	 3	 267	 flanked	 bex	 32	 2.500000	 2.000000	 flanked_bex_freq_32_amplitude_2.5_rep_3_t_N_2.0.png	 N	 t	 b	 n.a.	 6.639516e-01
7	 3	 268	 flanked	 bex	 6	 2.000000	 2.000000	 flanked_bex_freq_6_amplitude_2_rep_1_t_K_2.0.png	 K	 t	 t	 n.a.	 4.831754e-01
7	 3	 269	 flanked	 bex	 32	 1.000000	 2.000000	 flanked_bex_freq_32_amplitude_1_rep_3_l_H_2.0.png	 H	 l	 t	 n.a.	 6.301618e-01
7	 3	 270	 flanked	 bex	 2	 5.000000	 2.000000	 flanked_bex_freq_2_amplitude_5_rep_6_r_D_2.0.png	 D	 r	 r	 n.a.	 5.185919e-01
7	 3	 271	 flanked	 bex	 6	 5.000000	 2.000000	 flanked_bex_freq_6_amplitude_5_rep_5_t_K_2.0.png	 K	 t	 t	 n.a.	 4.921151e-01
7	 3	 272	 flanked	 bex	 4	 1.500000	 2.000000	 flanked_bex_freq_4_amplitude_1.5_rep_5_l_H_2.0.png	 H	 l	 t	 n.a.	 6.688147e-01
7	 3	 273	 flanked	 bex	 6	 2.500000	 2.000000	 flanked_bex_freq_6_amplitude_2.5_rep_5_b_H_2.0.png	 H	 b	 b	 n.a.	 7.460671e-01
7	 3	 274	 flanked	 bex	 32	 0.500000	 2.000000	 flanked_bex_freq_32_amplitude_0.5_rep_4_t_H_2.0.png	 H	 t	 t	 n.a.	 7.622525e-01
7	 3	 275	 flanked	 bex	 6	 5.000000	 2.000000	 flanked_bex_freq_6_amplitude_5_rep_4_b_D_2.0.png	 D	 b	 b	 n.a.	 6.394845e-01
7	 3	 276	 flanked	 bex	 32	 5.000000	 2.000000	 flanked_bex_freq_32_amplitude_5_rep_5_l_H_2.0.png	 H	 l	 l	 n.a.	 5.291269e-01
7	 3	 277	 flanked	 bex	 4	 3.000000	 2.000000	 flanked_bex_freq_4_amplitude_3_rep_8_b_N_2.0.png	 N	 b	 r	 n.a.	 6.548458e-01
7	 3	 278	 flanked	 bex	 32	 5.000000	 2.000000	 flanked_bex_freq_32_amplitude_5_rep_4_l_K_2.0.png	 K	 l	 l	 n.a.	 3.973959e-01
7	 3	 279	 flanked	 bex	 8	 2.000000	 2.000000	 flanked_bex_freq_8_amplitude_2_rep_1_l_K_2.0.png	 K	 l	 l	 n.a.	 6.270785e-01
7	 3	 280	 flanked	 bex	 32	 3.000000	 2.000000	 flanked_bex_freq_32_amplitude_3_rep_5_l_K_2.0.png	 K	 l	 b	 n.a.	 7.058060e-01
7	 3	 281	 flanked	 bex	 6	 3.000000	 2.000000	 flanked_bex_freq_6_amplitude_3_rep_4_t_D_2.0.png	 D	 t	 t	 n.a.	 3.361670e-01
7	 3	 282	 flanked	 bex	 32	 1.500000	 2.000000	 flanked_bex_freq_32_amplitude_1.5_rep_8_l_D_2.0.png	 D	 l	 t	 n.a.	 5.458727e-01
7	 3	 283	 flanked	 bex	 4	 1.000000	 2.000000	 flanked_bex_freq_4_amplitude_1_rep_5_r_K_2.0.png	 K	 r	 r	 n.a.	 3.149945e-01
7	 3	 284	 flanked	 bex	 4	 5.000000	 2.000000	 flanked_bex_freq_4_amplitude_5_rep_7_r_H_2.0.png	 H	 r	 r	 n.a.	 2.932153e-01
7	 3	 285	 flanked	 bex	 6	 1.500000	 2.000000	 flanked_bex_freq_6_amplitude_1.5_rep_3_t_N_2.0.png	 N	 t	 t	 n.a.	 4.090635e-01
7	 3	 286	 flanked	 bex	 8	 5.000000	 2.000000	 flanked_bex_freq_8_amplitude_5_rep_7_b_H_2.0.png	 H	 b	 b	 n.a.	 3.212750e-01
7	 3	 287	 flanked	 bex	 2	 1.500000	 2.000000	 flanked_bex_freq_2_amplitude_1.5_rep_5_r_H_2.0.png	 H	 r	 r	 n.a.	 4.142377e-01
7	 3	 288	 flanked	 bex	 2	 1.000000	 2.000000	 flanked_bex_freq_2_amplitude_1_rep_8_l_K_2.0.png	 K	 l	 b	 n.a.	 4.700186e-01
7	 3	 289	 flanked	 bex	 16	 5.000000	 2.000000	 flanked_bex_freq_16_amplitude_5_rep_1_t_K_2.0.png	 K	 t	 t	 n.a.	 2.720354e-01
7	 3	 290	 flanked	 bex	 6	 1.000000	 2.000000	 flanked_bex_freq_6_amplitude_1_rep_5_b_K_2.0.png	 K	 b	 t	 n.a.	 5.871487e-01
7	 3	 291	 flanked	 bex	 8	 2.500000	 2.000000	 flanked_bex_freq_8_amplitude_2.5_rep_9_b_K_2.0.png	 K	 b	 b	 n.a.	 2.747605e-01
7	 3	 292	 flanked	 bex	 6	 0.500000	 2.000000	 flanked_bex_freq_6_amplitude_0.5_rep_4_t_D_2.0.png	 D	 t	 l	 n.a.	 4.363569e-01
7	 3	 293	 flanked	 bex	 8	 2.500000	 2.000000	 flanked_bex_freq_8_amplitude_2.5_rep_5_r_K_2.0.png	 K	 r	 r	 n.a.	 2.147597e-01
7	 3	 294	 flanked	 bex	 16	 2.000000	 2.000000	 flanked_bex_freq_16_amplitude_2_rep_2_l_N_2.0.png	 N	 l	 l	 n.a.	 4.184056e-01
7	 3	 295	 flanked	 bex	 4	 1.000000	 2.000000	 flanked_bex_freq_4_amplitude_1_rep_3_b_H_2.0.png	 H	 b	 r	 n.a.	 4.126932e-01
7	 3	 296	 flanked	 bex	 2	 2.000000	 2.000000	 flanked_bex_freq_2_amplitude_2_rep_0_t_N_2.0.png	 N	 t	 b	 n.a.	 3.939116e-01
7	 3	 297	 flanked	 bex	 6	 1.500000	 2.000000	 flanked_bex_freq_6_amplitude_1.5_rep_1_l_D_2.0.png	 D	 l	 l	 n.a.	 3.468405e-01
7	 3	 298	 flanked	 bex	 6	 0.500000	 2.000000	 flanked_bex_freq_6_amplitude_0.5_rep_6_r_K_2.0.png	 K	 r	 b	 n.a.	 9.839884e-01
7	 3	 299	 flanked	 bex	 4	 3.000000	 2.000000	 flanked_bex_freq_4_amplitude_3_rep_7_b_D_2.0.png	 D	 b	 b	 n.a.	 4.285742e-01
7	 3	 300	 flanked	 bex	 8	 0.500000	 2.000000	 flanked_bex_freq_8_amplitude_0.5_rep_1_l_H_2.0.png	 H	 l	 b	 n.a.	 5.265934e-01
7	 3	 301	 flanked	 bex	 32	 1.000000	 2.000000	 flanked_bex_freq_32_amplitude_1_rep_5_b_N_2.0.png	 N	 b	 b	 n.a.	 6.251004e-01
7	 3	 302	 flanked	 bex	 16	 2.000000	 2.000000	 flanked_bex_freq_16_amplitude_2_rep_8_b_K_2.0.png	 K	 b	 b	 n.a.	 8.866549e-01
7	 3	 303	 flanked	 bex	 4	 1.000000	 2.000000	 flanked_bex_freq_4_amplitude_1_rep_4_l_K_2.0.png	 K	 l	 t	 n.a.	 8.526943e-01
7	 3	 304	 flanked	 bex	 2	 3.000000	 2.000000	 flanked_bex_freq_2_amplitude_3_rep_3_b_H_2.0.png	 H	 b	 l	 n.a.	 8.266088e-01
7	 3	 305	 flanked	 bex	 8	 1.500000	 2.000000	 flanked_bex_freq_8_amplitude_1.5_rep_6_r_N_2.0.png	 N	 r	 r	 n.a.	 4.772154e-01
7	 3	 306	 flanked	 bex	 8	 5.000000	 2.000000	 flanked_bex_freq_8_amplitude_5_rep_4_t_K_2.0.png	 K	 t	 t	 n.a.	 4.307731e-01
7	 3	 307	 flanked	 bex	 16	 3.000000	 2.000000	 flanked_bex_freq_16_amplitude_3_rep_4_r_H_2.0.png	 H	 r	 r	 n.a.	 4.464669e-01
7	 3	 308	 flanked	 bex	 32	 3.000000	 2.000000	 flanked_bex_freq_32_amplitude_3_rep_8_b_K_2.0.png	 K	 b	 b	 n.a.	 3.911223e-01
7	 3	 309	 flanked	 bex	 4	 2.000000	 2.000000	 flanked_bex_freq_4_amplitude_2_rep_5_t_D_2.0.png	 D	 t	 r	 n.a.	 6.620377e-01
7	 3	 310	 flanked	 bex	 6	 1.500000	 2.000000	 flanked_bex_freq_6_amplitude_1.5_rep_2_t_N_2.0.png	 N	 t	 t	 n.a.	 4.190001e-01
7	 3	 311	 flanked	 bex	 8	 0.500000	 2.000000	 flanked_bex_freq_8_amplitude_0.5_rep_2_t_D_2.0.png	 D	 t	 r	 n.a.	 4.798763e-01
7	 3	 312	 flanked	 bex	 8	 1.000000	 2.000000	 flanked_bex_freq_8_amplitude_1_rep_2_r_N_2.0.png	 N	 r	 r	 n.a.	 4.996311e-01
7	 3	 313	 flanked	 bex	 6	 1.500000	 2.000000	 flanked_bex_freq_6_amplitude_1.5_rep_4_r_H_2.0.png	 H	 r	 r	 n.a.	 5.066390e-01
7	 3	 314	 flanked	 bex	 32	 2.000000	 2.000000	 flanked_bex_freq_32_amplitude_2_rep_5_t_K_2.0.png	 K	 t	 b	 n.a.	 4.600423e-01
7	 3	 315	 flanked	 bex	 4	 3.000000	 2.000000	 flanked_bex_freq_4_amplitude_3_rep_1_l_H_2.0.png	 H	 l	 l	 n.a.	 3.643751e-01
7	 3	 316	 flanked	 bex	 16	 1.000000	 2.000000	 flanked_bex_freq_16_amplitude_1_rep_2_l_K_2.0.png	 K	 l	 l	 n.a.	 5.032448e-01
7	 3	 317	 flanked	 bex	 32	 1.000000	 2.000000	 flanked_bex_freq_32_amplitude_1_rep_7_t_D_2.0.png	 D	 t	 r	 n.a.	 5.152003e-01
7	 3	 318	 flanked	 bex	 6	 5.000000	 2.000000	 flanked_bex_freq_6_amplitude_5_rep_1_t_H_2.0.png	 H	 t	 t	 n.a.	 3.356382e-01
7	 3	 319	 flanked	 bex	 4	 5.000000	 2.000000	 flanked_bex_freq_4_amplitude_5_rep_6_b_N_2.0.png	 N	 b	 b	 n.a.	 4.168403e-01
7	 3	 320	 flanked	 bex	 16	 1.500000	 2.000000	 flanked_bex_freq_16_amplitude_1.5_rep_1_l_N_2.0.png	 N	 l	 b	 n.a.	 1.051753e+00
7	 3	 321	 flanked	 bex	 8	 1.500000	 2.000000	 flanked_bex_freq_8_amplitude_1.5_rep_0_r_H_2.0.png	 H	 r	 r	 n.a.	 4.155277e-01
7	 3	 322	 flanked	 bex	 16	 2.500000	 2.000000	 flanked_bex_freq_16_amplitude_2.5_rep_0_l_K_2.0.png	 K	 l	 l	 n.a.	 3.851247e-01
7	 3	 323	 flanked	 bex	 16	 0.500000	 2.000000	 flanked_bex_freq_16_amplitude_0.5_rep_4_r_K_2.0.png	 K	 r	 t	 n.a.	 7.077043e-01
7	 3	 324	 flanked	 bex	 4	 5.000000	 2.000000	 flanked_bex_freq_4_amplitude_5_rep_3_t_H_2.0.png	 H	 t	 t	 n.a.	 4.810849e-01
7	 3	 325	 flanked	 bex	 32	 3.000000	 2.000000	 flanked_bex_freq_32_amplitude_3_rep_2_r_N_2.0.png	 N	 r	 r	 n.a.	 4.903605e-01
7	 3	 326	 flanked	 bex	 4	 5.000000	 2.000000	 flanked_bex_freq_4_amplitude_5_rep_4_r_D_2.0.png	 D	 r	 r	 n.a.	 4.009308e-01
7	 3	 327	 flanked	 bex	 4	 1.000000	 2.000000	 flanked_bex_freq_4_amplitude_1_rep_1_r_N_2.0.png	 N	 r	 t	 n.a.	 5.347494e-01
7	 3	 328	 flanked	 bex	 2	 1.000000	 2.000000	 flanked_bex_freq_2_amplitude_1_rep_6_b_D_2.0.png	 D	 b	 t	 n.a.	 3.982513e-01
7	 3	 329	 flanked	 bex	 16	 1.500000	 2.000000	 flanked_bex_freq_16_amplitude_1.5_rep_4_r_K_2.0.png	 K	 r	 r	 n.a.	 4.097040e-01
7	 3	 330	 flanked	 bex	 2	 0.500000	 2.000000	 flanked_bex_freq_2_amplitude_0.5_rep_7_r_D_2.0.png	 D	 r	 t	 n.a.	 5.067654e-01
7	 3	 331	 flanked	 bex	 4	 1.000000	 2.000000	 flanked_bex_freq_4_amplitude_1_rep_8_t_H_2.0.png	 H	 t	 b	 n.a.	 7.796639e-01
7	 3	 332	 flanked	 bex	 32	 2.000000	 2.000000	 flanked_bex_freq_32_amplitude_2_rep_7_b_K_2.0.png	 K	 b	 t	 n.a.	 8.789592e-01
7	 3	 333	 flanked	 bex	 16	 0.500000	 2.000000	 flanked_bex_freq_16_amplitude_0.5_rep_7_l_N_2.0.png	 N	 l	 l	 n.a.	 5.971625e-01
7	 3	 334	 flanked	 bex	 32	 0.500000	 2.000000	 flanked_bex_freq_32_amplitude_0.5_rep_7_t_D_2.0.png	 D	 t	 r	 n.a.	 6.379105e-01
7	 3	 335	 flanked	 bex	 2	 3.000000	 2.000000	 flanked_bex_freq_2_amplitude_3_rep_5_r_D_2.0.png	 D	 r	 r	 n.a.	 6.133669e-01
7	 3	 336	 flanked	 bex	 8	 1.000000	 2.000000	 flanked_bex_freq_8_amplitude_1_rep_7_t_D_2.0.png	 D	 t	 r	 n.a.	 6.782250e-01
7	 3	 337	 flanked	 bex	 8	 5.000000	 2.000000	 flanked_bex_freq_8_amplitude_5_rep_1_l_D_2.0.png	 D	 l	 l	 n.a.	 3.855465e-01
7	 3	 338	 flanked	 bex	 6	 2.500000	 2.000000	 flanked_bex_freq_6_amplitude_2.5_rep_8_l_D_2.0.png	 D	 l	 l	 n.a.	 5.012720e-01
7	 3	 339	 flanked	 bex	 16	 3.000000	 2.000000	 flanked_bex_freq_16_amplitude_3_rep_6_b_N_2.0.png	 N	 b	 b	 n.a.	 4.144516e-01
7	 3	 340	 flanked	 bex	 16	 1.000000	 2.000000	 flanked_bex_freq_16_amplitude_1_rep_0_t_K_2.0.png	 K	 t	 l	 n.a.	 4.171308e-01
7	 3	 341	 flanked	 bex	 32	 5.000000	 2.000000	 flanked_bex_freq_32_amplitude_5_rep_7_l_K_2.0.png	 K	 l	 l	 n.a.	 3.497676e-01
7	 3	 342	 flanked	 bex	 8	 3.000000	 2.000000	 flanked_bex_freq_8_amplitude_3_rep_8_t_N_2.0.png	 N	 t	 t	 n.a.	 3.860680e-01
7	 3	 343	 flanked	 bex	 16	 1.000000	 2.000000	 flanked_bex_freq_16_amplitude_1_rep_4_r_H_2.0.png	 H	 r	 r	 n.a.	 6.141669e-01
7	 3	 344	 flanked	 bex	 8	 0.500000	 2.000000	 flanked_bex_freq_8_amplitude_0.5_rep_5_r_K_2.0.png	 K	 r	 t	 n.a.	 5.121092e-01
7	 3	 345	 flanked	 bex	 32	 0.500000	 2.000000	 flanked_bex_freq_32_amplitude_0.5_rep_9_b_D_2.0.png	 D	 b	 t	 n.a.	 3.562455e-01
7	 3	 346	 flanked	 bex	 4	 3.000000	 2.000000	 flanked_bex_freq_4_amplitude_3_rep_0_l_K_2.0.png	 K	 l	 l	 n.a.	 3.554948e-01
7	 3	 347	 flanked	 bex	 8	 2.500000	 2.000000	 flanked_bex_freq_8_amplitude_2.5_rep_4_b_D_2.0.png	 D	 b	 b	 n.a.	 4.306740e-01
7	 3	 348	 flanked	 bex	 8	 2.500000	 2.000000	 flanked_bex_freq_8_amplitude_2.5_rep_0_l_N_2.0.png	 N	 l	 l	 n.a.	 3.911486e-01
7	 3	 349	 flanked	 bex	 8	 1.000000	 2.000000	 flanked_bex_freq_8_amplitude_1_rep_5_r_N_2.0.png	 N	 r	 t	 n.a.	 6.825385e-01
7	 3	 350	 flanked	 bex	 2	 2.500000	 2.000000	 flanked_bex_freq_2_amplitude_2.5_rep_0_r_K_2.0.png	 K	 r	 r	 n.a.	 4.340566e-01
7	 3	 351	 flanked	 bex	 6	 3.000000	 2.000000	 flanked_bex_freq_6_amplitude_3_rep_6_l_D_2.0.png	 D	 l	 l	 n.a.	 3.561727e-01
7	 3	 352	 flanked	 bex	 6	 1.000000	 2.000000	 flanked_bex_freq_6_amplitude_1_rep_6_b_K_2.0.png	 K	 b	 t	 n.a.	 5.172021e-01
7	 3	 353	 flanked	 bex	 8	 2.000000	 2.000000	 flanked_bex_freq_8_amplitude_2_rep_4_l_N_2.0.png	 N	 l	 l	 n.a.	 3.192348e-01
7	 3	 354	 flanked	 bex	 2	 1.500000	 2.000000	 flanked_bex_freq_2_amplitude_1.5_rep_7_t_K_2.0.png	 K	 t	 b	 n.a.	 6.125420e-01
7	 3	 355	 flanked	 bex	 32	 2.500000	 2.000000	 flanked_bex_freq_32_amplitude_2.5_rep_5_r_N_2.0.png	 N	 r	 r	 n.a.	 3.339967e-01
7	 3	 356	 flanked	 bex	 32	 0.500000	 2.000000	 flanked_bex_freq_32_amplitude_0.5_rep_3_t_N_2.0.png	 N	 t	 r	 n.a.	 5.242269e-01
7	 3	 357	 flanked	 bex	 6	 3.000000	 2.000000	 flanked_bex_freq_6_amplitude_3_rep_8_b_D_2.0.png	 D	 b	 b	 n.a.	 3.301108e-01
7	 3	 358	 flanked	 bex	 2	 0.500000	 2.000000	 flanked_bex_freq_2_amplitude_0.5_rep_8_r_N_2.0.png	 N	 r	 t	 n.a.	 5.846309e-01
7	 3	 359	 flanked	 bex	 8	 1.500000	 2.000000	 flanked_bex_freq_8_amplitude_1.5_rep_9_t_D_2.0.png	 D	 t	 b	 n.a.	 4.322106e-01
7	 3	 360	 flanked	 bex	 4	 2.000000	 2.000000	 flanked_bex_freq_4_amplitude_2_rep_0_t_H_2.0.png	 H	 t	 r	 n.a.	 4.883271e-01
7	 3	 361	 flanked	 bex	 16	 2.000000	 2.000000	 flanked_bex_freq_16_amplitude_2_rep_0_r_N_2.0.png	 N	 r	 b	 n.a.	 7.595012e-01
7	 3	 362	 flanked	 bex	 4	 1.500000	 2.000000	 flanked_bex_freq_4_amplitude_1.5_rep_2_b_K_2.0.png	 K	 b	 t	 n.a.	 7.885437e-01
7	 3	 363	 flanked	 bex	 32	 2.500000	 2.000000	 flanked_bex_freq_32_amplitude_2.5_rep_6_r_K_2.0.png	 K	 r	 r	 n.a.	 4.637836e-01
7	 3	 364	 flanked	 bex	 6	 5.000000	 2.000000	 flanked_bex_freq_6_amplitude_5_rep_9_l_K_2.0.png	 K	 l	 l	 n.a.	 4.039720e-01
7	 3	 365	 flanked	 bex	 8	 1.000000	 2.000000	 flanked_bex_freq_8_amplitude_1_rep_6_r_D_2.0.png	 D	 r	 r	 n.a.	 3.700744e-01
7	 3	 366	 flanked	 bex	 2	 2.000000	 2.000000	 flanked_bex_freq_2_amplitude_2_rep_4_b_N_2.0.png	 N	 b	 b	 n.a.	 5.823843e-01
7	 3	 367	 flanked	 bex	 8	 5.000000	 2.000000	 flanked_bex_freq_8_amplitude_5_rep_5_l_D_2.0.png	 D	 l	 l	 n.a.	 2.996716e-01
7	 3	 368	 flanked	 bex	 32	 0.500000	 2.000000	 flanked_bex_freq_32_amplitude_0.5_rep_6_r_K_2.0.png	 K	 r	 t	 n.a.	 5.649055e-01
7	 3	 369	 flanked	 bex	 16	 5.000000	 2.000000	 flanked_bex_freq_16_amplitude_5_rep_7_t_H_2.0.png	 H	 t	 t	 n.a.	 3.064933e-01
7	 3	 370	 flanked	 bex	 32	 5.000000	 2.000000	 flanked_bex_freq_32_amplitude_5_rep_1_r_H_2.0.png	 H	 r	 r	 n.a.	 3.923379e-01
7	 3	 371	 flanked	 bex	 4	 1.500000	 2.000000	 flanked_bex_freq_4_amplitude_1.5_rep_1_l_N_2.0.png	 N	 l	 r	 n.a.	 7.914933e-01
7	 3	 372	 flanked	 bex	 32	 1.000000	 2.000000	 flanked_bex_freq_32_amplitude_1_rep_0_r_D_2.0.png	 D	 r	 t	 n.a.	 5.682239e-01
7	 3	 373	 flanked	 bex	 2	 5.000000	 2.000000	 flanked_bex_freq_2_amplitude_5_rep_7_r_D_2.0.png	 D	 r	 r	 n.a.	 3.471631e-01
7	 3	 374	 flanked	 bex	 16	 3.000000	 2.000000	 flanked_bex_freq_16_amplitude_3_rep_0_b_N_2.0.png	 N	 b	 b	 n.a.	 4.923725e-01
7	 3	 375	 flanked	 bex	 32	 1.000000	 2.000000	 flanked_bex_freq_32_amplitude_1_rep_4_r_N_2.0.png	 N	 r	 t	 n.a.	 4.046323e-01
7	 3	 376	 flanked	 bex	 4	 2.000000	 2.000000	 flanked_bex_freq_4_amplitude_2_rep_2_l_K_2.0.png	 K	 l	 l	 n.a.	 3.802105e-01
7	 3	 377	 flanked	 bex	 6	 1.000000	 2.000000	 flanked_bex_freq_6_amplitude_1_rep_2_l_H_2.0.png	 H	 l	 b	 n.a.	 6.308966e-01
7	 3	 378	 flanked	 bex	 2	 0.500000	 2.000000	 flanked_bex_freq_2_amplitude_0.5_rep_1_l_D_2.0.png	 D	 l	 r	 n.a.	 4.663106e-01
7	 3	 379	 flanked	 bex	 8	 3.000000	 2.000000	 flanked_bex_freq_8_amplitude_3_rep_4_r_D_2.0.png	 D	 r	 r	 n.a.	 3.029632e-01
7	 3	 380	 flanked	 bex	 4	 1.500000	 2.000000	 flanked_bex_freq_4_amplitude_1.5_rep_7_b_H_2.0.png	 H	 b	 b	 n.a.	 5.931410e-01
7	 3	 381	 flanked	 bex	 16	 1.000000	 2.000000	 flanked_bex_freq_16_amplitude_1_rep_8_l_K_2.0.png	 K	 l	 l	 n.a.	 4.583702e-01
7	 3	 382	 flanked	 bex	 4	 1.500000	 2.000000	 flanked_bex_freq_4_amplitude_1.5_rep_6_l_N_2.0.png	 N	 l	 t	 n.a.	 4.499595e-01
7	 3	 383	 flanked	 bex	 8	 0.500000	 2.000000	 flanked_bex_freq_8_amplitude_0.5_rep_0_b_D_2.0.png	 D	 b	 t	 n.a.	 6.112623e-01
7	 3	 384	 flanked	 bex	 8	 2.000000	 2.000000	 flanked_bex_freq_8_amplitude_2_rep_0_t_D_2.0.png	 D	 t	 b	 n.a.	 5.829125e-01
7	 3	 385	 flanked	 bex	 32	 1.500000	 2.000000	 flanked_bex_freq_32_amplitude_1.5_rep_7_t_H_2.0.png	 H	 t	 b	 n.a.	 5.832096e-01
7	 3	 386	 flanked	 bex	 2	 0.500000	 2.000000	 flanked_bex_freq_2_amplitude_0.5_rep_9_r_K_2.0.png	 K	 r	 r	 n.a.	 3.725994e-01
7	 3	 387	 flanked	 bex	 32	 3.000000	 2.000000	 flanked_bex_freq_32_amplitude_3_rep_6_t_N_2.0.png	 N	 t	 t	 n.a.	 4.543195e-01
7	 3	 388	 flanked	 bex	 6	 2.000000	 2.000000	 flanked_bex_freq_6_amplitude_2_rep_6_b_D_2.0.png	 D	 b	 b	 n.a.	 3.708854e-01
7	 3	 389	 flanked	 bex	 16	 2.000000	 2.000000	 flanked_bex_freq_16_amplitude_2_rep_4_l_K_2.0.png	 K	 l	 l	 n.a.	 3.491282e-01
7	 3	 390	 flanked	 bex	 4	 2.500000	 2.000000	 flanked_bex_freq_4_amplitude_2.5_rep_9_l_H_2.0.png	 H	 l	 l	 n.a.	 4.390067e-01
7	 3	 391	 flanked	 bex	 2	 1.500000	 2.000000	 flanked_bex_freq_2_amplitude_1.5_rep_1_b_K_2.0.png	 K	 b	 b	 n.a.	 3.562324e-01
7	 3	 392	 flanked	 bex	 2	 5.000000	 2.000000	 flanked_bex_freq_2_amplitude_5_rep_8_b_K_2.0.png	 K	 b	 b	 n.a.	 2.750696e-01
7	 3	 393	 flanked	 bex	 2	 1.500000	 2.000000	 flanked_bex_freq_2_amplitude_1.5_rep_4_r_N_2.0.png	 N	 r	 b	 n.a.	 3.755850e-01
7	 3	 394	 flanked	 bex	 6	 1.000000	 2.000000	 flanked_bex_freq_6_amplitude_1_rep_1_b_K_2.0.png	 K	 b	 t	 n.a.	 5.339408e-01
7	 3	 395	 flanked	 bex	 16	 1.500000	 2.000000	 flanked_bex_freq_16_amplitude_1.5_rep_3_t_H_2.0.png	 H	 t	 b	 n.a.	 4.621841e-01
7	 3	 396	 flanked	 bex	 8	 2.000000	 2.000000	 flanked_bex_freq_8_amplitude_2_rep_6_t_K_2.0.png	 K	 t	 t	 n.a.	 6.762708e-01
7	 3	 397	 flanked	 bex	 32	 1.000000	 2.000000	 flanked_bex_freq_32_amplitude_1_rep_8_t_K_2.0.png	 K	 t	 b	 n.a.	 5.669947e-01
7	 3	 398	 flanked	 bex	 4	 0.500000	 2.000000	 flanked_bex_freq_4_amplitude_0.5_rep_8_l_H_2.0.png	 H	 l	 t	 n.a.	 6.202368e-01
7	 3	 399	 flanked	 bex	 4	 2.500000	 2.000000	 flanked_bex_freq_4_amplitude_2.5_rep_8_b_D_2.0.png	 D	 b	 b	 n.a.	 4.530460e-01
7	 3	 400	 flanked	 bex	 6	 5.000000	 2.000000	 flanked_bex_freq_6_amplitude_5_rep_3_l_K_2.0.png	 K	 l	 l	 n.a.	 3.000623e-01
7	 3	 401	 flanked	 bex	 4	 1.000000	 2.000000	 flanked_bex_freq_4_amplitude_1_rep_0_b_D_2.0.png	 D	 b	 l	 n.a.	 3.696526e-01
7	 3	 402	 flanked	 bex	 6	 2.000000	 2.000000	 flanked_bex_freq_6_amplitude_2_rep_2_l_D_2.0.png	 D	 l	 l	 n.a.	 3.715367e-01
7	 3	 403	 flanked	 bex	 16	 2.000000	 2.000000	 flanked_bex_freq_16_amplitude_2_rep_1_b_K_2.0.png	 K	 b	 b	 n.a.	 3.836105e-01
7	 3	 404	 flanked	 bex	 16	 2.500000	 2.000000	 flanked_bex_freq_16_amplitude_2.5_rep_2_r_H_2.0.png	 H	 r	 r	 n.a.	 3.162501e-01
7	 3	 405	 flanked	 bex	 32	 2.500000	 2.000000	 flanked_bex_freq_32_amplitude_2.5_rep_7_l_H_2.0.png	 H	 l	 l	 n.a.	 4.287019e-01
7	 3	 406	 flanked	 bex	 16	 2.500000	 2.000000	 flanked_bex_freq_16_amplitude_2.5_rep_4_t_H_2.0.png	 H	 t	 t	 n.a.	 3.485125e-01
7	 3	 407	 flanked	 bex	 32	 0.500000	 2.000000	 flanked_bex_freq_32_amplitude_0.5_rep_1_r_N_2.0.png	 N	 r	 r	 n.a.	 6.607236e-01
7	 3	 408	 flanked	 bex	 6	 3.000000	 2.000000	 flanked_bex_freq_6_amplitude_3_rep_7_t_K_2.0.png	 K	 t	 t	 n.a.	 2.715966e-01
7	 3	 409	 flanked	 bex	 6	 1.000000	 2.000000	 flanked_bex_freq_6_amplitude_1_rep_7_l_D_2.0.png	 D	 l	 b	 n.a.	 3.204380e-01
7	 3	 410	 flanked	 bex	 8	 1.500000	 2.000000	 flanked_bex_freq_8_amplitude_1.5_rep_5_l_N_2.0.png	 N	 l	 l	 n.a.	 4.138675e-01
7	 3	 411	 flanked	 bex	 8	 5.000000	 2.000000	 flanked_bex_freq_8_amplitude_5_rep_8_t_D_2.0.png	 D	 t	 t	 n.a.	 3.466363e-01
7	 3	 412	 flanked	 bex	 6	 1.500000	 2.000000	 flanked_bex_freq_6_amplitude_1.5_rep_9_b_H_2.0.png	 H	 b	 l	 n.a.	 5.875308e-01
7	 3	 413	 flanked	 bex	 32	 5.000000	 2.000000	 flanked_bex_freq_32_amplitude_5_rep_9_l_D_2.0.png	 D	 l	 l	 n.a.	 4.014579e-01
7	 3	 414	 flanked	 bex	 2	 1.000000	 2.000000	 flanked_bex_freq_2_amplitude_1_rep_0_t_K_2.0.png	 K	 t	 t	 n.a.	 4.772200e-01
7	 3	 415	 flanked	 bex	 8	 0.500000	 2.000000	 flanked_bex_freq_8_amplitude_0.5_rep_7_t_K_2.0.png	 K	 t	 t	 n.a.	 4.974212e-01
7	 3	 416	 flanked	 bex	 16	 0.500000	 2.000000	 flanked_bex_freq_16_amplitude_0.5_rep_9_b_N_2.0.png	 N	 b	 r	 n.a.	 6.763871e-01
7	 3	 417	 flanked	 bex	 16	 1.500000	 2.000000	 flanked_bex_freq_16_amplitude_1.5_rep_9_r_H_2.0.png	 H	 r	 t	 n.a.	 4.918545e-01
7	 3	 418	 flanked	 bex	 16	 0.500000	 2.000000	 flanked_bex_freq_16_amplitude_0.5_rep_5_r_N_2.0.png	 N	 r	 l	 n.a.	 3.202704e-01
7	 3	 419	 flanked	 bex	 16	 2.500000	 2.000000	 flanked_bex_freq_16_amplitude_2.5_rep_1_r_H_2.0.png	 H	 r	 r	 n.a.	 3.794377e-01
7	 3	 420	 flanked	 bex	 32	 5.000000	 2.000000	 flanked_bex_freq_32_amplitude_5_rep_8_l_K_2.0.png	 K	 l	 l	 n.a.	 3.701765e-01
