subject	 session	 trial	 flanked	 distortion	 freq	 amplitude	 spacing	 im_name	 targ_letter	 targ_pos	 response	 eyemovement	 RT
8	 4	 1	 flanked	 bex	 4	 2.000000	 2.000000	 flanked_bex_freq_4_amplitude_2_rep_6_l_D_2.0.png	 D	 l	 r	 n.a.	 4.924560e-01
8	 4	 2	 flanked	 bex	 2	 2.500000	 2.000000	 flanked_bex_freq_2_amplitude_2.5_rep_1_t_H_2.0.png	 H	 t	 t	 n.a.	 3.925876e-01
8	 4	 3	 flanked	 bex	 32	 1.000000	 2.000000	 flanked_bex_freq_32_amplitude_1_rep_0_r_D_2.0.png	 D	 r	 b	 n.a.	 6.763435e-01
8	 4	 4	 flanked	 bex	 2	 2.000000	 2.000000	 flanked_bex_freq_2_amplitude_2_rep_9_l_H_2.0.png	 H	 l	 l	 n.a.	 3.375236e-01
8	 4	 5	 flanked	 bex	 4	 0.250000	 2.000000	 flanked_bex_freq_4_amplitude_0.25_rep_3_r_K_2.0.png	 K	 r	 t	 n.a.	 4.306732e-01
8	 4	 6	 flanked	 bex	 32	 1.000000	 2.000000	 flanked_bex_freq_32_amplitude_1_rep_5_b_N_2.0.png	 N	 b	 b	 n.a.	 4.885999e-01
8	 4	 7	 flanked	 bex	 32	 0.500000	 2.000000	 flanked_bex_freq_32_amplitude_0.5_rep_7_t_D_2.0.png	 D	 t	 l	 n.a.	 8.735219e-01
8	 4	 8	 flanked	 bex	 4	 3.000000	 2.000000	 flanked_bex_freq_4_amplitude_3_rep_9_r_H_2.0.png	 H	 r	 r	 n.a.	 2.453325e-01
8	 4	 9	 flanked	 bex	 6	 1.500000	 2.000000	 flanked_bex_freq_6_amplitude_1.5_rep_7_b_H_2.0.png	 H	 b	 b	 n.a.	 4.109187e-01
8	 4	 10	 flanked	 bex	 16	 2.000000	 2.000000	 flanked_bex_freq_16_amplitude_2_rep_6_t_D_2.0.png	 D	 t	 t	 n.a.	 3.417507e-01
8	 4	 11	 flanked	 bex	 32	 3.000000	 2.000000	 flanked_bex_freq_32_amplitude_3_rep_3_t_D_2.0.png	 D	 t	 t	 n.a.	 3.971278e-01
8	 4	 12	 flanked	 bex	 6	 0.250000	 2.000000	 flanked_bex_freq_6_amplitude_0.25_rep_5_r_D_2.0.png	 D	 r	 l	 n.a.	 4.165196e-01
8	 4	 13	 flanked	 bex	 2	 3.000000	 2.000000	 flanked_bex_freq_2_amplitude_3_rep_8_b_D_2.0.png	 D	 b	 r	 n.a.	 2.223677e-01
8	 4	 14	 flanked	 bex	 32	 1.000000	 2.000000	 flanked_bex_freq_32_amplitude_1_rep_1_b_K_2.0.png	 K	 b	 b	 n.a.	 2.863133e-01
8	 4	 15	 flanked	 bex	 8	 2.000000	 2.000000	 flanked_bex_freq_8_amplitude_2_rep_7_l_D_2.0.png	 D	 l	 l	 n.a.	 2.641306e-01
8	 4	 16	 flanked	 bex	 4	 1.000000	 2.000000	 flanked_bex_freq_4_amplitude_1_rep_4_l_K_2.0.png	 K	 l	 b	 n.a.	 4.968860e-01
8	 4	 17	 flanked	 bex	 16	 0.500000	 2.000000	 flanked_bex_freq_16_amplitude_0.5_rep_3_l_D_2.0.png	 D	 l	 t	 n.a.	 4.121232e-01
8	 4	 18	 flanked	 bex	 4	 1.500000	 2.000000	 flanked_bex_freq_4_amplitude_1.5_rep_3_l_D_2.0.png	 D	 l	 t	 n.a.	 3.501127e-01
8	 4	 19	 flanked	 bex	 32	 1.500000	 2.000000	 flanked_bex_freq_32_amplitude_1.5_rep_1_r_K_2.0.png	 K	 r	 r	 n.a.	 2.803884e-01
8	 4	 20	 flanked	 bex	 32	 1.500000	 2.000000	 flanked_bex_freq_32_amplitude_1.5_rep_2_l_K_2.0.png	 K	 l	 b	 n.a.	 3.632577e-01
8	 4	 21	 flanked	 bex	 16	 1.500000	 2.000000	 flanked_bex_freq_16_amplitude_1.5_rep_7_l_H_2.0.png	 H	 l	 l	 n.a.	 3.146199e-01
8	 4	 22	 flanked	 bex	 8	 2.000000	 2.000000	 flanked_bex_freq_8_amplitude_2_rep_8_l_D_2.0.png	 D	 l	 l	 n.a.	 2.718832e-01
8	 4	 23	 flanked	 bex	 6	 0.250000	 2.000000	 flanked_bex_freq_6_amplitude_0.25_rep_9_l_K_2.0.png	 K	 l	 b	 n.a.	 4.513936e-01
8	 4	 24	 flanked	 bex	 6	 0.500000	 2.000000	 flanked_bex_freq_6_amplitude_0.5_rep_9_r_N_2.0.png	 N	 r	 t	 n.a.	 5.215857e-01
8	 4	 25	 flanked	 bex	 8	 0.250000	 2.000000	 flanked_bex_freq_8_amplitude_0.25_rep_2_r_N_2.0.png	 N	 r	 l	 n.a.	 3.493253e-01
8	 4	 26	 flanked	 bex	 8	 1.000000	 2.000000	 flanked_bex_freq_8_amplitude_1_rep_8_r_K_2.0.png	 K	 r	 r	 n.a.	 3.893861e-01
8	 4	 27	 flanked	 bex	 6	 2.000000	 2.000000	 flanked_bex_freq_6_amplitude_2_rep_3_r_K_2.0.png	 K	 r	 r	 n.a.	 3.200549e-01
8	 4	 28	 flanked	 bex	 2	 3.000000	 2.000000	 flanked_bex_freq_2_amplitude_3_rep_5_r_D_2.0.png	 D	 r	 r	 n.a.	 3.980450e-01
8	 4	 29	 flanked	 bex	 32	 0.500000	 2.000000	 flanked_bex_freq_32_amplitude_0.5_rep_3_t_N_2.0.png	 N	 t	 t	 n.a.	 3.432828e-01
8	 4	 30	 flanked	 bex	 16	 0.250000	 2.000000	 flanked_bex_freq_16_amplitude_0.25_rep_7_t_N_2.0.png	 N	 t	 r	 n.a.	 5.156615e-01
8	 4	 31	 flanked	 bex	 2	 2.000000	 2.000000	 flanked_bex_freq_2_amplitude_2_rep_7_t_H_2.0.png	 H	 t	 l	 n.a.	 3.979095e-01
8	 4	 32	 flanked	 bex	 8	 3.000000	 2.000000	 flanked_bex_freq_8_amplitude_3_rep_0_b_K_2.0.png	 K	 b	 b	 n.a.	 3.231349e-01
8	 4	 33	 flanked	 bex	 2	 0.250000	 2.000000	 flanked_bex_freq_2_amplitude_0.25_rep_8_b_K_2.0.png	 K	 b	 b	 n.a.	 4.987958e-01
8	 4	 34	 flanked	 bex	 2	 1.500000	 2.000000	 flanked_bex_freq_2_amplitude_1.5_rep_7_t_K_2.0.png	 K	 t	 t	 n.a.	 3.320638e-01
8	 4	 35	 flanked	 bex	 8	 1.000000	 2.000000	 flanked_bex_freq_8_amplitude_1_rep_4_t_N_2.0.png	 N	 t	 b	 n.a.	 4.705206e-01
8	 4	 36	 flanked	 bex	 6	 3.000000	 2.000000	 flanked_bex_freq_6_amplitude_3_rep_9_l_D_2.0.png	 D	 l	 l	 n.a.	 2.550222e-01
8	 4	 37	 flanked	 bex	 6	 2.500000	 2.000000	 flanked_bex_freq_6_amplitude_2.5_rep_8_l_D_2.0.png	 D	 l	 l	 n.a.	 2.605786e-01
8	 4	 38	 flanked	 bex	 32	 1.500000	 2.000000	 flanked_bex_freq_32_amplitude_1.5_rep_3_r_D_2.0.png	 D	 r	 b	 n.a.	 3.374052e-01
8	 4	 39	 flanked	 bex	 6	 1.500000	 2.000000	 flanked_bex_freq_6_amplitude_1.5_rep_5_b_K_2.0.png	 K	 b	 b	 n.a.	 5.059275e-01
8	 4	 40	 flanked	 bex	 4	 3.000000	 2.000000	 flanked_bex_freq_4_amplitude_3_rep_2_t_N_2.0.png	 N	 t	 t	 n.a.	 4.004575e-01
8	 4	 41	 flanked	 bex	 32	 0.500000	 2.000000	 flanked_bex_freq_32_amplitude_0.5_rep_5_r_K_2.0.png	 K	 r	 b	 n.a.	 4.341192e-01
8	 4	 42	 flanked	 bex	 2	 0.250000	 2.000000	 flanked_bex_freq_2_amplitude_0.25_rep_4_t_D_2.0.png	 D	 t	 b	 n.a.	 4.456695e-01
8	 4	 43	 flanked	 bex	 8	 0.500000	 2.000000	 flanked_bex_freq_8_amplitude_0.5_rep_3_t_H_2.0.png	 H	 t	 t	 n.a.	 3.470560e-01
8	 4	 44	 flanked	 bex	 8	 0.500000	 2.000000	 flanked_bex_freq_8_amplitude_0.5_rep_2_t_D_2.0.png	 D	 t	 l	 n.a.	 4.413291e-01
8	 4	 45	 flanked	 bex	 32	 3.000000	 2.000000	 flanked_bex_freq_32_amplitude_3_rep_5_l_K_2.0.png	 K	 l	 l	 n.a.	 3.818007e-01
8	 4	 46	 flanked	 bex	 2	 1.000000	 2.000000	 flanked_bex_freq_2_amplitude_1_rep_7_b_N_2.0.png	 N	 b	 b	 n.a.	 4.539679e-01
8	 4	 47	 flanked	 bex	 16	 1.500000	 2.000000	 flanked_bex_freq_16_amplitude_1.5_rep_6_b_K_2.0.png	 K	 b	 l	 n.a.	 3.679915e-01
8	 4	 48	 flanked	 bex	 6	 0.500000	 2.000000	 flanked_bex_freq_6_amplitude_0.5_rep_8_t_K_2.0.png	 K	 t	 b	 n.a.	 2.648145e-01
8	 4	 49	 flanked	 bex	 2	 2.000000	 2.000000	 flanked_bex_freq_2_amplitude_2_rep_2_r_N_2.0.png	 N	 r	 t	 n.a.	 5.501239e-01
8	 4	 50	 flanked	 bex	 4	 2.500000	 2.000000	 flanked_bex_freq_4_amplitude_2.5_rep_9_l_H_2.0.png	 H	 l	 l	 n.a.	 2.946066e-01
8	 4	 51	 flanked	 bex	 32	 3.000000	 2.000000	 flanked_bex_freq_32_amplitude_3_rep_1_t_K_2.0.png	 K	 t	 t	 n.a.	 3.424162e-01
8	 4	 52	 flanked	 bex	 32	 1.000000	 2.000000	 flanked_bex_freq_32_amplitude_1_rep_4_r_N_2.0.png	 N	 r	 l	 n.a.	 5.815738e-01
8	 4	 53	 flanked	 bex	 6	 1.500000	 2.000000	 flanked_bex_freq_6_amplitude_1.5_rep_3_t_N_2.0.png	 N	 t	 t	 n.a.	 6.709552e-01
8	 4	 54	 flanked	 bex	 8	 1.500000	 2.000000	 flanked_bex_freq_8_amplitude_1.5_rep_9_t_D_2.0.png	 D	 t	 r	 n.a.	 2.997482e-01
8	 4	 55	 flanked	 bex	 2	 2.500000	 2.000000	 flanked_bex_freq_2_amplitude_2.5_rep_6_t_K_2.0.png	 K	 t	 t	 n.a.	 3.876999e-01
8	 4	 56	 flanked	 bex	 2	 1.500000	 2.000000	 flanked_bex_freq_2_amplitude_1.5_rep_5_r_H_2.0.png	 H	 r	 b	 n.a.	 4.188018e-01
8	 4	 57	 flanked	 bex	 2	 2.500000	 2.000000	 flanked_bex_freq_2_amplitude_2.5_rep_3_b_K_2.0.png	 K	 b	 r	 n.a.	 4.826403e-01
8	 4	 58	 flanked	 bex	 16	 2.000000	 2.000000	 flanked_bex_freq_16_amplitude_2_rep_8_b_K_2.0.png	 K	 b	 b	 n.a.	 3.506832e-01
8	 4	 59	 flanked	 bex	 8	 2.000000	 2.000000	 flanked_bex_freq_8_amplitude_2_rep_3_b_D_2.0.png	 D	 b	 t	 n.a.	 5.867584e-01
8	 4	 60	 flanked	 bex	 4	 3.000000	 2.000000	 flanked_bex_freq_4_amplitude_3_rep_3_r_D_2.0.png	 D	 r	 r	 n.a.	 2.271971e-01
8	 4	 61	 flanked	 bex	 6	 1.500000	 2.000000	 flanked_bex_freq_6_amplitude_1.5_rep_0_b_N_2.0.png	 N	 b	 l	 n.a.	 4.725596e-01
8	 4	 62	 flanked	 bex	 4	 1.500000	 2.000000	 flanked_bex_freq_4_amplitude_1.5_rep_8_r_N_2.0.png	 N	 r	 b	 n.a.	 4.758641e-01
8	 4	 63	 flanked	 bex	 32	 2.000000	 2.000000	 flanked_bex_freq_32_amplitude_2_rep_8_l_N_2.0.png	 N	 l	 b	 n.a.	 6.787607e-01
8	 4	 64	 flanked	 bex	 16	 2.500000	 2.000000	 flanked_bex_freq_16_amplitude_2.5_rep_3_l_N_2.0.png	 N	 l	 l	 n.a.	 2.001273e-01
8	 4	 65	 flanked	 bex	 8	 2.000000	 2.000000	 flanked_bex_freq_8_amplitude_2_rep_2_r_H_2.0.png	 H	 r	 r	 n.a.	 2.589669e-01
8	 4	 66	 flanked	 bex	 2	 0.500000	 2.000000	 flanked_bex_freq_2_amplitude_0.5_rep_1_l_D_2.0.png	 D	 l	 l	 n.a.	 6.195647e-01
8	 4	 67	 flanked	 bex	 6	 2.500000	 2.000000	 flanked_bex_freq_6_amplitude_2.5_rep_7_b_N_2.0.png	 N	 b	 b	 n.a.	 2.885385e-01
8	 4	 68	 flanked	 bex	 2	 3.000000	 2.000000	 flanked_bex_freq_2_amplitude_3_rep_7_r_H_2.0.png	 H	 r	 r	 n.a.	 2.921517e-01
8	 4	 69	 flanked	 bex	 2	 2.500000	 2.000000	 flanked_bex_freq_2_amplitude_2.5_rep_5_t_N_2.0.png	 N	 t	 l	 n.a.	 3.525996e-01
8	 4	 70	 flanked	 bex	 4	 2.000000	 2.000000	 flanked_bex_freq_4_amplitude_2_rep_3_r_H_2.0.png	 H	 r	 r	 n.a.	 2.225284e-01
8	 4	 71	 flanked	 bex	 32	 2.500000	 2.000000	 flanked_bex_freq_32_amplitude_2.5_rep_4_l_N_2.0.png	 N	 l	 r	 n.a.	 2.521983e-01
8	 4	 72	 flanked	 bex	 16	 3.000000	 2.000000	 flanked_bex_freq_16_amplitude_3_rep_1_b_H_2.0.png	 H	 b	 l	 n.a.	 2.193220e-01
8	 4	 73	 flanked	 bex	 4	 1.000000	 2.000000	 flanked_bex_freq_4_amplitude_1_rep_7_l_D_2.0.png	 D	 l	 b	 n.a.	 3.881700e-01
8	 4	 74	 flanked	 bex	 32	 0.500000	 2.000000	 flanked_bex_freq_32_amplitude_0.5_rep_4_t_H_2.0.png	 H	 t	 l	 n.a.	 4.864574e-01
8	 4	 75	 flanked	 bex	 16	 0.500000	 2.000000	 flanked_bex_freq_16_amplitude_0.5_rep_7_l_N_2.0.png	 N	 l	 t	 n.a.	 5.038346e-01
8	 4	 76	 flanked	 bex	 6	 1.000000	 2.000000	 flanked_bex_freq_6_amplitude_1_rep_4_r_H_2.0.png	 H	 r	 r	 n.a.	 2.944792e-01
8	 4	 77	 flanked	 bex	 8	 3.000000	 2.000000	 flanked_bex_freq_8_amplitude_3_rep_7_l_K_2.0.png	 K	 l	 l	 n.a.	 3.272927e-01
8	 4	 78	 flanked	 bex	 4	 1.000000	 2.000000	 flanked_bex_freq_4_amplitude_1_rep_9_b_D_2.0.png	 D	 b	 t	 n.a.	 3.491703e-01
8	 4	 79	 flanked	 bex	 4	 2.000000	 2.000000	 flanked_bex_freq_4_amplitude_2_rep_5_t_D_2.0.png	 D	 t	 b	 n.a.	 2.685712e-01
8	 4	 80	 flanked	 bex	 2	 2.500000	 2.000000	 flanked_bex_freq_2_amplitude_2.5_rep_2_l_K_2.0.png	 K	 l	 l	 n.a.	 5.374116e-01
8	 4	 81	 flanked	 bex	 8	 1.500000	 2.000000	 flanked_bex_freq_8_amplitude_1.5_rep_2_b_D_2.0.png	 D	 b	 t	 n.a.	 8.114482e-01
8	 4	 82	 flanked	 bex	 6	 1.000000	 2.000000	 flanked_bex_freq_6_amplitude_1_rep_5_b_K_2.0.png	 K	 b	 b	 n.a.	 3.204458e-01
8	 4	 83	 flanked	 bex	 16	 0.500000	 2.000000	 flanked_bex_freq_16_amplitude_0.5_rep_0_t_N_2.0.png	 N	 t	 l	 n.a.	 4.469416e-01
8	 4	 84	 flanked	 bex	 16	 2.500000	 2.000000	 flanked_bex_freq_16_amplitude_2.5_rep_6_r_D_2.0.png	 D	 r	 r	 n.a.	 2.140072e-01
8	 4	 85	 flanked	 bex	 8	 3.000000	 2.000000	 flanked_bex_freq_8_amplitude_3_rep_9_l_K_2.0.png	 K	 l	 l	 n.a.	 1.773094e-01
8	 4	 86	 flanked	 bex	 4	 3.000000	 2.000000	 flanked_bex_freq_4_amplitude_3_rep_4_t_D_2.0.png	 D	 t	 t	 n.a.	 2.844115e-01
8	 4	 87	 flanked	 bex	 16	 2.500000	 2.000000	 flanked_bex_freq_16_amplitude_2.5_rep_5_t_K_2.0.png	 K	 t	 b	 n.a.	 2.626429e-01
8	 4	 88	 flanked	 bex	 8	 1.500000	 2.000000	 flanked_bex_freq_8_amplitude_1.5_rep_7_b_N_2.0.png	 N	 b	 r	 n.a.	 2.914898e-01
8	 4	 89	 flanked	 bex	 32	 1.000000	 2.000000	 flanked_bex_freq_32_amplitude_1_rep_2_l_H_2.0.png	 H	 l	 l	 n.a.	 5.608028e-01
8	 4	 90	 flanked	 bex	 4	 0.250000	 2.000000	 flanked_bex_freq_4_amplitude_0.25_rep_8_l_D_2.0.png	 D	 l	 b	 n.a.	 2.268411e-01
8	 4	 91	 flanked	 bex	 32	 2.000000	 2.000000	 flanked_bex_freq_32_amplitude_2_rep_0_t_K_2.0.png	 K	 t	 t	 n.a.	 2.779116e-01
8	 4	 92	 flanked	 bex	 2	 2.500000	 2.000000	 flanked_bex_freq_2_amplitude_2.5_rep_0_r_K_2.0.png	 K	 r	 b	 n.a.	 4.140911e-01
8	 4	 93	 flanked	 bex	 2	 3.000000	 2.000000	 flanked_bex_freq_2_amplitude_3_rep_0_l_H_2.0.png	 H	 l	 l	 n.a.	 2.654556e-01
8	 4	 94	 flanked	 bex	 6	 2.000000	 2.000000	 flanked_bex_freq_6_amplitude_2_rep_6_b_D_2.0.png	 D	 b	 b	 n.a.	 3.373098e-01
8	 4	 95	 flanked	 bex	 32	 2.000000	 2.000000	 flanked_bex_freq_32_amplitude_2_rep_1_b_H_2.0.png	 H	 b	 r	 n.a.	 2.865729e-01
8	 4	 96	 flanked	 bex	 4	 0.500000	 2.000000	 flanked_bex_freq_4_amplitude_0.5_rep_0_b_H_2.0.png	 H	 b	 b	 n.a.	 3.226096e-01
8	 4	 97	 flanked	 bex	 6	 3.000000	 2.000000	 flanked_bex_freq_6_amplitude_3_rep_4_t_D_2.0.png	 D	 t	 t	 n.a.	 2.693456e-01
8	 4	 98	 flanked	 bex	 16	 1.000000	 2.000000	 flanked_bex_freq_16_amplitude_1_rep_7_t_H_2.0.png	 H	 t	 r	 n.a.	 2.495638e-01
8	 4	 99	 flanked	 bex	 32	 3.000000	 2.000000	 flanked_bex_freq_32_amplitude_3_rep_2_r_N_2.0.png	 N	 r	 t	 n.a.	 3.398512e-01
8	 4	 100	 flanked	 bex	 6	 2.000000	 2.000000	 flanked_bex_freq_6_amplitude_2_rep_0_r_H_2.0.png	 H	 r	 r	 n.a.	 2.349432e-01
8	 4	 101	 flanked	 bex	 6	 2.500000	 2.000000	 flanked_bex_freq_6_amplitude_2.5_rep_3_l_H_2.0.png	 H	 l	 l	 n.a.	 2.170751e-01
8	 4	 102	 flanked	 bex	 2	 1.000000	 2.000000	 flanked_bex_freq_2_amplitude_1_rep_3_b_K_2.0.png	 K	 b	 l	 n.a.	 5.864356e-01
8	 4	 103	 flanked	 bex	 32	 1.500000	 2.000000	 flanked_bex_freq_32_amplitude_1.5_rep_5_l_N_2.0.png	 N	 l	 b	 n.a.	 3.546035e-01
8	 4	 104	 flanked	 bex	 4	 1.500000	 2.000000	 flanked_bex_freq_4_amplitude_1.5_rep_6_l_N_2.0.png	 N	 l	 l	 n.a.	 3.400192e-01
8	 4	 105	 flanked	 bex	 4	 1.500000	 2.000000	 flanked_bex_freq_4_amplitude_1.5_rep_7_b_H_2.0.png	 H	 b	 b	 n.a.	 3.930176e-01
8	 4	 106	 flanked	 bex	 2	 2.000000	 2.000000	 flanked_bex_freq_2_amplitude_2_rep_5_t_D_2.0.png	 D	 t	 l	 n.a.	 4.129198e-01
8	 4	 107	 flanked	 bex	 6	 2.500000	 2.000000	 flanked_bex_freq_6_amplitude_2.5_rep_9_l_K_2.0.png	 K	 l	 l	 n.a.	 2.834015e-01
8	 4	 108	 flanked	 bex	 8	 1.000000	 2.000000	 flanked_bex_freq_8_amplitude_1_rep_3_t_K_2.0.png	 K	 t	 t	 n.a.	 3.723119e-01
8	 4	 109	 flanked	 bex	 4	 3.000000	 2.000000	 flanked_bex_freq_4_amplitude_3_rep_8_b_N_2.0.png	 N	 b	 b	 n.a.	 3.794795e-01
8	 4	 110	 flanked	 bex	 16	 2.500000	 2.000000	 flanked_bex_freq_16_amplitude_2.5_rep_0_l_K_2.0.png	 K	 l	 l	 n.a.	 2.098809e-01
8	 4	 111	 flanked	 bex	 2	 1.500000	 2.000000	 flanked_bex_freq_2_amplitude_1.5_rep_9_t_D_2.0.png	 D	 t	 b	 n.a.	 3.044971e-01
8	 4	 112	 flanked	 bex	 2	 1.500000	 2.000000	 flanked_bex_freq_2_amplitude_1.5_rep_6_l_H_2.0.png	 H	 l	 b	 n.a.	 3.160459e-01
8	 4	 113	 flanked	 bex	 8	 3.000000	 2.000000	 flanked_bex_freq_8_amplitude_3_rep_4_r_D_2.0.png	 D	 r	 r	 n.a.	 2.115246e-01
8	 4	 114	 flanked	 bex	 2	 3.000000	 2.000000	 flanked_bex_freq_2_amplitude_3_rep_4_r_D_2.0.png	 D	 r	 b	 n.a.	 3.441015e-01
8	 4	 115	 flanked	 bex	 2	 2.500000	 2.000000	 flanked_bex_freq_2_amplitude_2.5_rep_4_b_N_2.0.png	 N	 b	 l	 n.a.	 4.944287e-01
8	 4	 116	 flanked	 bex	 8	 0.500000	 2.000000	 flanked_bex_freq_8_amplitude_0.5_rep_4_l_D_2.0.png	 D	 l	 t	 n.a.	 2.557545e-01
8	 4	 117	 flanked	 bex	 2	 0.250000	 2.000000	 flanked_bex_freq_2_amplitude_0.25_rep_3_t_H_2.0.png	 H	 t	 l	 n.a.	 4.519037e-01
8	 4	 118	 flanked	 bex	 6	 1.000000	 2.000000	 flanked_bex_freq_6_amplitude_1_rep_9_t_K_2.0.png	 K	 t	 t	 n.a.	 2.809758e-01
8	 4	 119	 flanked	 bex	 4	 1.500000	 2.000000	 flanked_bex_freq_4_amplitude_1.5_rep_5_l_H_2.0.png	 H	 l	 l	 n.a.	 4.950289e-01
8	 4	 120	 flanked	 bex	 16	 2.500000	 2.000000	 flanked_bex_freq_16_amplitude_2.5_rep_4_t_H_2.0.png	 H	 t	 t	 n.a.	 6.419655e-01
8	 4	 121	 flanked	 bex	 6	 2.500000	 2.000000	 flanked_bex_freq_6_amplitude_2.5_rep_1_l_H_2.0.png	 H	 l	 l	 n.a.	 3.205472e-01
8	 4	 122	 flanked	 bex	 6	 0.250000	 2.000000	 flanked_bex_freq_6_amplitude_0.25_rep_1_b_H_2.0.png	 H	 b	 b	 n.a.	 5.395763e-01
8	 4	 123	 flanked	 bex	 6	 1.000000	 2.000000	 flanked_bex_freq_6_amplitude_1_rep_1_b_K_2.0.png	 K	 b	 l	 n.a.	 4.782951e-01
8	 4	 124	 flanked	 bex	 8	 1.500000	 2.000000	 flanked_bex_freq_8_amplitude_1.5_rep_0_r_H_2.0.png	 H	 r	 r	 n.a.	 2.726143e-01
8	 4	 125	 flanked	 bex	 4	 2.500000	 2.000000	 flanked_bex_freq_4_amplitude_2.5_rep_2_t_N_2.0.png	 N	 t	 t	 n.a.	 3.412100e-01
8	 4	 126	 flanked	 bex	 8	 0.500000	 2.000000	 flanked_bex_freq_8_amplitude_0.5_rep_9_t_D_2.0.png	 D	 t	 l	 n.a.	 4.408173e-01
8	 4	 127	 flanked	 bex	 2	 2.000000	 2.000000	 flanked_bex_freq_2_amplitude_2_rep_0_t_N_2.0.png	 N	 t	 b	 n.a.	 3.697294e-01
8	 4	 128	 flanked	 bex	 2	 1.000000	 2.000000	 flanked_bex_freq_2_amplitude_1_rep_9_t_D_2.0.png	 D	 t	 t	 n.a.	 5.544324e-01
8	 4	 129	 flanked	 bex	 16	 1.500000	 2.000000	 flanked_bex_freq_16_amplitude_1.5_rep_8_l_N_2.0.png	 N	 l	 l	 n.a.	 4.519020e-01
8	 4	 130	 flanked	 bex	 8	 3.000000	 2.000000	 flanked_bex_freq_8_amplitude_3_rep_3_b_D_2.0.png	 D	 b	 b	 n.a.	 3.292795e-01
8	 4	 131	 flanked	 bex	 32	 0.500000	 2.000000	 flanked_bex_freq_32_amplitude_0.5_rep_2_b_H_2.0.png	 H	 b	 t	 n.a.	 4.922122e-01
8	 4	 132	 flanked	 bex	 8	 0.500000	 2.000000	 flanked_bex_freq_8_amplitude_0.5_rep_8_l_D_2.0.png	 D	 l	 b	 n.a.	 3.163245e-01
8	 4	 133	 flanked	 bex	 4	 2.000000	 2.000000	 flanked_bex_freq_4_amplitude_2_rep_7_t_D_2.0.png	 D	 t	 t	 n.a.	 3.800076e-01
8	 4	 134	 flanked	 bex	 8	 0.250000	 2.000000	 flanked_bex_freq_8_amplitude_0.25_rep_9_b_D_2.0.png	 D	 b	 l	 n.a.	 3.878902e-01
8	 4	 135	 flanked	 bex	 4	 0.500000	 2.000000	 flanked_bex_freq_4_amplitude_0.5_rep_5_r_K_2.0.png	 K	 r	 b	 n.a.	 4.390591e-01
8	 4	 136	 flanked	 bex	 8	 1.500000	 2.000000	 flanked_bex_freq_8_amplitude_1.5_rep_8_b_H_2.0.png	 H	 b	 r	 n.a.	 3.307539e-01
8	 4	 137	 flanked	 bex	 8	 0.250000	 2.000000	 flanked_bex_freq_8_amplitude_0.25_rep_0_r_D_2.0.png	 D	 r	 t	 n.a.	 2.157152e-01
8	 4	 138	 flanked	 bex	 4	 1.500000	 2.000000	 flanked_bex_freq_4_amplitude_1.5_rep_0_b_H_2.0.png	 H	 b	 b	 n.a.	 3.091531e-01
8	 4	 139	 flanked	 bex	 16	 2.500000	 2.000000	 flanked_bex_freq_16_amplitude_2.5_rep_7_r_D_2.0.png	 D	 r	 r	 n.a.	 2.239060e-01
8	 4	 140	 flanked	 bex	 32	 2.500000	 2.000000	 flanked_bex_freq_32_amplitude_2.5_rep_7_l_H_2.0.png	 H	 l	 l	 n.a.	 2.784732e-01
8	 4	 141	 flanked	 bex	 8	 2.500000	 2.000000	 flanked_bex_freq_8_amplitude_2.5_rep_7_b_N_2.0.png	 N	 b	 b	 n.a.	 3.512766e-01
8	 4	 142	 flanked	 bex	 4	 1.000000	 2.000000	 flanked_bex_freq_4_amplitude_1_rep_0_b_D_2.0.png	 D	 b	 t	 n.a.	 3.649007e-01
8	 4	 143	 flanked	 bex	 32	 0.250000	 2.000000	 flanked_bex_freq_32_amplitude_0.25_rep_3_l_N_2.0.png	 N	 l	 b	 n.a.	 2.575547e-01
8	 4	 144	 flanked	 bex	 4	 1.000000	 2.000000	 flanked_bex_freq_4_amplitude_1_rep_8_t_H_2.0.png	 H	 t	 l	 n.a.	 4.275955e-01
8	 4	 145	 flanked	 bex	 6	 1.000000	 2.000000	 flanked_bex_freq_6_amplitude_1_rep_6_b_K_2.0.png	 K	 b	 b	 n.a.	 4.187105e-01
8	 4	 146	 flanked	 bex	 4	 3.000000	 2.000000	 flanked_bex_freq_4_amplitude_3_rep_1_l_H_2.0.png	 H	 l	 l	 n.a.	 3.295438e-01
8	 4	 147	 flanked	 bex	 32	 2.000000	 2.000000	 flanked_bex_freq_32_amplitude_2_rep_4_r_K_2.0.png	 K	 r	 r	 n.a.	 4.333575e-01
8	 4	 148	 flanked	 bex	 32	 1.000000	 2.000000	 flanked_bex_freq_32_amplitude_1_rep_7_t_D_2.0.png	 D	 t	 t	 n.a.	 4.448593e-01
8	 4	 149	 flanked	 bex	 16	 0.250000	 2.000000	 flanked_bex_freq_16_amplitude_0.25_rep_6_b_H_2.0.png	 H	 b	 r	 n.a.	 4.793956e-01
8	 4	 150	 flanked	 bex	 4	 2.000000	 2.000000	 flanked_bex_freq_4_amplitude_2_rep_4_l_N_2.0.png	 N	 l	 l	 n.a.	 2.495909e-01
8	 4	 151	 flanked	 bex	 2	 1.500000	 2.000000	 flanked_bex_freq_2_amplitude_1.5_rep_4_r_N_2.0.png	 N	 r	 b	 n.a.	 2.930861e-01
8	 4	 152	 flanked	 bex	 8	 2.500000	 2.000000	 flanked_bex_freq_8_amplitude_2.5_rep_3_l_N_2.0.png	 N	 l	 l	 n.a.	 1.827493e-01
8	 4	 153	 flanked	 bex	 2	 1.000000	 2.000000	 flanked_bex_freq_2_amplitude_1_rep_2_l_N_2.0.png	 N	 l	 t	 n.a.	 3.227642e-01
8	 4	 154	 flanked	 bex	 32	 3.000000	 2.000000	 flanked_bex_freq_32_amplitude_3_rep_9_l_D_2.0.png	 D	 l	 b	 n.a.	 2.839912e-01
8	 4	 155	 flanked	 bex	 16	 2.500000	 2.000000	 flanked_bex_freq_16_amplitude_2.5_rep_1_r_H_2.0.png	 H	 r	 r	 n.a.	 2.689838e-01
8	 4	 156	 flanked	 bex	 4	 0.500000	 2.000000	 flanked_bex_freq_4_amplitude_0.5_rep_1_r_H_2.0.png	 H	 r	 r	 n.a.	 6.819594e-01
8	 4	 157	 flanked	 bex	 6	 0.500000	 2.000000	 flanked_bex_freq_6_amplitude_0.5_rep_6_r_K_2.0.png	 K	 r	 t	 n.a.	 5.942780e-01
8	 4	 158	 flanked	 bex	 6	 1.500000	 2.000000	 flanked_bex_freq_6_amplitude_1.5_rep_2_t_N_2.0.png	 N	 t	 b	 n.a.	 5.337701e-01
8	 4	 159	 flanked	 bex	 2	 3.000000	 2.000000	 flanked_bex_freq_2_amplitude_3_rep_2_l_K_2.0.png	 K	 l	 l	 n.a.	 3.060195e-01
8	 4	 160	 flanked	 bex	 16	 3.000000	 2.000000	 flanked_bex_freq_16_amplitude_3_rep_6_b_N_2.0.png	 N	 b	 r	 n.a.	 3.723802e-01
8	 4	 161	 flanked	 bex	 32	 0.250000	 2.000000	 flanked_bex_freq_32_amplitude_0.25_rep_7_t_H_2.0.png	 H	 t	 b	 n.a.	 2.572046e-01
8	 4	 162	 flanked	 bex	 8	 2.500000	 2.000000	 flanked_bex_freq_8_amplitude_2.5_rep_1_l_D_2.0.png	 D	 l	 l	 n.a.	 2.267973e-01
8	 4	 163	 flanked	 bex	 2	 1.500000	 2.000000	 flanked_bex_freq_2_amplitude_1.5_rep_3_b_N_2.0.png	 N	 b	 t	 n.a.	 4.500056e-01
8	 4	 164	 flanked	 bex	 6	 1.000000	 2.000000	 flanked_bex_freq_6_amplitude_1_rep_8_b_D_2.0.png	 D	 b	 t	 n.a.	 4.038309e-01
8	 4	 165	 flanked	 bex	 6	 0.250000	 2.000000	 flanked_bex_freq_6_amplitude_0.25_rep_4_r_N_2.0.png	 N	 r	 t	 n.a.	 4.036436e-01
8	 4	 166	 flanked	 bex	 32	 2.500000	 2.000000	 flanked_bex_freq_32_amplitude_2.5_rep_3_t_N_2.0.png	 N	 t	 r	 n.a.	 2.668567e-01
8	 4	 167	 flanked	 bex	 8	 1.500000	 2.000000	 flanked_bex_freq_8_amplitude_1.5_rep_4_l_D_2.0.png	 D	 l	 l	 n.a.	 2.845885e-01
8	 4	 168	 flanked	 bex	 2	 2.000000	 2.000000	 flanked_bex_freq_2_amplitude_2_rep_8_b_K_2.0.png	 K	 b	 b	 n.a.	 2.970654e-01
8	 4	 169	 flanked	 bex	 16	 1.000000	 2.000000	 flanked_bex_freq_16_amplitude_1_rep_8_l_K_2.0.png	 K	 l	 l	 n.a.	 3.857698e-01
8	 4	 170	 flanked	 bex	 6	 1.500000	 2.000000	 flanked_bex_freq_6_amplitude_1.5_rep_1_l_D_2.0.png	 D	 l	 l	 n.a.	 3.017883e-01
8	 4	 171	 flanked	 bex	 2	 1.500000	 2.000000	 flanked_bex_freq_2_amplitude_1.5_rep_0_b_D_2.0.png	 D	 b	 r	 n.a.	 4.195038e-01
8	 4	 172	 flanked	 bex	 4	 0.500000	 2.000000	 flanked_bex_freq_4_amplitude_0.5_rep_4_b_N_2.0.png	 N	 b	 b	 n.a.	 2.559312e-01
8	 4	 173	 flanked	 bex	 16	 1.000000	 2.000000	 flanked_bex_freq_16_amplitude_1_rep_4_r_H_2.0.png	 H	 r	 r	 n.a.	 3.068248e-01
8	 4	 174	 flanked	 bex	 2	 1.500000	 2.000000	 flanked_bex_freq_2_amplitude_1.5_rep_2_b_H_2.0.png	 H	 b	 t	 n.a.	 3.119923e-01
8	 4	 175	 flanked	 bex	 6	 3.000000	 2.000000	 flanked_bex_freq_6_amplitude_3_rep_7_t_K_2.0.png	 K	 t	 t	 n.a.	 3.615176e-01
8	 4	 176	 flanked	 bex	 4	 1.500000	 2.000000	 flanked_bex_freq_4_amplitude_1.5_rep_1_l_N_2.0.png	 N	 l	 b	 n.a.	 2.264347e-01
8	 4	 177	 flanked	 bex	 16	 3.000000	 2.000000	 flanked_bex_freq_16_amplitude_3_rep_0_b_N_2.0.png	 N	 b	 l	 n.a.	 1.548838e-01
8	 4	 178	 flanked	 bex	 2	 1.000000	 2.000000	 flanked_bex_freq_2_amplitude_1_rep_6_b_D_2.0.png	 D	 b	 b	 n.a.	 3.682327e-01
8	 4	 179	 flanked	 bex	 16	 3.000000	 2.000000	 flanked_bex_freq_16_amplitude_3_rep_3_r_N_2.0.png	 N	 r	 r	 n.a.	 2.383887e-01
8	 4	 180	 flanked	 bex	 32	 3.000000	 2.000000	 flanked_bex_freq_32_amplitude_3_rep_6_t_N_2.0.png	 N	 t	 l	 n.a.	 4.197761e-01
8	 4	 181	 flanked	 bex	 8	 3.000000	 2.000000	 flanked_bex_freq_8_amplitude_3_rep_2_r_D_2.0.png	 D	 r	 r	 n.a.	 2.304504e-01
8	 4	 182	 flanked	 bex	 16	 0.250000	 2.000000	 flanked_bex_freq_16_amplitude_0.25_rep_2_l_H_2.0.png	 H	 l	 t	 n.a.	 2.586188e-01
8	 4	 183	 flanked	 bex	 2	 2.000000	 2.000000	 flanked_bex_freq_2_amplitude_2_rep_1_b_D_2.0.png	 D	 b	 r	 n.a.	 8.824178e-01
8	 4	 184	 flanked	 bex	 32	 0.250000	 2.000000	 flanked_bex_freq_32_amplitude_0.25_rep_2_l_N_2.0.png	 N	 l	 b	 n.a.	 3.318159e-01
8	 4	 185	 flanked	 bex	 2	 1.500000	 2.000000	 flanked_bex_freq_2_amplitude_1.5_rep_8_l_D_2.0.png	 D	 l	 t	 n.a.	 3.372403e-01
8	 4	 186	 flanked	 bex	 4	 0.250000	 2.000000	 flanked_bex_freq_4_amplitude_0.25_rep_0_r_K_2.0.png	 K	 r	 b	 n.a.	 4.529851e-01
8	 4	 187	 flanked	 bex	 4	 3.000000	 2.000000	 flanked_bex_freq_4_amplitude_3_rep_6_l_H_2.0.png	 H	 l	 l	 n.a.	 2.333422e-01
8	 4	 188	 flanked	 bex	 16	 2.000000	 2.000000	 flanked_bex_freq_16_amplitude_2_rep_3_b_H_2.0.png	 H	 b	 b	 n.a.	 3.088270e-01
8	 4	 189	 flanked	 bex	 16	 0.500000	 2.000000	 flanked_bex_freq_16_amplitude_0.5_rep_1_l_D_2.0.png	 D	 l	 b	 n.a.	 4.999141e-01
8	 4	 190	 flanked	 bex	 32	 2.500000	 2.000000	 flanked_bex_freq_32_amplitude_2.5_rep_1_r_D_2.0.png	 D	 r	 r	 n.a.	 2.317598e-01
8	 4	 191	 flanked	 bex	 6	 1.500000	 2.000000	 flanked_bex_freq_6_amplitude_1.5_rep_4_r_H_2.0.png	 H	 r	 r	 n.a.	 3.045576e-01
8	 4	 192	 flanked	 bex	 2	 3.000000	 2.000000	 flanked_bex_freq_2_amplitude_3_rep_6_b_N_2.0.png	 N	 b	 t	 n.a.	 5.599951e-01
8	 4	 193	 flanked	 bex	 32	 1.500000	 2.000000	 flanked_bex_freq_32_amplitude_1.5_rep_0_b_H_2.0.png	 H	 b	 b	 n.a.	 4.406127e-01
8	 4	 194	 flanked	 bex	 32	 1.000000	 2.000000	 flanked_bex_freq_32_amplitude_1_rep_9_t_K_2.0.png	 K	 t	 l	 n.a.	 4.918171e-01
8	 4	 195	 flanked	 bex	 4	 2.500000	 2.000000	 flanked_bex_freq_4_amplitude_2.5_rep_1_l_N_2.0.png	 N	 l	 l	 n.a.	 3.209149e-01
8	 4	 196	 flanked	 bex	 2	 0.500000	 2.000000	 flanked_bex_freq_2_amplitude_0.5_rep_4_b_H_2.0.png	 H	 b	 t	 n.a.	 3.138684e-01
8	 4	 197	 flanked	 bex	 4	 1.000000	 2.000000	 flanked_bex_freq_4_amplitude_1_rep_2_b_D_2.0.png	 D	 b	 r	 n.a.	 2.526654e-01
8	 4	 198	 flanked	 bex	 8	 1.500000	 2.000000	 flanked_bex_freq_8_amplitude_1.5_rep_3_t_K_2.0.png	 K	 t	 t	 n.a.	 3.070773e-01
8	 4	 199	 flanked	 bex	 2	 1.000000	 2.000000	 flanked_bex_freq_2_amplitude_1_rep_8_l_K_2.0.png	 K	 l	 b	 n.a.	 2.327588e-01
8	 4	 200	 flanked	 bex	 6	 2.000000	 2.000000	 flanked_bex_freq_6_amplitude_2_rep_1_t_K_2.0.png	 K	 t	 r	 n.a.	 2.013497e-01
8	 4	 201	 flanked	 bex	 6	 0.500000	 2.000000	 flanked_bex_freq_6_amplitude_0.5_rep_0_r_N_2.0.png	 N	 r	 t	 n.a.	 2.675502e-01
8	 4	 202	 flanked	 bex	 8	 2.500000	 2.000000	 flanked_bex_freq_8_amplitude_2.5_rep_0_l_N_2.0.png	 N	 l	 l	 n.a.	 2.865913e-01
8	 4	 203	 flanked	 bex	 2	 0.500000	 2.000000	 flanked_bex_freq_2_amplitude_0.5_rep_7_r_D_2.0.png	 D	 r	 t	 n.a.	 3.480924e-01
8	 4	 204	 flanked	 bex	 8	 0.500000	 2.000000	 flanked_bex_freq_8_amplitude_0.5_rep_0_b_D_2.0.png	 D	 b	 b	 n.a.	 4.714852e-01
8	 4	 205	 flanked	 bex	 32	 1.000000	 2.000000	 flanked_bex_freq_32_amplitude_1_rep_3_l_H_2.0.png	 H	 l	 t	 n.a.	 3.224010e-01
8	 4	 206	 flanked	 bex	 32	 2.000000	 2.000000	 flanked_bex_freq_32_amplitude_2_rep_5_t_K_2.0.png	 K	 t	 r	 n.a.	 1.790875e-01
8	 4	 207	 flanked	 bex	 32	 0.500000	 2.000000	 flanked_bex_freq_32_amplitude_0.5_rep_6_r_K_2.0.png	 K	 r	 l	 n.a.	 1.638136e-01
8	 4	 208	 flanked	 bex	 16	 3.000000	 2.000000	 flanked_bex_freq_16_amplitude_3_rep_9_r_K_2.0.png	 K	 r	 r	 n.a.	 2.065527e-01
8	 4	 209	 flanked	 bex	 16	 2.500000	 2.000000	 flanked_bex_freq_16_amplitude_2.5_rep_9_r_N_2.0.png	 N	 r	 r	 n.a.	 2.307393e-01
8	 4	 210	 flanked	 bex	 8	 2.000000	 2.000000	 flanked_bex_freq_8_amplitude_2_rep_4_l_N_2.0.png	 N	 l	 l	 n.a.	 2.332671e-01
8	 4	 211	 flanked	 bex	 16	 2.000000	 2.000000	 flanked_bex_freq_16_amplitude_2_rep_9_l_H_2.0.png	 H	 l	 r	 n.a.	 4.301386e-01
8	 4	 212	 flanked	 bex	 16	 1.000000	 2.000000	 flanked_bex_freq_16_amplitude_1_rep_6_l_N_2.0.png	 N	 l	 l	 n.a.	 4.378883e-01
8	 4	 213	 flanked	 bex	 2	 3.000000	 2.000000	 flanked_bex_freq_2_amplitude_3_rep_1_b_K_2.0.png	 K	 b	 t	 n.a.	 2.264105e-01
8	 4	 214	 flanked	 bex	 32	 1.500000	 2.000000	 flanked_bex_freq_32_amplitude_1.5_rep_9_l_K_2.0.png	 K	 l	 l	 n.a.	 3.890546e-01
8	 4	 215	 flanked	 bex	 2	 2.000000	 2.000000	 flanked_bex_freq_2_amplitude_2_rep_3_l_H_2.0.png	 H	 l	 b	 n.a.	 3.946245e-01
8	 4	 216	 flanked	 bex	 6	 2.000000	 2.000000	 flanked_bex_freq_6_amplitude_2_rep_4_t_D_2.0.png	 D	 t	 t	 n.a.	 3.106316e-01
8	 4	 217	 flanked	 bex	 16	 0.500000	 2.000000	 flanked_bex_freq_16_amplitude_0.5_rep_8_t_H_2.0.png	 H	 t	 l	 n.a.	 3.474777e-01
8	 4	 218	 flanked	 bex	 16	 0.250000	 2.000000	 flanked_bex_freq_16_amplitude_0.25_rep_4_l_H_2.0.png	 H	 l	 b	 n.a.	 2.997772e-01
8	 4	 219	 flanked	 bex	 4	 2.500000	 2.000000	 flanked_bex_freq_4_amplitude_2.5_rep_3_t_D_2.0.png	 D	 t	 r	 n.a.	 3.091023e-01
8	 4	 220	 flanked	 bex	 4	 3.000000	 2.000000	 flanked_bex_freq_4_amplitude_3_rep_0_l_K_2.0.png	 K	 l	 l	 n.a.	 2.372015e-01
8	 4	 221	 flanked	 bex	 2	 0.250000	 2.000000	 flanked_bex_freq_2_amplitude_0.25_rep_2_r_N_2.0.png	 N	 r	 t	 n.a.	 2.871340e-01
8	 4	 222	 flanked	 bex	 6	 2.500000	 2.000000	 flanked_bex_freq_6_amplitude_2.5_rep_0_r_N_2.0.png	 N	 r	 r	 n.a.	 2.532106e-01
8	 4	 223	 flanked	 bex	 2	 0.250000	 2.000000	 flanked_bex_freq_2_amplitude_0.25_rep_5_t_N_2.0.png	 N	 t	 b	 n.a.	 3.737844e-01
8	 4	 224	 flanked	 bex	 8	 0.250000	 2.000000	 flanked_bex_freq_8_amplitude_0.25_rep_1_t_N_2.0.png	 N	 t	 b	 n.a.	 4.070966e-01
8	 4	 225	 flanked	 bex	 2	 0.500000	 2.000000	 flanked_bex_freq_2_amplitude_0.5_rep_0_b_H_2.0.png	 H	 b	 t	 n.a.	 3.307113e-01
8	 4	 226	 flanked	 bex	 16	 0.500000	 2.000000	 flanked_bex_freq_16_amplitude_0.5_rep_9_b_N_2.0.png	 N	 b	 t	 n.a.	 5.067517e-01
8	 4	 227	 flanked	 bex	 2	 3.000000	 2.000000	 flanked_bex_freq_2_amplitude_3_rep_3_b_H_2.0.png	 H	 b	 b	 n.a.	 3.370108e-01
8	 4	 228	 flanked	 bex	 8	 0.500000	 2.000000	 flanked_bex_freq_8_amplitude_0.5_rep_5_r_K_2.0.png	 K	 r	 t	 n.a.	 4.660662e-01
8	 4	 229	 flanked	 bex	 8	 0.250000	 2.000000	 flanked_bex_freq_8_amplitude_0.25_rep_5_l_H_2.0.png	 H	 l	 r	 n.a.	 2.426779e-01
8	 4	 230	 flanked	 bex	 16	 2.000000	 2.000000	 flanked_bex_freq_16_amplitude_2_rep_0_r_N_2.0.png	 N	 r	 r	 n.a.	 3.637018e-01
8	 4	 231	 flanked	 bex	 6	 0.250000	 2.000000	 flanked_bex_freq_6_amplitude_0.25_rep_0_r_H_2.0.png	 H	 r	 l	 n.a.	 2.247452e-01
8	 4	 232	 flanked	 bex	 8	 2.500000	 2.000000	 flanked_bex_freq_8_amplitude_2.5_rep_4_b_D_2.0.png	 D	 b	 b	 n.a.	 3.161550e-01
8	 4	 233	 flanked	 bex	 4	 1.000000	 2.000000	 flanked_bex_freq_4_amplitude_1_rep_5_r_K_2.0.png	 K	 r	 l	 n.a.	 3.430181e-01
8	 4	 234	 flanked	 bex	 2	 0.500000	 2.000000	 flanked_bex_freq_2_amplitude_0.5_rep_9_r_K_2.0.png	 K	 r	 b	 n.a.	 2.251216e-01
8	 4	 235	 flanked	 bex	 16	 1.500000	 2.000000	 flanked_bex_freq_16_amplitude_1.5_rep_4_r_K_2.0.png	 K	 r	 r	 n.a.	 2.257848e-01
8	 4	 236	 flanked	 bex	 32	 2.000000	 2.000000	 flanked_bex_freq_32_amplitude_2_rep_2_b_N_2.0.png	 N	 b	 t	 n.a.	 2.409795e-01
8	 4	 237	 flanked	 bex	 32	 0.500000	 2.000000	 flanked_bex_freq_32_amplitude_0.5_rep_1_r_N_2.0.png	 N	 r	 t	 n.a.	 3.276850e-01
8	 4	 238	 flanked	 bex	 16	 2.000000	 2.000000	 flanked_bex_freq_16_amplitude_2_rep_2_l_N_2.0.png	 N	 l	 l	 n.a.	 2.129961e-01
8	 4	 239	 flanked	 bex	 16	 2.000000	 2.000000	 flanked_bex_freq_16_amplitude_2_rep_4_l_K_2.0.png	 K	 l	 l	 n.a.	 2.920627e-01
8	 4	 240	 flanked	 bex	 32	 0.500000	 2.000000	 flanked_bex_freq_32_amplitude_0.5_rep_0_b_K_2.0.png	 K	 b	 r	 n.a.	 3.222154e-01
8	 4	 241	 flanked	 bex	 4	 2.500000	 2.000000	 flanked_bex_freq_4_amplitude_2.5_rep_0_t_K_2.0.png	 K	 t	 t	 n.a.	 3.021441e-01
8	 4	 242	 flanked	 bex	 32	 3.000000	 2.000000	 flanked_bex_freq_32_amplitude_3_rep_8_b_K_2.0.png	 K	 b	 b	 n.a.	 3.217988e-01
8	 4	 243	 flanked	 bex	 4	 1.500000	 2.000000	 flanked_bex_freq_4_amplitude_1.5_rep_2_b_K_2.0.png	 K	 b	 b	 n.a.	 3.603160e-01
8	 4	 244	 flanked	 bex	 8	 2.000000	 2.000000	 flanked_bex_freq_8_amplitude_2_rep_6_t_K_2.0.png	 K	 t	 t	 n.a.	 3.077792e-01
8	 4	 245	 flanked	 bex	 4	 0.250000	 2.000000	 flanked_bex_freq_4_amplitude_0.25_rep_7_b_D_2.0.png	 D	 b	 r	 n.a.	 3.138082e-01
8	 4	 246	 flanked	 bex	 4	 1.500000	 2.000000	 flanked_bex_freq_4_amplitude_1.5_rep_4_l_N_2.0.png	 N	 l	 b	 n.a.	 4.934686e-01
8	 4	 247	 flanked	 bex	 2	 1.000000	 2.000000	 flanked_bex_freq_2_amplitude_1_rep_0_t_K_2.0.png	 K	 t	 r	 n.a.	 3.320366e-01
8	 4	 248	 flanked	 bex	 8	 0.250000	 2.000000	 flanked_bex_freq_8_amplitude_0.25_rep_4_l_K_2.0.png	 K	 l	 t	 n.a.	 3.010453e-01
8	 4	 249	 flanked	 bex	 16	 1.500000	 2.000000	 flanked_bex_freq_16_amplitude_1.5_rep_0_b_K_2.0.png	 K	 b	 l	 n.a.	 4.248255e-01
8	 4	 250	 flanked	 bex	 16	 0.500000	 2.000000	 flanked_bex_freq_16_amplitude_0.5_rep_6_t_N_2.0.png	 N	 t	 b	 n.a.	 4.897688e-01
8	 4	 251	 flanked	 bex	 6	 2.000000	 2.000000	 flanked_bex_freq_6_amplitude_2_rep_2_l_D_2.0.png	 D	 l	 l	 n.a.	 2.680280e-01
8	 4	 252	 flanked	 bex	 8	 2.000000	 2.000000	 flanked_bex_freq_8_amplitude_2_rep_1_l_K_2.0.png	 K	 l	 l	 n.a.	 5.598136e-01
8	 4	 253	 flanked	 bex	 6	 1.500000	 2.000000	 flanked_bex_freq_6_amplitude_1.5_rep_8_b_K_2.0.png	 K	 b	 b	 n.a.	 3.952867e-01
8	 4	 254	 flanked	 bex	 6	 3.000000	 2.000000	 flanked_bex_freq_6_amplitude_3_rep_5_b_K_2.0.png	 K	 b	 b	 n.a.	 3.548674e-01
8	 4	 255	 flanked	 bex	 4	 2.500000	 2.000000	 flanked_bex_freq_4_amplitude_2.5_rep_6_l_N_2.0.png	 N	 l	 l	 n.a.	 2.910375e-01
8	 4	 256	 flanked	 bex	 32	 2.500000	 2.000000	 flanked_bex_freq_32_amplitude_2.5_rep_0_l_D_2.0.png	 D	 l	 l	 n.a.	 4.934284e-01
8	 4	 257	 flanked	 bex	 2	 1.000000	 2.000000	 flanked_bex_freq_2_amplitude_1_rep_4_l_K_2.0.png	 K	 l	 b	 n.a.	 6.319146e-01
8	 4	 258	 flanked	 bex	 16	 1.500000	 2.000000	 flanked_bex_freq_16_amplitude_1.5_rep_9_r_H_2.0.png	 H	 r	 r	 n.a.	 2.576002e-01
8	 4	 259	 flanked	 bex	 6	 0.500000	 2.000000	 flanked_bex_freq_6_amplitude_0.5_rep_7_r_K_2.0.png	 K	 r	 t	 n.a.	 3.365040e-01
8	 4	 260	 flanked	 bex	 6	 0.500000	 2.000000	 flanked_bex_freq_6_amplitude_0.5_rep_1_t_D_2.0.png	 D	 t	 t	 n.a.	 4.654789e-01
8	 4	 261	 flanked	 bex	 8	 1.000000	 2.000000	 flanked_bex_freq_8_amplitude_1_rep_9_b_D_2.0.png	 D	 b	 b	 n.a.	 3.468811e-01
8	 4	 262	 flanked	 bex	 8	 1.000000	 2.000000	 flanked_bex_freq_8_amplitude_1_rep_6_r_D_2.0.png	 D	 r	 r	 n.a.	 2.091115e-01
8	 4	 263	 flanked	 bex	 2	 0.250000	 2.000000	 flanked_bex_freq_2_amplitude_0.25_rep_6_t_H_2.0.png	 H	 t	 b	 n.a.	 3.308540e-01
8	 4	 264	 flanked	 bex	 8	 3.000000	 2.000000	 flanked_bex_freq_8_amplitude_3_rep_1_b_K_2.0.png	 K	 b	 b	 n.a.	 3.338999e-01
8	 4	 265	 flanked	 bex	 2	 0.500000	 2.000000	 flanked_bex_freq_2_amplitude_0.5_rep_3_t_N_2.0.png	 N	 t	 t	 n.a.	 2.131201e-01
8	 4	 266	 flanked	 bex	 16	 0.250000	 2.000000	 flanked_bex_freq_16_amplitude_0.25_rep_8_t_N_2.0.png	 N	 t	 b	 n.a.	 5.753387e-01
8	 4	 267	 flanked	 bex	 4	 0.500000	 2.000000	 flanked_bex_freq_4_amplitude_0.5_rep_9_t_K_2.0.png	 K	 t	 r	 n.a.	 2.548254e-01
8	 4	 268	 flanked	 bex	 32	 1.500000	 2.000000	 flanked_bex_freq_32_amplitude_1.5_rep_4_b_H_2.0.png	 H	 b	 t	 n.a.	 5.284431e-01
8	 4	 269	 flanked	 bex	 6	 1.000000	 2.000000	 flanked_bex_freq_6_amplitude_1_rep_2_l_H_2.0.png	 H	 l	 l	 n.a.	 2.960636e-01
8	 4	 270	 flanked	 bex	 32	 0.250000	 2.000000	 flanked_bex_freq_32_amplitude_0.25_rep_4_b_D_2.0.png	 D	 b	 b	 n.a.	 3.632163e-01
8	 4	 271	 flanked	 bex	 2	 2.500000	 2.000000	 flanked_bex_freq_2_amplitude_2.5_rep_7_l_K_2.0.png	 K	 l	 t	 n.a.	 3.181353e-01
8	 4	 272	 flanked	 bex	 6	 2.500000	 2.000000	 flanked_bex_freq_6_amplitude_2.5_rep_6_t_D_2.0.png	 D	 t	 t	 n.a.	 3.608709e-01
8	 4	 273	 flanked	 bex	 32	 3.000000	 2.000000	 flanked_bex_freq_32_amplitude_3_rep_4_b_N_2.0.png	 N	 b	 r	 n.a.	 2.515448e-01
8	 4	 274	 flanked	 bex	 4	 0.500000	 2.000000	 flanked_bex_freq_4_amplitude_0.5_rep_6_l_H_2.0.png	 H	 l	 l	 n.a.	 4.575731e-01
8	 4	 275	 flanked	 bex	 6	 1.500000	 2.000000	 flanked_bex_freq_6_amplitude_1.5_rep_6_b_N_2.0.png	 N	 b	 b	 n.a.	 3.570734e-01
8	 4	 276	 flanked	 bex	 16	 3.000000	 2.000000	 flanked_bex_freq_16_amplitude_3_rep_5_r_K_2.0.png	 K	 r	 r	 n.a.	 2.518144e-01
8	 4	 277	 flanked	 bex	 6	 2.500000	 2.000000	 flanked_bex_freq_6_amplitude_2.5_rep_5_b_H_2.0.png	 H	 b	 b	 n.a.	 3.065010e-01
8	 4	 278	 flanked	 bex	 32	 2.500000	 2.000000	 flanked_bex_freq_32_amplitude_2.5_rep_6_r_K_2.0.png	 K	 r	 r	 n.a.	 2.391689e-01
8	 4	 279	 flanked	 bex	 4	 2.000000	 2.000000	 flanked_bex_freq_4_amplitude_2_rep_9_r_D_2.0.png	 D	 r	 t	 n.a.	 2.441954e-01
8	 4	 280	 flanked	 bex	 32	 2.500000	 2.000000	 flanked_bex_freq_32_amplitude_2.5_rep_5_r_N_2.0.png	 N	 r	 r	 n.a.	 3.912752e-01
8	 4	 281	 flanked	 bex	 8	 1.000000	 2.000000	 flanked_bex_freq_8_amplitude_1_rep_2_r_N_2.0.png	 N	 r	 b	 n.a.	 5.411922e-01
8	 4	 282	 flanked	 bex	 32	 2.000000	 2.000000	 flanked_bex_freq_32_amplitude_2_rep_6_l_D_2.0.png	 D	 l	 t	 n.a.	 3.354233e-01
8	 4	 283	 flanked	 bex	 6	 2.000000	 2.000000	 flanked_bex_freq_6_amplitude_2_rep_5_t_D_2.0.png	 D	 t	 t	 n.a.	 3.549402e-01
8	 4	 284	 flanked	 bex	 32	 0.500000	 2.000000	 flanked_bex_freq_32_amplitude_0.5_rep_9_b_D_2.0.png	 D	 b	 r	 n.a.	 3.541689e-01
8	 4	 285	 flanked	 bex	 4	 0.250000	 2.000000	 flanked_bex_freq_4_amplitude_0.25_rep_6_l_D_2.0.png	 D	 l	 l	 n.a.	 3.022815e-01
8	 4	 286	 flanked	 bex	 4	 2.500000	 2.000000	 flanked_bex_freq_4_amplitude_2.5_rep_8_b_D_2.0.png	 D	 b	 b	 n.a.	 3.415450e-01
8	 4	 287	 flanked	 bex	 6	 0.500000	 2.000000	 flanked_bex_freq_6_amplitude_0.5_rep_4_t_D_2.0.png	 D	 t	 t	 n.a.	 4.454191e-01
8	 4	 288	 flanked	 bex	 8	 2.500000	 2.000000	 flanked_bex_freq_8_amplitude_2.5_rep_8_r_N_2.0.png	 N	 r	 r	 n.a.	 2.333761e-01
8	 4	 289	 flanked	 bex	 2	 0.500000	 2.000000	 flanked_bex_freq_2_amplitude_0.5_rep_6_b_H_2.0.png	 H	 b	 t	 n.a.	 5.842816e-01
8	 4	 290	 flanked	 bex	 2	 0.250000	 2.000000	 flanked_bex_freq_2_amplitude_0.25_rep_9_t_D_2.0.png	 D	 t	 b	 n.a.	 3.012485e-01
8	 4	 291	 flanked	 bex	 16	 2.500000	 2.000000	 flanked_bex_freq_16_amplitude_2.5_rep_2_r_H_2.0.png	 H	 r	 r	 n.a.	 1.734539e-01
8	 4	 292	 flanked	 bex	 6	 0.250000	 2.000000	 flanked_bex_freq_6_amplitude_0.25_rep_6_l_H_2.0.png	 H	 l	 l	 n.a.	 4.506817e-01
8	 4	 293	 flanked	 bex	 8	 2.000000	 2.000000	 flanked_bex_freq_8_amplitude_2_rep_0_t_D_2.0.png	 D	 t	 t	 n.a.	 3.573963e-01
8	 4	 294	 flanked	 bex	 4	 3.000000	 2.000000	 flanked_bex_freq_4_amplitude_3_rep_5_r_D_2.0.png	 D	 r	 r	 n.a.	 1.873558e-01
8	 4	 295	 flanked	 bex	 8	 1.500000	 2.000000	 flanked_bex_freq_8_amplitude_1.5_rep_6_r_N_2.0.png	 N	 r	 r	 n.a.	 1.985891e-01
8	 4	 296	 flanked	 bex	 16	 1.000000	 2.000000	 flanked_bex_freq_16_amplitude_1_rep_3_l_K_2.0.png	 K	 l	 b	 n.a.	 5.818867e-01
8	 4	 297	 flanked	 bex	 4	 0.250000	 2.000000	 flanked_bex_freq_4_amplitude_0.25_rep_4_l_K_2.0.png	 K	 l	 l	 n.a.	 5.110489e-01
8	 4	 298	 flanked	 bex	 2	 1.000000	 2.000000	 flanked_bex_freq_2_amplitude_1_rep_1_b_D_2.0.png	 D	 b	 t	 n.a.	 5.279795e-01
8	 4	 299	 flanked	 bex	 6	 0.500000	 2.000000	 flanked_bex_freq_6_amplitude_0.5_rep_2_t_K_2.0.png	 K	 t	 b	 n.a.	 4.738089e-01
8	 4	 300	 flanked	 bex	 4	 3.000000	 2.000000	 flanked_bex_freq_4_amplitude_3_rep_7_b_D_2.0.png	 D	 b	 b	 n.a.	 3.032398e-01
8	 4	 301	 flanked	 bex	 4	 2.000000	 2.000000	 flanked_bex_freq_4_amplitude_2_rep_8_t_H_2.0.png	 H	 t	 r	 n.a.	 4.564344e-01
8	 4	 302	 flanked	 bex	 6	 3.000000	 2.000000	 flanked_bex_freq_6_amplitude_3_rep_2_t_D_2.0.png	 D	 t	 t	 n.a.	 2.634747e-01
8	 4	 303	 flanked	 bex	 32	 0.250000	 2.000000	 flanked_bex_freq_32_amplitude_0.25_rep_6_t_N_2.0.png	 N	 t	 b	 n.a.	 2.711191e-01
8	 4	 304	 flanked	 bex	 16	 1.000000	 2.000000	 flanked_bex_freq_16_amplitude_1_rep_9_t_D_2.0.png	 D	 t	 b	 n.a.	 3.979978e-01
8	 4	 305	 flanked	 bex	 4	 0.250000	 2.000000	 flanked_bex_freq_4_amplitude_0.25_rep_5_b_D_2.0.png	 D	 b	 l	 n.a.	 2.684536e-01
8	 4	 306	 flanked	 bex	 2	 2.000000	 2.000000	 flanked_bex_freq_2_amplitude_2_rep_4_b_N_2.0.png	 N	 b	 b	 n.a.	 3.611297e-01
8	 4	 307	 flanked	 bex	 8	 0.500000	 2.000000	 flanked_bex_freq_8_amplitude_0.5_rep_7_t_K_2.0.png	 K	 t	 t	 n.a.	 2.412553e-01
8	 4	 308	 flanked	 bex	 8	 2.500000	 2.000000	 flanked_bex_freq_8_amplitude_2.5_rep_5_r_K_2.0.png	 K	 r	 r	 n.a.	 2.154702e-01
8	 4	 309	 flanked	 bex	 16	 2.000000	 2.000000	 flanked_bex_freq_16_amplitude_2_rep_5_b_N_2.0.png	 N	 b	 r	 n.a.	 5.268509e-01
8	 4	 310	 flanked	 bex	 32	 2.000000	 2.000000	 flanked_bex_freq_32_amplitude_2_rep_9_l_N_2.0.png	 N	 l	 l	 n.a.	 3.773792e-01
8	 4	 311	 flanked	 bex	 4	 1.000000	 2.000000	 flanked_bex_freq_4_amplitude_1_rep_6_r_D_2.0.png	 D	 r	 r	 n.a.	 3.796319e-01
8	 4	 312	 flanked	 bex	 6	 0.500000	 2.000000	 flanked_bex_freq_6_amplitude_0.5_rep_3_t_K_2.0.png	 K	 t	 t	 n.a.	 3.492847e-01
8	 4	 313	 flanked	 bex	 6	 3.000000	 2.000000	 flanked_bex_freq_6_amplitude_3_rep_3_l_H_2.0.png	 H	 l	 l	 n.a.	 2.548027e-01
8	 4	 314	 flanked	 bex	 8	 0.250000	 2.000000	 flanked_bex_freq_8_amplitude_0.25_rep_3_b_D_2.0.png	 D	 b	 t	 n.a.	 3.668772e-01
8	 4	 315	 flanked	 bex	 6	 0.500000	 2.000000	 flanked_bex_freq_6_amplitude_0.5_rep_5_r_D_2.0.png	 D	 r	 r	 n.a.	 3.892826e-01
8	 4	 316	 flanked	 bex	 32	 1.000000	 2.000000	 flanked_bex_freq_32_amplitude_1_rep_6_t_D_2.0.png	 D	 t	 l	 n.a.	 3.802065e-01
8	 4	 317	 flanked	 bex	 4	 2.000000	 2.000000	 flanked_bex_freq_4_amplitude_2_rep_2_l_K_2.0.png	 K	 l	 b	 n.a.	 2.959285e-01
8	 4	 318	 flanked	 bex	 16	 0.250000	 2.000000	 flanked_bex_freq_16_amplitude_0.25_rep_3_b_D_2.0.png	 D	 b	 l	 n.a.	 3.063428e-01
8	 4	 319	 flanked	 bex	 32	 0.250000	 2.000000	 flanked_bex_freq_32_amplitude_0.25_rep_8_l_N_2.0.png	 N	 l	 b	 n.a.	 4.547504e-01
8	 4	 320	 flanked	 bex	 6	 2.500000	 2.000000	 flanked_bex_freq_6_amplitude_2.5_rep_2_r_D_2.0.png	 D	 r	 r	 n.a.	 2.007529e-01
8	 4	 321	 flanked	 bex	 4	 2.500000	 2.000000	 flanked_bex_freq_4_amplitude_2.5_rep_7_t_D_2.0.png	 D	 t	 l	 n.a.	 2.241420e-01
8	 4	 322	 flanked	 bex	 16	 0.500000	 2.000000	 flanked_bex_freq_16_amplitude_0.5_rep_2_l_H_2.0.png	 H	 l	 b	 n.a.	 1.555185e-01
8	 4	 323	 flanked	 bex	 8	 0.500000	 2.000000	 flanked_bex_freq_8_amplitude_0.5_rep_1_l_H_2.0.png	 H	 l	 t	 n.a.	 3.444474e-01
8	 4	 324	 flanked	 bex	 16	 1.500000	 2.000000	 flanked_bex_freq_16_amplitude_1.5_rep_1_l_N_2.0.png	 N	 l	 l	 n.a.	 3.241377e-01
8	 4	 325	 flanked	 bex	 8	 3.000000	 2.000000	 flanked_bex_freq_8_amplitude_3_rep_5_t_H_2.0.png	 H	 t	 t	 n.a.	 2.857408e-01
8	 4	 326	 flanked	 bex	 4	 2.500000	 2.000000	 flanked_bex_freq_4_amplitude_2.5_rep_4_l_H_2.0.png	 H	 l	 l	 n.a.	 3.912696e-01
8	 4	 327	 flanked	 bex	 32	 2.000000	 2.000000	 flanked_bex_freq_32_amplitude_2_rep_3_b_K_2.0.png	 K	 b	 b	 n.a.	 3.324868e-01
8	 4	 328	 flanked	 bex	 4	 2.500000	 2.000000	 flanked_bex_freq_4_amplitude_2.5_rep_5_r_H_2.0.png	 H	 r	 r	 n.a.	 3.078504e-01
8	 4	 329	 flanked	 bex	 4	 0.250000	 2.000000	 flanked_bex_freq_4_amplitude_0.25_rep_2_l_H_2.0.png	 H	 l	 b	 n.a.	 3.889670e-01
8	 4	 330	 flanked	 bex	 2	 0.250000	 2.000000	 flanked_bex_freq_2_amplitude_0.25_rep_7_r_H_2.0.png	 H	 r	 l	 n.a.	 3.558567e-01
8	 4	 331	 flanked	 bex	 16	 0.500000	 2.000000	 flanked_bex_freq_16_amplitude_0.5_rep_5_r_N_2.0.png	 N	 r	 t	 n.a.	 3.515272e-01
8	 4	 332	 flanked	 bex	 4	 0.250000	 2.000000	 flanked_bex_freq_4_amplitude_0.25_rep_9_b_N_2.0.png	 N	 b	 r	 n.a.	 2.809505e-01
8	 4	 333	 flanked	 bex	 32	 1.000000	 2.000000	 flanked_bex_freq_32_amplitude_1_rep_8_t_K_2.0.png	 K	 t	 t	 n.a.	 3.563397e-01
8	 4	 334	 flanked	 bex	 8	 3.000000	 2.000000	 flanked_bex_freq_8_amplitude_3_rep_8_t_N_2.0.png	 N	 t	 t	 n.a.	 2.968160e-01
8	 4	 335	 flanked	 bex	 16	 3.000000	 2.000000	 flanked_bex_freq_16_amplitude_3_rep_8_b_H_2.0.png	 H	 b	 b	 n.a.	 4.441035e-01
8	 4	 336	 flanked	 bex	 2	 2.000000	 2.000000	 flanked_bex_freq_2_amplitude_2_rep_6_t_N_2.0.png	 N	 t	 t	 n.a.	 3.377967e-01
8	 4	 337	 flanked	 bex	 8	 0.250000	 2.000000	 flanked_bex_freq_8_amplitude_0.25_rep_8_r_H_2.0.png	 H	 r	 b	 n.a.	 3.875733e-01
8	 4	 338	 flanked	 bex	 8	 2.500000	 2.000000	 flanked_bex_freq_8_amplitude_2.5_rep_2_l_D_2.0.png	 D	 l	 l	 n.a.	 2.059271e-01
8	 4	 339	 flanked	 bex	 6	 1.500000	 2.000000	 flanked_bex_freq_6_amplitude_1.5_rep_9_b_H_2.0.png	 H	 b	 b	 n.a.	 3.669825e-01
8	 4	 340	 flanked	 bex	 16	 2.000000	 2.000000	 flanked_bex_freq_16_amplitude_2_rep_7_t_D_2.0.png	 D	 t	 t	 n.a.	 3.363060e-01
8	 4	 341	 flanked	 bex	 16	 0.250000	 2.000000	 flanked_bex_freq_16_amplitude_0.25_rep_1_t_D_2.0.png	 D	 t	 r	 n.a.	 3.466592e-01
8	 4	 342	 flanked	 bex	 32	 2.500000	 2.000000	 flanked_bex_freq_32_amplitude_2.5_rep_8_b_H_2.0.png	 H	 b	 b	 n.a.	 3.575198e-01
8	 4	 343	 flanked	 bex	 8	 2.000000	 2.000000	 flanked_bex_freq_8_amplitude_2_rep_9_l_D_2.0.png	 D	 l	 l	 n.a.	 1.974979e-01
8	 4	 344	 flanked	 bex	 16	 0.250000	 2.000000	 flanked_bex_freq_16_amplitude_0.25_rep_5_t_H_2.0.png	 H	 t	 l	 n.a.	 5.806317e-01
8	 4	 345	 flanked	 bex	 6	 3.000000	 2.000000	 flanked_bex_freq_6_amplitude_3_rep_6_l_D_2.0.png	 D	 l	 l	 n.a.	 2.852240e-01
8	 4	 346	 flanked	 bex	 32	 0.250000	 2.000000	 flanked_bex_freq_32_amplitude_0.25_rep_0_r_N_2.0.png	 N	 r	 t	 n.a.	 3.737152e-01
8	 4	 347	 flanked	 bex	 4	 2.000000	 2.000000	 flanked_bex_freq_4_amplitude_2_rep_1_t_D_2.0.png	 D	 t	 b	 n.a.	 3.885073e-01
8	 4	 348	 flanked	 bex	 8	 1.500000	 2.000000	 flanked_bex_freq_8_amplitude_1.5_rep_5_l_N_2.0.png	 N	 l	 l	 n.a.	 5.115636e-01
8	 4	 349	 flanked	 bex	 8	 1.500000	 2.000000	 flanked_bex_freq_8_amplitude_1.5_rep_1_b_H_2.0.png	 H	 b	 b	 n.a.	 3.279729e-01
8	 4	 350	 flanked	 bex	 8	 0.250000	 2.000000	 flanked_bex_freq_8_amplitude_0.25_rep_6_b_K_2.0.png	 K	 b	 t	 n.a.	 6.619830e-01
8	 4	 351	 flanked	 bex	 2	 1.500000	 2.000000	 flanked_bex_freq_2_amplitude_1.5_rep_1_b_K_2.0.png	 K	 b	 t	 n.a.	 3.004320e-01
8	 4	 352	 flanked	 bex	 6	 2.000000	 2.000000	 flanked_bex_freq_6_amplitude_2_rep_7_t_N_2.0.png	 N	 t	 r	 n.a.	 2.928959e-01
8	 4	 353	 flanked	 bex	 6	 0.250000	 2.000000	 flanked_bex_freq_6_amplitude_0.25_rep_7_l_K_2.0.png	 K	 l	 b	 n.a.	 3.160797e-01
8	 4	 354	 flanked	 bex	 8	 1.000000	 2.000000	 flanked_bex_freq_8_amplitude_1_rep_5_r_N_2.0.png	 N	 r	 t	 n.a.	 2.200981e-01
8	 4	 355	 flanked	 bex	 2	 0.500000	 2.000000	 flanked_bex_freq_2_amplitude_0.5_rep_8_r_N_2.0.png	 N	 r	 b	 n.a.	 3.675016e-01
8	 4	 356	 flanked	 bex	 32	 1.500000	 2.000000	 flanked_bex_freq_32_amplitude_1.5_rep_6_l_N_2.0.png	 N	 l	 l	 n.a.	 3.840926e-01
8	 4	 357	 flanked	 bex	 16	 3.000000	 2.000000	 flanked_bex_freq_16_amplitude_3_rep_4_r_H_2.0.png	 H	 r	 r	 n.a.	 2.573789e-01
8	 4	 358	 flanked	 bex	 6	 2.000000	 2.000000	 flanked_bex_freq_6_amplitude_2_rep_9_t_H_2.0.png	 H	 t	 t	 n.a.	 3.197648e-01
8	 4	 359	 flanked	 bex	 8	 1.000000	 2.000000	 flanked_bex_freq_8_amplitude_1_rep_0_r_H_2.0.png	 H	 r	 b	 n.a.	 2.943465e-01
8	 4	 360	 flanked	 bex	 4	 1.000000	 2.000000	 flanked_bex_freq_4_amplitude_1_rep_1_r_N_2.0.png	 N	 r	 r	 n.a.	 3.001053e-01
8	 4	 361	 flanked	 bex	 16	 1.000000	 2.000000	 flanked_bex_freq_16_amplitude_1_rep_1_l_K_2.0.png	 K	 l	 t	 n.a.	 3.953280e-01
8	 4	 362	 flanked	 bex	 4	 0.500000	 2.000000	 flanked_bex_freq_4_amplitude_0.5_rep_3_l_K_2.0.png	 K	 l	 b	 n.a.	 5.691455e-01
8	 4	 363	 flanked	 bex	 32	 1.500000	 2.000000	 flanked_bex_freq_32_amplitude_1.5_rep_7_t_H_2.0.png	 H	 t	 t	 n.a.	 3.576757e-01
8	 4	 364	 flanked	 bex	 6	 3.000000	 2.000000	 flanked_bex_freq_6_amplitude_3_rep_0_b_K_2.0.png	 K	 b	 b	 n.a.	 2.930910e-01
8	 4	 365	 flanked	 bex	 8	 0.250000	 2.000000	 flanked_bex_freq_8_amplitude_0.25_rep_7_l_H_2.0.png	 H	 l	 l	 n.a.	 4.130248e-01
8	 4	 366	 flanked	 bex	 2	 1.000000	 2.000000	 flanked_bex_freq_2_amplitude_1_rep_5_r_N_2.0.png	 N	 r	 r	 n.a.	 6.770430e-01
8	 4	 367	 flanked	 bex	 8	 2.500000	 2.000000	 flanked_bex_freq_8_amplitude_2.5_rep_6_t_H_2.0.png	 H	 t	 t	 n.a.	 4.016061e-01
8	 4	 368	 flanked	 bex	 16	 3.000000	 2.000000	 flanked_bex_freq_16_amplitude_3_rep_7_r_H_2.0.png	 H	 r	 r	 n.a.	 2.559867e-01
8	 4	 369	 flanked	 bex	 16	 2.500000	 2.000000	 flanked_bex_freq_16_amplitude_2.5_rep_8_l_N_2.0.png	 N	 l	 l	 n.a.	 2.509288e-01
8	 4	 370	 flanked	 bex	 32	 3.000000	 2.000000	 flanked_bex_freq_32_amplitude_3_rep_7_b_D_2.0.png	 D	 b	 t	 n.a.	 2.768914e-01
8	 4	 371	 flanked	 bex	 32	 2.500000	 2.000000	 flanked_bex_freq_32_amplitude_2.5_rep_2_b_H_2.0.png	 H	 b	 b	 n.a.	 2.507792e-01
8	 4	 372	 flanked	 bex	 4	 0.500000	 2.000000	 flanked_bex_freq_4_amplitude_0.5_rep_2_r_N_2.0.png	 N	 r	 l	 n.a.	 3.795902e-01
8	 4	 373	 flanked	 bex	 32	 0.250000	 2.000000	 flanked_bex_freq_32_amplitude_0.25_rep_1_t_K_2.0.png	 K	 t	 r	 n.a.	 3.136571e-01
8	 4	 374	 flanked	 bex	 2	 2.500000	 2.000000	 flanked_bex_freq_2_amplitude_2.5_rep_8_r_H_2.0.png	 H	 r	 b	 n.a.	 2.226396e-01
8	 4	 375	 flanked	 bex	 16	 2.000000	 2.000000	 flanked_bex_freq_16_amplitude_2_rep_1_b_K_2.0.png	 K	 b	 l	 n.a.	 3.990803e-01
8	 4	 376	 flanked	 bex	 32	 0.250000	 2.000000	 flanked_bex_freq_32_amplitude_0.25_rep_5_r_K_2.0.png	 K	 r	 b	 n.a.	 4.374705e-01
8	 4	 377	 flanked	 bex	 4	 1.000000	 2.000000	 flanked_bex_freq_4_amplitude_1_rep_3_b_H_2.0.png	 H	 b	 b	 n.a.	 3.190914e-01
8	 4	 378	 flanked	 bex	 6	 0.250000	 2.000000	 flanked_bex_freq_6_amplitude_0.25_rep_3_t_K_2.0.png	 K	 t	 t	 n.a.	 2.770077e-01
8	 4	 379	 flanked	 bex	 8	 2.000000	 2.000000	 flanked_bex_freq_8_amplitude_2_rep_5_t_D_2.0.png	 D	 t	 t	 n.a.	 3.217153e-01
8	 4	 380	 flanked	 bex	 4	 0.500000	 2.000000	 flanked_bex_freq_4_amplitude_0.5_rep_8_l_H_2.0.png	 H	 l	 l	 n.a.	 2.439459e-01
8	 4	 381	 flanked	 bex	 16	 0.250000	 2.000000	 flanked_bex_freq_16_amplitude_0.25_rep_9_b_N_2.0.png	 N	 b	 t	 n.a.	 3.270116e-01
8	 4	 382	 flanked	 bex	 4	 0.500000	 2.000000	 flanked_bex_freq_4_amplitude_0.5_rep_7_t_K_2.0.png	 K	 t	 b	 n.a.	 3.068511e-01
8	 4	 383	 flanked	 bex	 6	 3.000000	 2.000000	 flanked_bex_freq_6_amplitude_3_rep_1_b_N_2.0.png	 N	 b	 b	 n.a.	 3.151393e-01
8	 4	 384	 flanked	 bex	 8	 1.000000	 2.000000	 flanked_bex_freq_8_amplitude_1_rep_1_t_H_2.0.png	 H	 t	 t	 n.a.	 2.946608e-01
8	 4	 385	 flanked	 bex	 32	 0.500000	 2.000000	 flanked_bex_freq_32_amplitude_0.5_rep_8_b_N_2.0.png	 N	 b	 r	 n.a.	 4.933102e-01
8	 4	 386	 flanked	 bex	 2	 0.250000	 2.000000	 flanked_bex_freq_2_amplitude_0.25_rep_0_l_K_2.0.png	 K	 l	 b	 n.a.	 2.911785e-01
8	 4	 387	 flanked	 bex	 32	 2.000000	 2.000000	 flanked_bex_freq_32_amplitude_2_rep_7_b_K_2.0.png	 K	 b	 b	 n.a.	 2.605130e-01
8	 4	 388	 flanked	 bex	 6	 1.000000	 2.000000	 flanked_bex_freq_6_amplitude_1_rep_7_l_D_2.0.png	 D	 l	 b	 n.a.	 3.137878e-01
8	 4	 389	 flanked	 bex	 16	 1.000000	 2.000000	 flanked_bex_freq_16_amplitude_1_rep_5_l_D_2.0.png	 D	 l	 t	 n.a.	 2.941543e-01
8	 4	 390	 flanked	 bex	 4	 2.000000	 2.000000	 flanked_bex_freq_4_amplitude_2_rep_0_t_H_2.0.png	 H	 t	 t	 n.a.	 4.029786e-01
8	 4	 391	 flanked	 bex	 2	 0.500000	 2.000000	 flanked_bex_freq_2_amplitude_0.5_rep_2_b_K_2.0.png	 K	 b	 r	 n.a.	 2.956817e-01
8	 4	 392	 flanked	 bex	 2	 2.500000	 2.000000	 flanked_bex_freq_2_amplitude_2.5_rep_9_r_N_2.0.png	 N	 r	 r	 n.a.	 3.552057e-01
8	 4	 393	 flanked	 bex	 2	 0.500000	 2.000000	 flanked_bex_freq_2_amplitude_0.5_rep_5_l_D_2.0.png	 D	 l	 l	 n.a.	 3.099608e-01
8	 4	 394	 flanked	 bex	 6	 0.250000	 2.000000	 flanked_bex_freq_6_amplitude_0.25_rep_2_l_D_2.0.png	 D	 l	 b	 n.a.	 3.760854e-01
8	 4	 395	 flanked	 bex	 16	 0.500000	 2.000000	 flanked_bex_freq_16_amplitude_0.5_rep_4_r_K_2.0.png	 K	 r	 l	 n.a.	 4.219251e-01
8	 4	 396	 flanked	 bex	 8	 1.000000	 2.000000	 flanked_bex_freq_8_amplitude_1_rep_7_t_D_2.0.png	 D	 t	 b	 n.a.	 4.047248e-01
8	 4	 397	 flanked	 bex	 32	 0.250000	 2.000000	 flanked_bex_freq_32_amplitude_0.25_rep_9_t_H_2.0.png	 H	 t	 t	 n.a.	 3.798182e-01
8	 4	 398	 flanked	 bex	 2	 3.000000	 2.000000	 flanked_bex_freq_2_amplitude_3_rep_9_r_N_2.0.png	 N	 r	 l	 n.a.	 4.258223e-01
8	 4	 399	 flanked	 bex	 4	 1.500000	 2.000000	 flanked_bex_freq_4_amplitude_1.5_rep_9_b_K_2.0.png	 K	 b	 b	 n.a.	 2.579765e-01
8	 4	 400	 flanked	 bex	 6	 2.500000	 2.000000	 flanked_bex_freq_6_amplitude_2.5_rep_4_t_K_2.0.png	 K	 t	 t	 n.a.	 2.969350e-01
8	 4	 401	 flanked	 bex	 4	 0.250000	 2.000000	 flanked_bex_freq_4_amplitude_0.25_rep_1_l_H_2.0.png	 H	 l	 r	 n.a.	 2.906608e-01
8	 4	 402	 flanked	 bex	 6	 1.000000	 2.000000	 flanked_bex_freq_6_amplitude_1_rep_3_r_D_2.0.png	 D	 r	 r	 n.a.	 3.280363e-01
8	 4	 403	 flanked	 bex	 16	 1.000000	 2.000000	 flanked_bex_freq_16_amplitude_1_rep_2_l_K_2.0.png	 K	 l	 r	 n.a.	 2.512010e-01
8	 4	 404	 flanked	 bex	 16	 1.500000	 2.000000	 flanked_bex_freq_16_amplitude_1.5_rep_3_t_H_2.0.png	 H	 t	 l	 n.a.	 2.561391e-01
8	 4	 405	 flanked	 bex	 32	 1.500000	 2.000000	 flanked_bex_freq_32_amplitude_1.5_rep_8_l_D_2.0.png	 D	 l	 b	 n.a.	 3.114649e-01
8	 4	 406	 flanked	 bex	 16	 1.500000	 2.000000	 flanked_bex_freq_16_amplitude_1.5_rep_5_t_H_2.0.png	 H	 t	 r	 n.a.	 2.704596e-01
8	 4	 407	 flanked	 bex	 16	 3.000000	 2.000000	 flanked_bex_freq_16_amplitude_3_rep_2_r_N_2.0.png	 N	 r	 r	 n.a.	 2.607886e-01
8	 4	 408	 flanked	 bex	 6	 2.000000	 2.000000	 flanked_bex_freq_6_amplitude_2_rep_8_r_D_2.0.png	 D	 r	 r	 n.a.	 2.191255e-01
8	 4	 409	 flanked	 bex	 6	 0.250000	 2.000000	 flanked_bex_freq_6_amplitude_0.25_rep_8_l_D_2.0.png	 D	 l	 b	 n.a.	 3.700493e-01
8	 4	 410	 flanked	 bex	 8	 0.500000	 2.000000	 flanked_bex_freq_8_amplitude_0.5_rep_6_t_N_2.0.png	 N	 t	 t	 n.a.	 3.248859e-01
8	 4	 411	 flanked	 bex	 8	 2.500000	 2.000000	 flanked_bex_freq_8_amplitude_2.5_rep_9_b_K_2.0.png	 K	 b	 b	 n.a.	 2.845994e-01
8	 4	 412	 flanked	 bex	 6	 1.000000	 2.000000	 flanked_bex_freq_6_amplitude_1_rep_0_t_K_2.0.png	 K	 t	 t	 n.a.	 2.684553e-01
8	 4	 413	 flanked	 bex	 32	 3.000000	 2.000000	 flanked_bex_freq_32_amplitude_3_rep_0_t_H_2.0.png	 H	 t	 b	 n.a.	 2.645757e-01
8	 4	 414	 flanked	 bex	 2	 0.250000	 2.000000	 flanked_bex_freq_2_amplitude_0.25_rep_1_t_D_2.0.png	 D	 t	 r	 n.a.	 2.987962e-01
8	 4	 415	 flanked	 bex	 6	 3.000000	 2.000000	 flanked_bex_freq_6_amplitude_3_rep_8_b_D_2.0.png	 D	 b	 b	 n.a.	 2.990676e-01
8	 4	 416	 flanked	 bex	 16	 0.250000	 2.000000	 flanked_bex_freq_16_amplitude_0.25_rep_0_b_K_2.0.png	 K	 b	 t	 n.a.	 3.800127e-01
8	 4	 417	 flanked	 bex	 16	 1.000000	 2.000000	 flanked_bex_freq_16_amplitude_1_rep_0_t_K_2.0.png	 K	 t	 t	 n.a.	 3.684573e-01
8	 4	 418	 flanked	 bex	 8	 3.000000	 2.000000	 flanked_bex_freq_8_amplitude_3_rep_6_r_H_2.0.png	 H	 r	 r	 n.a.	 2.136208e-01
8	 4	 419	 flanked	 bex	 16	 1.500000	 2.000000	 flanked_bex_freq_16_amplitude_1.5_rep_2_l_N_2.0.png	 N	 l	 l	 n.a.	 2.357307e-01
8	 4	 420	 flanked	 bex	 32	 2.500000	 2.000000	 flanked_bex_freq_32_amplitude_2.5_rep_9_l_N_2.0.png	 N	 l	 l	 n.a.	 2.705323e-01
