subject	 session	 trial	 flanked	 distortion	 freq	 amplitude	 spacing	 im_name	 targ_letter	 targ_pos	 response	 eyemovement	 RT
9	 3	 1	 flanked	 bex	 4	 2.500000	 2.000000	 flanked_bex_freq_4_amplitude_2.5_rep_0_t_K_2.0.png	 K	 t	 l	 n.a.	 4.551589e-01
9	 3	 2	 flanked	 bex	 2	 2.500000	 2.000000	 flanked_bex_freq_2_amplitude_2.5_rep_5_t_N_2.0.png	 N	 t	 b	 n.a.	 4.600845e-01
9	 3	 3	 flanked	 bex	 32	 1.000000	 2.000000	 flanked_bex_freq_32_amplitude_1_rep_4_r_N_2.0.png	 N	 r	 t	 n.a.	 4.163335e-01
9	 3	 4	 flanked	 bex	 2	 2.500000	 2.000000	 flanked_bex_freq_2_amplitude_2.5_rep_3_b_K_2.0.png	 K	 b	 b	 n.a.	 3.351222e-01
9	 3	 5	 flanked	 bex	 2	 0.250000	 2.000000	 flanked_bex_freq_2_amplitude_0.25_rep_1_t_D_2.0.png	 D	 t	 b	 n.a.	 6.162710e-01
9	 3	 6	 flanked	 bex	 4	 0.250000	 2.000000	 flanked_bex_freq_4_amplitude_0.25_rep_7_b_D_2.0.png	 D	 b	 l	 n.a.	 4.234854e-01
9	 3	 7	 flanked	 bex	 32	 1.000000	 2.000000	 flanked_bex_freq_32_amplitude_1_rep_9_t_K_2.0.png	 K	 t	 t	 n.a.	 4.405397e-01
9	 3	 8	 flanked	 bex	 32	 1.000000	 2.000000	 flanked_bex_freq_32_amplitude_1_rep_1_b_K_2.0.png	 K	 b	 r	 n.a.	 6.907171e-01
9	 3	 9	 flanked	 bex	 6	 0.250000	 2.000000	 flanked_bex_freq_6_amplitude_0.25_rep_3_t_K_2.0.png	 K	 t	 t	 n.a.	 4.421586e-01
9	 3	 10	 flanked	 bex	 6	 2.000000	 2.000000	 flanked_bex_freq_6_amplitude_2_rep_1_t_K_2.0.png	 K	 t	 t	 n.a.	 4.152224e-01
9	 3	 11	 flanked	 bex	 16	 2.500000	 2.000000	 flanked_bex_freq_16_amplitude_2.5_rep_0_l_K_2.0.png	 K	 l	 l	 n.a.	 2.668397e-01
9	 3	 12	 flanked	 bex	 32	 3.000000	 2.000000	 flanked_bex_freq_32_amplitude_3_rep_7_b_D_2.0.png	 D	 b	 t	 n.a.	 4.382191e-01
9	 3	 13	 flanked	 bex	 6	 0.250000	 2.000000	 flanked_bex_freq_6_amplitude_0.25_rep_9_l_K_2.0.png	 K	 l	 b	 n.a.	 1.052203e+00
9	 3	 14	 flanked	 bex	 4	 0.250000	 2.000000	 flanked_bex_freq_4_amplitude_0.25_rep_2_l_H_2.0.png	 H	 l	 t	 n.a.	 7.096446e-01
9	 3	 15	 flanked	 bex	 32	 1.000000	 2.000000	 flanked_bex_freq_32_amplitude_1_rep_5_b_N_2.0.png	 N	 b	 t	 n.a.	 7.474931e-01
9	 3	 16	 flanked	 bex	 8	 2.500000	 2.000000	 flanked_bex_freq_8_amplitude_2.5_rep_1_l_D_2.0.png	 D	 l	 t	 n.a.	 9.324676e-01
9	 3	 17	 flanked	 bex	 4	 1.000000	 2.000000	 flanked_bex_freq_4_amplitude_1_rep_8_t_H_2.0.png	 H	 t	 l	 n.a.	 5.518505e-01
9	 3	 18	 flanked	 bex	 16	 0.500000	 2.000000	 flanked_bex_freq_16_amplitude_0.5_rep_7_l_N_2.0.png	 N	 l	 t	 n.a.	 3.695922e-01
9	 3	 19	 flanked	 bex	 4	 1.500000	 2.000000	 flanked_bex_freq_4_amplitude_1.5_rep_7_b_H_2.0.png	 H	 b	 t	 n.a.	 4.628496e-01
9	 3	 20	 flanked	 bex	 32	 1.500000	 2.000000	 flanked_bex_freq_32_amplitude_1.5_rep_5_l_N_2.0.png	 N	 l	 b	 n.a.	 2.878996e-01
9	 3	 21	 flanked	 bex	 32	 1.500000	 2.000000	 flanked_bex_freq_32_amplitude_1.5_rep_6_l_N_2.0.png	 N	 l	 t	 n.a.	 3.498192e-01
9	 3	 22	 flanked	 bex	 16	 2.000000	 2.000000	 flanked_bex_freq_16_amplitude_2_rep_1_b_K_2.0.png	 K	 b	 l	 n.a.	 9.363429e-01
9	 3	 23	 flanked	 bex	 8	 2.500000	 2.000000	 flanked_bex_freq_8_amplitude_2.5_rep_2_l_D_2.0.png	 D	 l	 l	 n.a.	 2.710570e-01
9	 3	 24	 flanked	 bex	 6	 0.500000	 2.000000	 flanked_bex_freq_6_amplitude_0.5_rep_3_t_K_2.0.png	 K	 t	 t	 n.a.	 4.340183e-01
9	 3	 25	 flanked	 bex	 6	 1.000000	 2.000000	 flanked_bex_freq_6_amplitude_1_rep_3_r_D_2.0.png	 D	 r	 t	 n.a.	 4.554015e-01
9	 3	 26	 flanked	 bex	 8	 0.250000	 2.000000	 flanked_bex_freq_8_amplitude_0.25_rep_6_b_K_2.0.png	 K	 b	 b	 n.a.	 5.811628e-01
9	 3	 27	 flanked	 bex	 8	 1.500000	 2.000000	 flanked_bex_freq_8_amplitude_1.5_rep_2_b_D_2.0.png	 D	 b	 t	 n.a.	 5.234153e-01
9	 3	 28	 flanked	 bex	 6	 2.000000	 2.000000	 flanked_bex_freq_6_amplitude_2_rep_7_t_N_2.0.png	 N	 t	 t	 n.a.	 3.803797e-01
9	 3	 29	 flanked	 bex	 2	 3.000000	 2.000000	 flanked_bex_freq_2_amplitude_3_rep_9_r_N_2.0.png	 N	 r	 t	 n.a.	 6.126278e-01
9	 3	 30	 flanked	 bex	 32	 0.500000	 2.000000	 flanked_bex_freq_32_amplitude_0.5_rep_7_t_D_2.0.png	 D	 t	 l	 n.a.	 3.218228e-01
9	 3	 31	 flanked	 bex	 16	 0.500000	 2.000000	 flanked_bex_freq_16_amplitude_0.5_rep_1_l_D_2.0.png	 D	 l	 b	 n.a.	 3.982894e-01
9	 3	 32	 flanked	 bex	 2	 2.500000	 2.000000	 flanked_bex_freq_2_amplitude_2.5_rep_1_t_H_2.0.png	 H	 t	 t	 n.a.	 3.601551e-01
9	 3	 33	 flanked	 bex	 8	 3.000000	 2.000000	 flanked_bex_freq_8_amplitude_3_rep_4_r_D_2.0.png	 D	 r	 r	 n.a.	 2.970996e-01
9	 3	 34	 flanked	 bex	 2	 0.500000	 2.000000	 flanked_bex_freq_2_amplitude_0.5_rep_2_b_K_2.0.png	 K	 b	 b	 n.a.	 3.676403e-01
9	 3	 35	 flanked	 bex	 2	 2.000000	 2.000000	 flanked_bex_freq_2_amplitude_2_rep_1_b_D_2.0.png	 D	 b	 t	 n.a.	 4.893586e-01
9	 3	 36	 flanked	 bex	 8	 1.000000	 2.000000	 flanked_bex_freq_8_amplitude_1_rep_8_r_K_2.0.png	 K	 r	 t	 n.a.	 3.795234e-01
9	 3	 37	 flanked	 bex	 8	 0.250000	 2.000000	 flanked_bex_freq_8_amplitude_0.25_rep_3_b_D_2.0.png	 D	 b	 t	 n.a.	 2.995234e-01
9	 3	 38	 flanked	 bex	 6	 3.000000	 2.000000	 flanked_bex_freq_6_amplitude_3_rep_2_t_D_2.0.png	 D	 t	 t	 n.a.	 2.999700e-01
9	 3	 39	 flanked	 bex	 32	 1.500000	 2.000000	 flanked_bex_freq_32_amplitude_1.5_rep_7_t_H_2.0.png	 H	 t	 t	 n.a.	 3.864682e-01
9	 3	 40	 flanked	 bex	 6	 1.500000	 2.000000	 flanked_bex_freq_6_amplitude_1.5_rep_9_b_H_2.0.png	 H	 b	 t	 n.a.	 3.667100e-01
9	 3	 41	 flanked	 bex	 4	 3.000000	 2.000000	 flanked_bex_freq_4_amplitude_3_rep_6_l_H_2.0.png	 H	 l	 l	 n.a.	 2.988868e-01
9	 3	 42	 flanked	 bex	 32	 0.500000	 2.000000	 flanked_bex_freq_32_amplitude_0.5_rep_9_b_D_2.0.png	 D	 b	 t	 n.a.	 2.810358e-01
9	 3	 43	 flanked	 bex	 2	 0.250000	 2.000000	 flanked_bex_freq_2_amplitude_0.25_rep_8_b_K_2.0.png	 K	 b	 l	 n.a.	 4.794020e-01
9	 3	 44	 flanked	 bex	 8	 0.500000	 2.000000	 flanked_bex_freq_8_amplitude_0.5_rep_7_t_K_2.0.png	 K	 t	 t	 n.a.	 2.618793e-01
9	 3	 45	 flanked	 bex	 8	 0.500000	 2.000000	 flanked_bex_freq_8_amplitude_0.5_rep_6_t_N_2.0.png	 N	 t	 t	 n.a.	 5.935961e-01
9	 3	 46	 flanked	 bex	 32	 3.000000	 2.000000	 flanked_bex_freq_32_amplitude_3_rep_9_l_D_2.0.png	 D	 l	 l	 n.a.	 5.841201e-01
9	 3	 47	 flanked	 bex	 2	 1.500000	 2.000000	 flanked_bex_freq_2_amplitude_1.5_rep_1_b_K_2.0.png	 K	 b	 t	 n.a.	 4.735810e-01
9	 3	 48	 flanked	 bex	 16	 2.000000	 2.000000	 flanked_bex_freq_16_amplitude_2_rep_0_r_N_2.0.png	 N	 r	 r	 n.a.	 3.021262e-01
9	 3	 49	 flanked	 bex	 6	 1.000000	 2.000000	 flanked_bex_freq_6_amplitude_1_rep_2_l_H_2.0.png	 H	 l	 l	 n.a.	 5.575606e-01
9	 3	 50	 flanked	 bex	 2	 2.000000	 2.000000	 flanked_bex_freq_2_amplitude_2_rep_6_t_N_2.0.png	 N	 t	 b	 n.a.	 5.779961e-01
9	 3	 51	 flanked	 bex	 4	 3.000000	 2.000000	 flanked_bex_freq_4_amplitude_3_rep_3_r_D_2.0.png	 D	 r	 r	 n.a.	 2.953782e-01
9	 3	 52	 flanked	 bex	 32	 3.000000	 2.000000	 flanked_bex_freq_32_amplitude_3_rep_5_l_K_2.0.png	 K	 l	 l	 n.a.	 4.813625e-01
9	 3	 53	 flanked	 bex	 32	 1.000000	 2.000000	 flanked_bex_freq_32_amplitude_1_rep_8_t_K_2.0.png	 K	 t	 t	 n.a.	 3.021110e-01
9	 3	 54	 flanked	 bex	 6	 1.500000	 2.000000	 flanked_bex_freq_6_amplitude_1.5_rep_7_b_H_2.0.png	 H	 b	 t	 n.a.	 5.821415e-01
9	 3	 55	 flanked	 bex	 8	 2.000000	 2.000000	 flanked_bex_freq_8_amplitude_2_rep_3_b_D_2.0.png	 D	 b	 b	 n.a.	 3.871929e-01
9	 3	 56	 flanked	 bex	 2	 3.000000	 2.000000	 flanked_bex_freq_2_amplitude_3_rep_0_l_H_2.0.png	 H	 l	 l	 n.a.	 3.049714e-01
9	 3	 57	 flanked	 bex	 2	 1.500000	 2.000000	 flanked_bex_freq_2_amplitude_1.5_rep_9_t_D_2.0.png	 D	 t	 b	 n.a.	 4.567028e-01
9	 3	 58	 flanked	 bex	 2	 2.500000	 2.000000	 flanked_bex_freq_2_amplitude_2.5_rep_7_l_K_2.0.png	 K	 l	 l	 n.a.	 2.421854e-01
9	 3	 59	 flanked	 bex	 16	 2.500000	 2.000000	 flanked_bex_freq_16_amplitude_2.5_rep_2_r_H_2.0.png	 H	 r	 r	 n.a.	 3.004553e-01
9	 3	 60	 flanked	 bex	 8	 2.000000	 2.000000	 flanked_bex_freq_8_amplitude_2_rep_7_l_D_2.0.png	 D	 l	 l	 n.a.	 2.524889e-01
9	 3	 61	 flanked	 bex	 4	 3.000000	 2.000000	 flanked_bex_freq_4_amplitude_3_rep_7_b_D_2.0.png	 D	 b	 b	 n.a.	 4.244406e-01
9	 3	 62	 flanked	 bex	 6	 1.500000	 2.000000	 flanked_bex_freq_6_amplitude_1.5_rep_4_r_H_2.0.png	 H	 r	 l	 n.a.	 2.145675e-01
9	 3	 63	 flanked	 bex	 4	 2.000000	 2.000000	 flanked_bex_freq_4_amplitude_2_rep_2_l_K_2.0.png	 K	 l	 l	 n.a.	 6.003321e-01
9	 3	 64	 flanked	 bex	 32	 2.500000	 2.000000	 flanked_bex_freq_32_amplitude_2.5_rep_2_b_H_2.0.png	 H	 b	 b	 n.a.	 3.971169e-01
9	 3	 65	 flanked	 bex	 16	 2.500000	 2.000000	 flanked_bex_freq_16_amplitude_2.5_rep_7_r_D_2.0.png	 D	 r	 r	 n.a.	 3.041769e-01
9	 3	 66	 flanked	 bex	 8	 2.000000	 2.000000	 flanked_bex_freq_8_amplitude_2_rep_6_t_K_2.0.png	 K	 t	 t	 n.a.	 2.967927e-01
9	 3	 67	 flanked	 bex	 2	 0.500000	 2.000000	 flanked_bex_freq_2_amplitude_0.5_rep_5_l_D_2.0.png	 D	 l	 b	 n.a.	 3.790476e-01
9	 3	 68	 flanked	 bex	 6	 3.000000	 2.000000	 flanked_bex_freq_6_amplitude_3_rep_1_b_N_2.0.png	 N	 b	 b	 n.a.	 3.033949e-01
9	 3	 69	 flanked	 bex	 4	 0.250000	 2.000000	 flanked_bex_freq_4_amplitude_0.25_rep_1_l_H_2.0.png	 H	 l	 b	 n.a.	 4.531991e-01
9	 3	 70	 flanked	 bex	 2	 2.500000	 2.000000	 flanked_bex_freq_2_amplitude_2.5_rep_9_r_N_2.0.png	 N	 r	 b	 n.a.	 3.369963e-01
9	 3	 71	 flanked	 bex	 4	 2.000000	 2.000000	 flanked_bex_freq_4_amplitude_2_rep_7_t_D_2.0.png	 D	 t	 l	 n.a.	 4.359406e-01
9	 3	 72	 flanked	 bex	 32	 2.500000	 2.000000	 flanked_bex_freq_32_amplitude_2.5_rep_8_b_H_2.0.png	 H	 b	 l	 n.a.	 2.914541e-01
9	 3	 73	 flanked	 bex	 16	 3.000000	 2.000000	 flanked_bex_freq_16_amplitude_3_rep_5_r_K_2.0.png	 K	 r	 r	 n.a.	 2.594177e-01
9	 3	 74	 flanked	 bex	 4	 1.500000	 2.000000	 flanked_bex_freq_4_amplitude_1.5_rep_1_l_N_2.0.png	 N	 l	 t	 n.a.	 3.439269e-01
9	 3	 75	 flanked	 bex	 32	 0.500000	 2.000000	 flanked_bex_freq_32_amplitude_0.5_rep_8_b_N_2.0.png	 N	 b	 r	 n.a.	 3.798423e-01
9	 3	 76	 flanked	 bex	 16	 1.000000	 2.000000	 flanked_bex_freq_16_amplitude_1_rep_1_l_K_2.0.png	 K	 l	 b	 n.a.	 5.419662e-01
9	 3	 77	 flanked	 bex	 6	 1.000000	 2.000000	 flanked_bex_freq_6_amplitude_1_rep_8_b_D_2.0.png	 D	 b	 b	 n.a.	 4.178803e-01
9	 3	 78	 flanked	 bex	 16	 0.250000	 2.000000	 flanked_bex_freq_16_amplitude_0.25_rep_1_t_D_2.0.png	 D	 t	 r	 n.a.	 5.276628e-01
9	 3	 79	 flanked	 bex	 4	 1.500000	 2.000000	 flanked_bex_freq_4_amplitude_1.5_rep_3_l_D_2.0.png	 D	 l	 t	 n.a.	 3.535582e-01
9	 3	 80	 flanked	 bex	 4	 2.000000	 2.000000	 flanked_bex_freq_4_amplitude_2_rep_9_r_D_2.0.png	 D	 r	 r	 n.a.	 4.242434e-01
9	 3	 81	 flanked	 bex	 2	 2.500000	 2.000000	 flanked_bex_freq_2_amplitude_2.5_rep_6_t_K_2.0.png	 K	 t	 t	 n.a.	 3.303217e-01
9	 3	 82	 flanked	 bex	 8	 1.500000	 2.000000	 flanked_bex_freq_8_amplitude_1.5_rep_6_r_N_2.0.png	 N	 r	 l	 n.a.	 5.522547e-01
9	 3	 83	 flanked	 bex	 6	 1.000000	 2.000000	 flanked_bex_freq_6_amplitude_1_rep_9_t_K_2.0.png	 K	 t	 b	 n.a.	 5.028881e-01
9	 3	 84	 flanked	 bex	 16	 0.500000	 2.000000	 flanked_bex_freq_16_amplitude_0.5_rep_4_r_K_2.0.png	 K	 r	 r	 n.a.	 3.512072e-01
9	 3	 85	 flanked	 bex	 16	 3.000000	 2.000000	 flanked_bex_freq_16_amplitude_3_rep_0_b_N_2.0.png	 N	 b	 b	 n.a.	 3.003302e-01
9	 3	 86	 flanked	 bex	 16	 0.250000	 2.000000	 flanked_bex_freq_16_amplitude_0.25_rep_3_b_D_2.0.png	 D	 b	 l	 n.a.	 4.523342e-01
9	 3	 87	 flanked	 bex	 4	 3.000000	 2.000000	 flanked_bex_freq_4_amplitude_3_rep_8_b_N_2.0.png	 N	 b	 b	 n.a.	 3.021521e-01
9	 3	 88	 flanked	 bex	 16	 2.500000	 2.000000	 flanked_bex_freq_16_amplitude_2.5_rep_9_r_N_2.0.png	 N	 r	 r	 n.a.	 3.632871e-01
9	 3	 89	 flanked	 bex	 8	 2.000000	 2.000000	 flanked_bex_freq_8_amplitude_2_rep_1_l_K_2.0.png	 K	 l	 l	 n.a.	 9.337952e-01
9	 3	 90	 flanked	 bex	 32	 1.000000	 2.000000	 flanked_bex_freq_32_amplitude_1_rep_6_t_D_2.0.png	 D	 t	 b	 n.a.	 4.651220e-01
9	 3	 91	 flanked	 bex	 4	 0.500000	 2.000000	 flanked_bex_freq_4_amplitude_0.5_rep_2_r_N_2.0.png	 N	 r	 r	 n.a.	 4.899804e-01
9	 3	 92	 flanked	 bex	 32	 2.000000	 2.000000	 flanked_bex_freq_32_amplitude_2_rep_4_r_K_2.0.png	 K	 r	 r	 n.a.	 5.023095e-01
9	 3	 93	 flanked	 bex	 2	 2.500000	 2.000000	 flanked_bex_freq_2_amplitude_2.5_rep_4_b_N_2.0.png	 N	 b	 t	 n.a.	 3.858811e-01
9	 3	 94	 flanked	 bex	 2	 3.000000	 2.000000	 flanked_bex_freq_2_amplitude_3_rep_4_r_D_2.0.png	 D	 r	 b	 n.a.	 4.357164e-01
9	 3	 95	 flanked	 bex	 6	 2.500000	 2.000000	 flanked_bex_freq_6_amplitude_2.5_rep_0_r_N_2.0.png	 N	 r	 r	 n.a.	 3.126389e-01
9	 3	 96	 flanked	 bex	 32	 2.000000	 2.000000	 flanked_bex_freq_32_amplitude_2_rep_5_t_K_2.0.png	 K	 t	 t	 n.a.	 4.044035e-01
9	 3	 97	 flanked	 bex	 4	 0.500000	 2.000000	 flanked_bex_freq_4_amplitude_0.5_rep_4_b_N_2.0.png	 N	 b	 b	 n.a.	 6.516385e-01
9	 3	 98	 flanked	 bex	 6	 3.000000	 2.000000	 flanked_bex_freq_6_amplitude_3_rep_8_b_D_2.0.png	 D	 b	 b	 n.a.	 2.605637e-01
9	 3	 99	 flanked	 bex	 16	 1.500000	 2.000000	 flanked_bex_freq_16_amplitude_1.5_rep_1_l_N_2.0.png	 N	 l	 l	 n.a.	 4.777406e-01
9	 3	 100	 flanked	 bex	 32	 3.000000	 2.000000	 flanked_bex_freq_32_amplitude_3_rep_6_t_N_2.0.png	 N	 t	 b	 n.a.	 3.009228e-01
9	 3	 101	 flanked	 bex	 6	 2.000000	 2.000000	 flanked_bex_freq_6_amplitude_2_rep_4_t_D_2.0.png	 D	 t	 b	 n.a.	 4.642169e-01
9	 3	 102	 flanked	 bex	 6	 2.500000	 2.000000	 flanked_bex_freq_6_amplitude_2.5_rep_7_b_N_2.0.png	 N	 b	 b	 n.a.	 2.589740e-01
9	 3	 103	 flanked	 bex	 2	 1.000000	 2.000000	 flanked_bex_freq_2_amplitude_1_rep_7_b_N_2.0.png	 N	 b	 b	 n.a.	 3.304682e-01
9	 3	 104	 flanked	 bex	 32	 1.500000	 2.000000	 flanked_bex_freq_32_amplitude_1.5_rep_9_l_K_2.0.png	 K	 l	 l	 n.a.	 2.796526e-01
9	 3	 105	 flanked	 bex	 4	 2.000000	 2.000000	 flanked_bex_freq_4_amplitude_2_rep_0_t_H_2.0.png	 H	 t	 b	 n.a.	 2.801730e-01
9	 3	 106	 flanked	 bex	 4	 2.000000	 2.000000	 flanked_bex_freq_4_amplitude_2_rep_1_t_D_2.0.png	 D	 t	 b	 n.a.	 3.684882e-01
9	 3	 107	 flanked	 bex	 2	 2.000000	 2.000000	 flanked_bex_freq_2_amplitude_2_rep_9_l_H_2.0.png	 H	 l	 l	 n.a.	 3.747688e-01
9	 3	 108	 flanked	 bex	 6	 3.000000	 2.000000	 flanked_bex_freq_6_amplitude_3_rep_3_l_H_2.0.png	 H	 l	 l	 n.a.	 2.344913e-01
9	 3	 109	 flanked	 bex	 8	 1.000000	 2.000000	 flanked_bex_freq_8_amplitude_1_rep_7_t_D_2.0.png	 D	 t	 b	 n.a.	 3.323225e-01
9	 3	 110	 flanked	 bex	 6	 0.250000	 2.000000	 flanked_bex_freq_6_amplitude_0.25_rep_2_l_D_2.0.png	 D	 l	 t	 n.a.	 7.373278e-01
9	 3	 111	 flanked	 bex	 16	 2.500000	 2.000000	 flanked_bex_freq_16_amplitude_2.5_rep_4_t_H_2.0.png	 H	 t	 t	 n.a.	 5.798263e-01
9	 3	 112	 flanked	 bex	 2	 2.000000	 2.000000	 flanked_bex_freq_2_amplitude_2_rep_3_l_H_2.0.png	 H	 l	 b	 n.a.	 2.873159e-01
9	 3	 113	 flanked	 bex	 2	 2.000000	 2.000000	 flanked_bex_freq_2_amplitude_2_rep_0_t_N_2.0.png	 N	 t	 t	 n.a.	 5.237451e-01
9	 3	 114	 flanked	 bex	 8	 3.000000	 2.000000	 flanked_bex_freq_8_amplitude_3_rep_8_t_N_2.0.png	 N	 t	 t	 n.a.	 3.198499e-01
9	 3	 115	 flanked	 bex	 2	 3.000000	 2.000000	 flanked_bex_freq_2_amplitude_3_rep_8_b_D_2.0.png	 D	 b	 t	 n.a.	 5.606302e-01
9	 3	 116	 flanked	 bex	 2	 2.500000	 2.000000	 flanked_bex_freq_2_amplitude_2.5_rep_8_r_H_2.0.png	 H	 r	 b	 n.a.	 3.054892e-01
9	 3	 117	 flanked	 bex	 8	 0.500000	 2.000000	 flanked_bex_freq_8_amplitude_0.5_rep_8_l_D_2.0.png	 D	 l	 b	 n.a.	 3.291023e-01
9	 3	 118	 flanked	 bex	 2	 0.250000	 2.000000	 flanked_bex_freq_2_amplitude_0.25_rep_7_r_H_2.0.png	 H	 r	 b	 n.a.	 3.647811e-01
9	 3	 119	 flanked	 bex	 6	 1.500000	 2.000000	 flanked_bex_freq_6_amplitude_1.5_rep_3_t_N_2.0.png	 N	 t	 t	 n.a.	 4.708052e-01
9	 3	 120	 flanked	 bex	 4	 1.500000	 2.000000	 flanked_bex_freq_4_amplitude_1.5_rep_9_b_K_2.0.png	 K	 b	 t	 n.a.	 6.748119e-01
9	 3	 121	 flanked	 bex	 16	 2.500000	 2.000000	 flanked_bex_freq_16_amplitude_2.5_rep_8_l_N_2.0.png	 N	 l	 l	 n.a.	 2.919014e-01
9	 3	 122	 flanked	 bex	 6	 2.500000	 2.000000	 flanked_bex_freq_6_amplitude_2.5_rep_5_b_H_2.0.png	 H	 b	 b	 n.a.	 3.954722e-01
9	 3	 123	 flanked	 bex	 6	 0.250000	 2.000000	 flanked_bex_freq_6_amplitude_0.25_rep_5_r_D_2.0.png	 D	 r	 l	 n.a.	 7.013826e-01
9	 3	 124	 flanked	 bex	 6	 1.000000	 2.000000	 flanked_bex_freq_6_amplitude_1_rep_5_b_K_2.0.png	 K	 b	 t	 n.a.	 8.172541e-01
9	 3	 125	 flanked	 bex	 8	 1.500000	 2.000000	 flanked_bex_freq_8_amplitude_1.5_rep_4_l_D_2.0.png	 D	 l	 l	 n.a.	 4.778592e-01
9	 3	 126	 flanked	 bex	 4	 2.500000	 2.000000	 flanked_bex_freq_4_amplitude_2.5_rep_6_l_N_2.0.png	 N	 l	 l	 n.a.	 7.016101e-01
9	 3	 127	 flanked	 bex	 8	 1.000000	 2.000000	 flanked_bex_freq_8_amplitude_1_rep_3_t_K_2.0.png	 K	 t	 t	 n.a.	 6.901880e-01
9	 3	 128	 flanked	 bex	 2	 2.000000	 2.000000	 flanked_bex_freq_2_amplitude_2_rep_4_b_N_2.0.png	 N	 b	 b	 n.a.	 5.139956e-01
9	 3	 129	 flanked	 bex	 2	 1.500000	 2.000000	 flanked_bex_freq_2_amplitude_1.5_rep_3_b_N_2.0.png	 N	 b	 t	 n.a.	 7.724428e-01
9	 3	 130	 flanked	 bex	 16	 2.000000	 2.000000	 flanked_bex_freq_16_amplitude_2_rep_2_l_N_2.0.png	 N	 l	 l	 n.a.	 4.249384e-01
9	 3	 131	 flanked	 bex	 8	 3.000000	 2.000000	 flanked_bex_freq_8_amplitude_3_rep_7_l_K_2.0.png	 K	 l	 l	 n.a.	 3.387216e-01
9	 3	 132	 flanked	 bex	 32	 0.500000	 2.000000	 flanked_bex_freq_32_amplitude_0.5_rep_6_r_K_2.0.png	 K	 r	 l	 n.a.	 6.062704e-01
9	 3	 133	 flanked	 bex	 8	 1.000000	 2.000000	 flanked_bex_freq_8_amplitude_1_rep_2_r_N_2.0.png	 N	 r	 b	 n.a.	 3.219838e-01
9	 3	 134	 flanked	 bex	 4	 2.500000	 2.000000	 flanked_bex_freq_4_amplitude_2.5_rep_1_l_N_2.0.png	 N	 l	 l	 n.a.	 2.340947e-01
9	 3	 135	 flanked	 bex	 8	 0.500000	 2.000000	 flanked_bex_freq_8_amplitude_0.5_rep_3_t_H_2.0.png	 H	 t	 b	 n.a.	 4.197570e-01
9	 3	 136	 flanked	 bex	 4	 0.500000	 2.000000	 flanked_bex_freq_4_amplitude_0.5_rep_9_t_K_2.0.png	 K	 t	 r	 n.a.	 5.321136e-01
9	 3	 137	 flanked	 bex	 8	 2.000000	 2.000000	 flanked_bex_freq_8_amplitude_2_rep_2_r_H_2.0.png	 H	 r	 r	 n.a.	 1.202785e+00
9	 3	 138	 flanked	 bex	 8	 0.250000	 2.000000	 flanked_bex_freq_8_amplitude_0.25_rep_4_l_K_2.0.png	 K	 l	 l	 n.a.	 4.842335e-01
9	 3	 139	 flanked	 bex	 4	 1.500000	 2.000000	 flanked_bex_freq_4_amplitude_1.5_rep_4_l_N_2.0.png	 N	 l	 t	 n.a.	 7.922797e-01
9	 3	 140	 flanked	 bex	 16	 3.000000	 2.000000	 flanked_bex_freq_16_amplitude_3_rep_1_b_H_2.0.png	 H	 b	 r	 n.a.	 5.967025e-01
9	 3	 141	 flanked	 bex	 32	 3.000000	 2.000000	 flanked_bex_freq_32_amplitude_3_rep_1_t_K_2.0.png	 K	 t	 l	 n.a.	 4.365880e-01
9	 3	 142	 flanked	 bex	 8	 3.000000	 2.000000	 flanked_bex_freq_8_amplitude_3_rep_1_b_K_2.0.png	 K	 b	 b	 n.a.	 2.655127e-01
9	 3	 143	 flanked	 bex	 4	 1.000000	 2.000000	 flanked_bex_freq_4_amplitude_1_rep_4_l_K_2.0.png	 K	 l	 l	 n.a.	 4.459601e-01
9	 3	 144	 flanked	 bex	 32	 0.250000	 2.000000	 flanked_bex_freq_32_amplitude_0.25_rep_7_t_H_2.0.png	 H	 t	 t	 n.a.	 3.838895e-01
9	 3	 145	 flanked	 bex	 4	 1.500000	 2.000000	 flanked_bex_freq_4_amplitude_1.5_rep_2_b_K_2.0.png	 K	 b	 b	 n.a.	 3.630507e-01
9	 3	 146	 flanked	 bex	 6	 1.500000	 2.000000	 flanked_bex_freq_6_amplitude_1.5_rep_0_b_N_2.0.png	 N	 b	 b	 n.a.	 4.202921e-01
9	 3	 147	 flanked	 bex	 4	 3.000000	 2.000000	 flanked_bex_freq_4_amplitude_3_rep_5_r_D_2.0.png	 D	 r	 r	 n.a.	 5.372115e-01
9	 3	 148	 flanked	 bex	 32	 2.000000	 2.000000	 flanked_bex_freq_32_amplitude_2_rep_8_l_N_2.0.png	 N	 l	 l	 n.a.	 5.304381e-01
9	 3	 149	 flanked	 bex	 32	 1.500000	 2.000000	 flanked_bex_freq_32_amplitude_1.5_rep_1_r_K_2.0.png	 K	 r	 l	 n.a.	 8.052426e-01
9	 3	 150	 flanked	 bex	 16	 0.500000	 2.000000	 flanked_bex_freq_16_amplitude_0.5_rep_0_t_N_2.0.png	 N	 t	 l	 n.a.	 3.920185e-01
9	 3	 151	 flanked	 bex	 4	 2.000000	 2.000000	 flanked_bex_freq_4_amplitude_2_rep_8_t_H_2.0.png	 H	 t	 t	 n.a.	 4.606509e-01
9	 3	 152	 flanked	 bex	 2	 1.500000	 2.000000	 flanked_bex_freq_2_amplitude_1.5_rep_8_l_D_2.0.png	 D	 l	 b	 n.a.	 5.431862e-01
9	 3	 153	 flanked	 bex	 8	 2.500000	 2.000000	 flanked_bex_freq_8_amplitude_2.5_rep_7_b_N_2.0.png	 N	 b	 b	 n.a.	 3.390065e-01
9	 3	 154	 flanked	 bex	 2	 1.000000	 2.000000	 flanked_bex_freq_2_amplitude_1_rep_6_b_D_2.0.png	 D	 b	 t	 n.a.	 8.854100e-01
9	 3	 155	 flanked	 bex	 16	 2.500000	 2.000000	 flanked_bex_freq_16_amplitude_2.5_rep_5_t_K_2.0.png	 K	 t	 t	 n.a.	 5.838489e-01
9	 3	 156	 flanked	 bex	 4	 0.500000	 2.000000	 flanked_bex_freq_4_amplitude_0.5_rep_5_r_K_2.0.png	 K	 r	 r	 n.a.	 4.711373e-01
9	 3	 157	 flanked	 bex	 6	 1.000000	 2.000000	 flanked_bex_freq_6_amplitude_1_rep_0_t_K_2.0.png	 K	 t	 t	 n.a.	 3.636183e-01
9	 3	 158	 flanked	 bex	 6	 1.500000	 2.000000	 flanked_bex_freq_6_amplitude_1.5_rep_6_b_N_2.0.png	 N	 b	 t	 n.a.	 3.697382e-01
9	 3	 159	 flanked	 bex	 2	 3.000000	 2.000000	 flanked_bex_freq_2_amplitude_3_rep_6_b_N_2.0.png	 N	 b	 b	 n.a.	 3.690506e-01
9	 3	 160	 flanked	 bex	 32	 0.250000	 2.000000	 flanked_bex_freq_32_amplitude_0.25_rep_0_r_N_2.0.png	 N	 r	 t	 n.a.	 4.640918e-01
9	 3	 161	 flanked	 bex	 32	 0.500000	 2.000000	 flanked_bex_freq_32_amplitude_0.5_rep_1_r_N_2.0.png	 N	 r	 t	 n.a.	 3.037363e-01
9	 3	 162	 flanked	 bex	 8	 2.500000	 2.000000	 flanked_bex_freq_8_amplitude_2.5_rep_5_r_K_2.0.png	 K	 r	 r	 n.a.	 2.466342e-01
9	 3	 163	 flanked	 bex	 2	 1.500000	 2.000000	 flanked_bex_freq_2_amplitude_1.5_rep_7_t_K_2.0.png	 K	 t	 b	 n.a.	 4.207360e-01
9	 3	 164	 flanked	 bex	 6	 1.500000	 2.000000	 flanked_bex_freq_6_amplitude_1.5_rep_2_t_N_2.0.png	 N	 t	 b	 n.a.	 2.979177e-01
9	 3	 165	 flanked	 bex	 6	 0.250000	 2.000000	 flanked_bex_freq_6_amplitude_0.25_rep_8_l_D_2.0.png	 D	 l	 b	 n.a.	 3.148577e-01
9	 3	 166	 flanked	 bex	 32	 2.500000	 2.000000	 flanked_bex_freq_32_amplitude_2.5_rep_7_l_H_2.0.png	 H	 l	 l	 n.a.	 4.294168e-01
9	 3	 167	 flanked	 bex	 8	 1.500000	 2.000000	 flanked_bex_freq_8_amplitude_1.5_rep_8_b_H_2.0.png	 H	 b	 b	 n.a.	 3.470260e-01
9	 3	 168	 flanked	 bex	 2	 2.500000	 2.000000	 flanked_bex_freq_2_amplitude_2.5_rep_2_l_K_2.0.png	 K	 l	 l	 n.a.	 3.240558e-01
9	 3	 169	 flanked	 bex	 16	 1.500000	 2.000000	 flanked_bex_freq_16_amplitude_1.5_rep_2_l_N_2.0.png	 N	 l	 l	 n.a.	 7.998801e-01
9	 3	 170	 flanked	 bex	 6	 1.500000	 2.000000	 flanked_bex_freq_6_amplitude_1.5_rep_5_b_K_2.0.png	 K	 b	 b	 n.a.	 4.515097e-01
9	 3	 171	 flanked	 bex	 2	 1.500000	 2.000000	 flanked_bex_freq_2_amplitude_1.5_rep_4_r_N_2.0.png	 N	 r	 t	 n.a.	 5.347132e-01
9	 3	 172	 flanked	 bex	 4	 0.500000	 2.000000	 flanked_bex_freq_4_amplitude_0.5_rep_8_l_H_2.0.png	 H	 l	 r	 n.a.	 6.401697e-01
9	 3	 173	 flanked	 bex	 16	 1.000000	 2.000000	 flanked_bex_freq_16_amplitude_1_rep_8_l_K_2.0.png	 K	 l	 l	 n.a.	 3.873088e-01
9	 3	 174	 flanked	 bex	 2	 1.500000	 2.000000	 flanked_bex_freq_2_amplitude_1.5_rep_6_l_H_2.0.png	 H	 l	 l	 n.a.	 7.925870e-01
9	 3	 175	 flanked	 bex	 8	 0.250000	 2.000000	 flanked_bex_freq_8_amplitude_0.25_rep_1_t_N_2.0.png	 N	 t	 l	 n.a.	 7.099847e-01
9	 3	 176	 flanked	 bex	 4	 1.500000	 2.000000	 flanked_bex_freq_4_amplitude_1.5_rep_5_l_H_2.0.png	 H	 l	 l	 n.a.	 3.179282e-01
9	 3	 177	 flanked	 bex	 16	 3.000000	 2.000000	 flanked_bex_freq_16_amplitude_3_rep_4_r_H_2.0.png	 H	 r	 r	 n.a.	 2.997652e-01
9	 3	 178	 flanked	 bex	 2	 1.500000	 2.000000	 flanked_bex_freq_2_amplitude_1.5_rep_0_b_D_2.0.png	 D	 b	 l	 n.a.	 5.443136e-01
9	 3	 179	 flanked	 bex	 16	 3.000000	 2.000000	 flanked_bex_freq_16_amplitude_3_rep_7_r_H_2.0.png	 H	 r	 r	 n.a.	 3.358643e-01
9	 3	 180	 flanked	 bex	 8	 3.000000	 2.000000	 flanked_bex_freq_8_amplitude_3_rep_6_r_H_2.0.png	 H	 r	 r	 n.a.	 2.954234e-01
9	 3	 181	 flanked	 bex	 16	 0.250000	 2.000000	 flanked_bex_freq_16_amplitude_0.25_rep_6_b_H_2.0.png	 H	 b	 b	 n.a.	 6.406536e-01
9	 3	 182	 flanked	 bex	 2	 2.000000	 2.000000	 flanked_bex_freq_2_amplitude_2_rep_5_t_D_2.0.png	 D	 t	 b	 n.a.	 3.263174e-01
9	 3	 183	 flanked	 bex	 32	 0.250000	 2.000000	 flanked_bex_freq_32_amplitude_0.25_rep_6_t_N_2.0.png	 N	 t	 r	 n.a.	 5.358137e-01
9	 3	 184	 flanked	 bex	 2	 2.000000	 2.000000	 flanked_bex_freq_2_amplitude_2_rep_2_r_N_2.0.png	 N	 r	 t	 n.a.	 4.830264e-01
9	 3	 185	 flanked	 bex	 4	 0.250000	 2.000000	 flanked_bex_freq_4_amplitude_0.25_rep_4_l_K_2.0.png	 K	 l	 b	 n.a.	 6.580720e-01
9	 3	 186	 flanked	 bex	 6	 0.250000	 2.000000	 flanked_bex_freq_6_amplitude_0.25_rep_0_r_H_2.0.png	 H	 r	 b	 n.a.	 5.285434e-01
9	 3	 187	 flanked	 bex	 16	 2.000000	 2.000000	 flanked_bex_freq_16_amplitude_2_rep_7_t_D_2.0.png	 D	 t	 r	 n.a.	 4.850008e-01
9	 3	 188	 flanked	 bex	 16	 0.500000	 2.000000	 flanked_bex_freq_16_amplitude_0.5_rep_5_r_N_2.0.png	 N	 r	 t	 n.a.	 3.904886e-01
9	 3	 189	 flanked	 bex	 32	 2.500000	 2.000000	 flanked_bex_freq_32_amplitude_2.5_rep_5_r_N_2.0.png	 N	 r	 l	 n.a.	 4.440086e-01
9	 3	 190	 flanked	 bex	 6	 1.500000	 2.000000	 flanked_bex_freq_6_amplitude_1.5_rep_8_b_K_2.0.png	 K	 b	 b	 n.a.	 3.087990e-01
9	 3	 191	 flanked	 bex	 4	 0.250000	 2.000000	 flanked_bex_freq_4_amplitude_0.25_rep_0_r_K_2.0.png	 K	 r	 b	 n.a.	 4.976675e-01
9	 3	 192	 flanked	 bex	 32	 1.500000	 2.000000	 flanked_bex_freq_32_amplitude_1.5_rep_4_b_H_2.0.png	 H	 b	 t	 n.a.	 7.542665e-01
9	 3	 193	 flanked	 bex	 32	 1.500000	 2.000000	 flanked_bex_freq_32_amplitude_1.5_rep_3_r_D_2.0.png	 D	 r	 b	 n.a.	 4.575061e-01
9	 3	 194	 flanked	 bex	 4	 2.500000	 2.000000	 flanked_bex_freq_4_amplitude_2.5_rep_5_r_H_2.0.png	 H	 r	 r	 n.a.	 5.680759e-01
9	 3	 195	 flanked	 bex	 2	 0.500000	 2.000000	 flanked_bex_freq_2_amplitude_0.5_rep_8_r_N_2.0.png	 N	 r	 b	 n.a.	 7.690101e-01
9	 3	 196	 flanked	 bex	 4	 1.000000	 2.000000	 flanked_bex_freq_4_amplitude_1_rep_6_r_D_2.0.png	 D	 r	 t	 n.a.	 6.495183e-01
9	 3	 197	 flanked	 bex	 8	 1.500000	 2.000000	 flanked_bex_freq_8_amplitude_1.5_rep_7_b_N_2.0.png	 N	 b	 r	 n.a.	 5.204146e-01
9	 3	 198	 flanked	 bex	 2	 1.500000	 2.000000	 flanked_bex_freq_2_amplitude_1.5_rep_2_b_H_2.0.png	 H	 b	 b	 n.a.	 5.148149e-01
9	 3	 199	 flanked	 bex	 6	 2.000000	 2.000000	 flanked_bex_freq_6_amplitude_2_rep_5_t_D_2.0.png	 D	 t	 b	 n.a.	 7.803513e-01
9	 3	 200	 flanked	 bex	 6	 0.500000	 2.000000	 flanked_bex_freq_6_amplitude_0.5_rep_4_t_D_2.0.png	 D	 t	 t	 n.a.	 5.345347e-01
9	 3	 201	 flanked	 bex	 8	 2.500000	 2.000000	 flanked_bex_freq_8_amplitude_2.5_rep_4_b_D_2.0.png	 D	 b	 b	 n.a.	 3.450344e-01
9	 3	 202	 flanked	 bex	 2	 1.000000	 2.000000	 flanked_bex_freq_2_amplitude_1_rep_1_b_D_2.0.png	 D	 b	 b	 n.a.	 4.261644e-01
9	 3	 203	 flanked	 bex	 8	 0.500000	 2.000000	 flanked_bex_freq_8_amplitude_0.5_rep_4_l_D_2.0.png	 D	 l	 b	 n.a.	 4.039523e-01
9	 3	 204	 flanked	 bex	 32	 1.000000	 2.000000	 flanked_bex_freq_32_amplitude_1_rep_7_t_D_2.0.png	 D	 t	 t	 n.a.	 1.044653e+00
9	 3	 205	 flanked	 bex	 32	 2.000000	 2.000000	 flanked_bex_freq_32_amplitude_2_rep_9_l_N_2.0.png	 N	 l	 b	 n.a.	 1.304828e+00
9	 3	 206	 flanked	 bex	 32	 1.000000	 2.000000	 flanked_bex_freq_32_amplitude_1_rep_0_r_D_2.0.png	 D	 r	 t	 n.a.	 6.556473e-01
9	 3	 207	 flanked	 bex	 32	 0.250000	 2.000000	 flanked_bex_freq_32_amplitude_0.25_rep_3_l_N_2.0.png	 N	 l	 b	 n.a.	 9.434016e-01
9	 3	 208	 flanked	 bex	 16	 3.000000	 2.000000	 flanked_bex_freq_16_amplitude_3_rep_3_r_N_2.0.png	 N	 r	 r	 n.a.	 2.834563e-01
9	 3	 209	 flanked	 bex	 8	 2.000000	 2.000000	 flanked_bex_freq_8_amplitude_2_rep_8_l_D_2.0.png	 D	 l	 l	 n.a.	 3.085636e-01
9	 3	 210	 flanked	 bex	 16	 2.500000	 2.000000	 flanked_bex_freq_16_amplitude_2.5_rep_3_l_N_2.0.png	 N	 l	 l	 n.a.	 3.016321e-01
9	 3	 211	 flanked	 bex	 16	 1.500000	 2.000000	 flanked_bex_freq_16_amplitude_1.5_rep_0_b_K_2.0.png	 K	 b	 b	 n.a.	 3.994984e-01
9	 3	 212	 flanked	 bex	 2	 3.000000	 2.000000	 flanked_bex_freq_2_amplitude_3_rep_5_r_D_2.0.png	 D	 r	 l	 n.a.	 6.689522e-01
9	 3	 213	 flanked	 bex	 32	 2.000000	 2.000000	 flanked_bex_freq_32_amplitude_2_rep_3_b_K_2.0.png	 K	 b	 b	 n.a.	 3.350750e-01
9	 3	 214	 flanked	 bex	 2	 2.000000	 2.000000	 flanked_bex_freq_2_amplitude_2_rep_7_t_H_2.0.png	 H	 t	 t	 n.a.	 4.655075e-01
9	 3	 215	 flanked	 bex	 6	 2.000000	 2.000000	 flanked_bex_freq_6_amplitude_2_rep_8_r_D_2.0.png	 D	 r	 r	 n.a.	 3.739425e-01
9	 3	 216	 flanked	 bex	 16	 1.000000	 2.000000	 flanked_bex_freq_16_amplitude_1_rep_2_l_K_2.0.png	 K	 l	 l	 n.a.	 4.333342e-01
9	 3	 217	 flanked	 bex	 16	 0.250000	 2.000000	 flanked_bex_freq_16_amplitude_0.25_rep_8_t_N_2.0.png	 N	 t	 t	 n.a.	 5.791502e-01
9	 3	 218	 flanked	 bex	 4	 2.500000	 2.000000	 flanked_bex_freq_4_amplitude_2.5_rep_7_t_D_2.0.png	 D	 t	 b	 n.a.	 4.006336e-01
9	 3	 219	 flanked	 bex	 4	 3.000000	 2.000000	 flanked_bex_freq_4_amplitude_3_rep_4_t_D_2.0.png	 D	 t	 t	 n.a.	 5.007750e-01
9	 3	 220	 flanked	 bex	 2	 0.250000	 2.000000	 flanked_bex_freq_2_amplitude_0.25_rep_6_t_H_2.0.png	 H	 t	 b	 n.a.	 3.275332e-01
9	 3	 221	 flanked	 bex	 6	 2.500000	 2.000000	 flanked_bex_freq_6_amplitude_2.5_rep_4_t_K_2.0.png	 K	 t	 t	 n.a.	 3.434356e-01
9	 3	 222	 flanked	 bex	 2	 0.250000	 2.000000	 flanked_bex_freq_2_amplitude_0.25_rep_9_t_D_2.0.png	 D	 t	 l	 n.a.	 2.826026e-01
9	 3	 223	 flanked	 bex	 8	 0.250000	 2.000000	 flanked_bex_freq_8_amplitude_0.25_rep_5_l_H_2.0.png	 H	 l	 r	 n.a.	 4.603003e-01
9	 3	 224	 flanked	 bex	 2	 0.500000	 2.000000	 flanked_bex_freq_2_amplitude_0.5_rep_4_b_H_2.0.png	 H	 b	 t	 n.a.	 4.283419e-01
9	 3	 225	 flanked	 bex	 16	 1.000000	 2.000000	 flanked_bex_freq_16_amplitude_1_rep_3_l_K_2.0.png	 K	 l	 l	 n.a.	 4.172351e-01
9	 3	 226	 flanked	 bex	 2	 3.000000	 2.000000	 flanked_bex_freq_2_amplitude_3_rep_7_r_H_2.0.png	 H	 r	 r	 n.a.	 3.542734e-01
9	 3	 227	 flanked	 bex	 8	 0.500000	 2.000000	 flanked_bex_freq_8_amplitude_0.5_rep_9_t_D_2.0.png	 D	 t	 b	 n.a.	 2.745262e-01
9	 3	 228	 flanked	 bex	 8	 0.250000	 2.000000	 flanked_bex_freq_8_amplitude_0.25_rep_9_b_D_2.0.png	 D	 b	 l	 n.a.	 3.341793e-01
9	 3	 229	 flanked	 bex	 16	 2.000000	 2.000000	 flanked_bex_freq_16_amplitude_2_rep_4_l_K_2.0.png	 K	 l	 l	 n.a.	 2.464144e-01
9	 3	 230	 flanked	 bex	 6	 0.250000	 2.000000	 flanked_bex_freq_6_amplitude_0.25_rep_4_r_N_2.0.png	 N	 r	 t	 n.a.	 3.228561e-01
9	 3	 231	 flanked	 bex	 8	 2.500000	 2.000000	 flanked_bex_freq_8_amplitude_2.5_rep_8_r_N_2.0.png	 N	 r	 r	 n.a.	 3.047944e-01
9	 3	 232	 flanked	 bex	 4	 1.000000	 2.000000	 flanked_bex_freq_4_amplitude_1_rep_9_b_D_2.0.png	 D	 b	 b	 n.a.	 4.549090e-01
9	 3	 233	 flanked	 bex	 2	 1.000000	 2.000000	 flanked_bex_freq_2_amplitude_1_rep_3_b_K_2.0.png	 K	 b	 b	 n.a.	 3.643091e-01
9	 3	 234	 flanked	 bex	 16	 1.500000	 2.000000	 flanked_bex_freq_16_amplitude_1.5_rep_8_l_N_2.0.png	 N	 l	 l	 n.a.	 4.591194e-01
9	 3	 235	 flanked	 bex	 32	 2.000000	 2.000000	 flanked_bex_freq_32_amplitude_2_rep_6_l_D_2.0.png	 D	 l	 t	 n.a.	 3.138616e-01
9	 3	 236	 flanked	 bex	 32	 0.500000	 2.000000	 flanked_bex_freq_32_amplitude_0.5_rep_5_r_K_2.0.png	 K	 r	 r	 n.a.	 6.132111e-01
9	 3	 237	 flanked	 bex	 16	 2.000000	 2.000000	 flanked_bex_freq_16_amplitude_2_rep_6_t_D_2.0.png	 D	 t	 b	 n.a.	 5.360611e-01
9	 3	 238	 flanked	 bex	 16	 2.000000	 2.000000	 flanked_bex_freq_16_amplitude_2_rep_8_b_K_2.0.png	 K	 b	 b	 n.a.	 3.363855e-01
9	 3	 239	 flanked	 bex	 32	 0.500000	 2.000000	 flanked_bex_freq_32_amplitude_0.5_rep_4_t_H_2.0.png	 H	 t	 l	 n.a.	 3.409490e-01
9	 3	 240	 flanked	 bex	 4	 2.500000	 2.000000	 flanked_bex_freq_4_amplitude_2.5_rep_4_l_H_2.0.png	 H	 l	 l	 n.a.	 3.254443e-01
9	 3	 241	 flanked	 bex	 4	 1.500000	 2.000000	 flanked_bex_freq_4_amplitude_1.5_rep_6_l_N_2.0.png	 N	 l	 l	 n.a.	 6.506035e-01
9	 3	 242	 flanked	 bex	 8	 2.500000	 2.000000	 flanked_bex_freq_8_amplitude_2.5_rep_0_l_N_2.0.png	 N	 l	 l	 n.a.	 2.463366e-01
9	 3	 243	 flanked	 bex	 4	 0.500000	 2.000000	 flanked_bex_freq_4_amplitude_0.5_rep_1_r_H_2.0.png	 H	 r	 b	 n.a.	 5.408036e-01
9	 3	 244	 flanked	 bex	 4	 1.500000	 2.000000	 flanked_bex_freq_4_amplitude_1.5_rep_8_r_N_2.0.png	 N	 r	 t	 n.a.	 8.961275e-01
9	 3	 245	 flanked	 bex	 2	 1.000000	 2.000000	 flanked_bex_freq_2_amplitude_1_rep_4_l_K_2.0.png	 K	 l	 l	 n.a.	 3.365195e-01
9	 3	 246	 flanked	 bex	 8	 0.250000	 2.000000	 flanked_bex_freq_8_amplitude_0.25_rep_8_r_H_2.0.png	 H	 r	 r	 n.a.	 7.344673e-01
9	 3	 247	 flanked	 bex	 16	 1.500000	 2.000000	 flanked_bex_freq_16_amplitude_1.5_rep_4_r_K_2.0.png	 K	 r	 r	 n.a.	 3.911390e-01
9	 3	 248	 flanked	 bex	 16	 1.000000	 2.000000	 flanked_bex_freq_16_amplitude_1_rep_0_t_K_2.0.png	 K	 t	 t	 n.a.	 3.451993e-01
9	 3	 249	 flanked	 bex	 2	 0.250000	 2.000000	 flanked_bex_freq_2_amplitude_0.25_rep_0_l_K_2.0.png	 K	 l	 r	 n.a.	 1.356105e+00
9	 3	 250	 flanked	 bex	 6	 2.000000	 2.000000	 flanked_bex_freq_6_amplitude_2_rep_6_b_D_2.0.png	 D	 b	 b	 n.a.	 4.565733e-01
9	 3	 251	 flanked	 bex	 8	 2.000000	 2.000000	 flanked_bex_freq_8_amplitude_2_rep_5_t_D_2.0.png	 D	 t	 t	 n.a.	 5.276376e-01
9	 3	 252	 flanked	 bex	 6	 2.000000	 2.000000	 flanked_bex_freq_6_amplitude_2_rep_2_l_D_2.0.png	 D	 l	 l	 n.a.	 3.187591e-01
9	 3	 253	 flanked	 bex	 6	 3.000000	 2.000000	 flanked_bex_freq_6_amplitude_3_rep_9_l_D_2.0.png	 D	 l	 l	 n.a.	 2.567770e-01
9	 3	 254	 flanked	 bex	 4	 3.000000	 2.000000	 flanked_bex_freq_4_amplitude_3_rep_0_l_K_2.0.png	 K	 l	 l	 n.a.	 3.923426e-01
9	 3	 255	 flanked	 bex	 32	 2.500000	 2.000000	 flanked_bex_freq_32_amplitude_2.5_rep_4_l_N_2.0.png	 N	 l	 r	 n.a.	 6.073941e-01
9	 3	 256	 flanked	 bex	 2	 1.000000	 2.000000	 flanked_bex_freq_2_amplitude_1_rep_8_l_K_2.0.png	 K	 l	 r	 n.a.	 4.922848e-01
9	 3	 257	 flanked	 bex	 16	 2.000000	 2.000000	 flanked_bex_freq_16_amplitude_2_rep_3_b_H_2.0.png	 H	 b	 b	 n.a.	 2.924548e-01
9	 3	 258	 flanked	 bex	 6	 1.000000	 2.000000	 flanked_bex_freq_6_amplitude_1_rep_1_b_K_2.0.png	 K	 b	 b	 n.a.	 4.585942e-01
9	 3	 259	 flanked	 bex	 6	 0.500000	 2.000000	 flanked_bex_freq_6_amplitude_0.5_rep_5_r_D_2.0.png	 D	 r	 b	 n.a.	 4.165515e-01
9	 3	 260	 flanked	 bex	 8	 1.500000	 2.000000	 flanked_bex_freq_8_amplitude_1.5_rep_3_t_K_2.0.png	 K	 t	 t	 n.a.	 3.790635e-01
9	 3	 261	 flanked	 bex	 8	 1.500000	 2.000000	 flanked_bex_freq_8_amplitude_1.5_rep_0_r_H_2.0.png	 H	 r	 r	 n.a.	 3.467961e-01
9	 3	 262	 flanked	 bex	 2	 0.500000	 2.000000	 flanked_bex_freq_2_amplitude_0.5_rep_0_b_H_2.0.png	 H	 b	 t	 n.a.	 4.258966e-01
9	 3	 263	 flanked	 bex	 8	 3.000000	 2.000000	 flanked_bex_freq_8_amplitude_3_rep_5_t_H_2.0.png	 H	 t	 t	 n.a.	 2.957183e-01
9	 3	 264	 flanked	 bex	 2	 0.500000	 2.000000	 flanked_bex_freq_2_amplitude_0.5_rep_7_r_D_2.0.png	 D	 r	 t	 n.a.	 2.778821e-01
9	 3	 265	 flanked	 bex	 16	 0.500000	 2.000000	 flanked_bex_freq_16_amplitude_0.5_rep_2_l_H_2.0.png	 H	 l	 t	 n.a.	 3.253985e-01
9	 3	 266	 flanked	 bex	 4	 1.000000	 2.000000	 flanked_bex_freq_4_amplitude_1_rep_3_b_H_2.0.png	 H	 b	 b	 n.a.	 3.023776e-01
9	 3	 267	 flanked	 bex	 32	 1.500000	 2.000000	 flanked_bex_freq_32_amplitude_1.5_rep_8_l_D_2.0.png	 D	 l	 b	 n.a.	 2.792856e-01
9	 3	 268	 flanked	 bex	 6	 1.000000	 2.000000	 flanked_bex_freq_6_amplitude_1_rep_6_b_K_2.0.png	 K	 b	 b	 n.a.	 2.822597e-01
9	 3	 269	 flanked	 bex	 32	 0.250000	 2.000000	 flanked_bex_freq_32_amplitude_0.25_rep_8_l_N_2.0.png	 N	 l	 r	 n.a.	 3.266130e-01
9	 3	 270	 flanked	 bex	 2	 3.000000	 2.000000	 flanked_bex_freq_2_amplitude_3_rep_1_b_K_2.0.png	 K	 b	 t	 n.a.	 4.264808e-01
9	 3	 271	 flanked	 bex	 6	 3.000000	 2.000000	 flanked_bex_freq_6_amplitude_3_rep_0_b_K_2.0.png	 K	 b	 b	 n.a.	 2.609342e-01
9	 3	 272	 flanked	 bex	 32	 3.000000	 2.000000	 flanked_bex_freq_32_amplitude_3_rep_8_b_K_2.0.png	 K	 b	 b	 n.a.	 3.112527e-01
9	 3	 273	 flanked	 bex	 4	 1.000000	 2.000000	 flanked_bex_freq_4_amplitude_1_rep_0_b_D_2.0.png	 D	 b	 l	 n.a.	 2.897914e-01
9	 3	 274	 flanked	 bex	 6	 2.000000	 2.000000	 flanked_bex_freq_6_amplitude_2_rep_0_r_H_2.0.png	 H	 r	 r	 n.a.	 2.643273e-01
9	 3	 275	 flanked	 bex	 16	 3.000000	 2.000000	 flanked_bex_freq_16_amplitude_3_rep_9_r_K_2.0.png	 K	 r	 r	 n.a.	 2.279436e-01
9	 3	 276	 flanked	 bex	 6	 2.500000	 2.000000	 flanked_bex_freq_6_amplitude_2.5_rep_9_l_K_2.0.png	 K	 l	 l	 n.a.	 2.978232e-01
9	 3	 277	 flanked	 bex	 32	 3.000000	 2.000000	 flanked_bex_freq_32_amplitude_3_rep_0_t_H_2.0.png	 H	 t	 t	 n.a.	 3.427238e-01
9	 3	 278	 flanked	 bex	 4	 2.500000	 2.000000	 flanked_bex_freq_4_amplitude_2.5_rep_3_t_D_2.0.png	 D	 t	 t	 n.a.	 4.200678e-01
9	 3	 279	 flanked	 bex	 32	 2.500000	 2.000000	 flanked_bex_freq_32_amplitude_2.5_rep_9_l_N_2.0.png	 N	 l	 l	 n.a.	 4.306238e-01
9	 3	 280	 flanked	 bex	 8	 1.000000	 2.000000	 flanked_bex_freq_8_amplitude_1_rep_6_r_D_2.0.png	 D	 r	 l	 n.a.	 6.283830e-01
9	 3	 281	 flanked	 bex	 32	 2.500000	 2.000000	 flanked_bex_freq_32_amplitude_2.5_rep_0_l_D_2.0.png	 D	 l	 l	 n.a.	 3.016884e-01
9	 3	 282	 flanked	 bex	 6	 2.000000	 2.000000	 flanked_bex_freq_6_amplitude_2_rep_9_t_H_2.0.png	 H	 t	 t	 n.a.	 3.242667e-01
9	 3	 283	 flanked	 bex	 32	 1.000000	 2.000000	 flanked_bex_freq_32_amplitude_1_rep_3_l_H_2.0.png	 H	 l	 t	 n.a.	 3.125604e-01
9	 3	 284	 flanked	 bex	 4	 0.500000	 2.000000	 flanked_bex_freq_4_amplitude_0.5_rep_0_b_H_2.0.png	 H	 b	 b	 n.a.	 5.379135e-01
9	 3	 285	 flanked	 bex	 4	 3.000000	 2.000000	 flanked_bex_freq_4_amplitude_3_rep_2_t_N_2.0.png	 N	 t	 l	 n.a.	 4.741717e-01
9	 3	 286	 flanked	 bex	 6	 0.500000	 2.000000	 flanked_bex_freq_6_amplitude_0.5_rep_8_t_K_2.0.png	 K	 t	 b	 n.a.	 5.484527e-01
9	 3	 287	 flanked	 bex	 8	 3.000000	 2.000000	 flanked_bex_freq_8_amplitude_3_rep_2_r_D_2.0.png	 D	 r	 r	 n.a.	 2.397329e-01
9	 3	 288	 flanked	 bex	 2	 1.000000	 2.000000	 flanked_bex_freq_2_amplitude_1_rep_0_t_K_2.0.png	 K	 t	 t	 n.a.	 4.058595e-01
9	 3	 289	 flanked	 bex	 2	 0.500000	 2.000000	 flanked_bex_freq_2_amplitude_0.5_rep_3_t_N_2.0.png	 N	 t	 r	 n.a.	 3.326477e-01
9	 3	 290	 flanked	 bex	 16	 2.500000	 2.000000	 flanked_bex_freq_16_amplitude_2.5_rep_6_r_D_2.0.png	 D	 r	 r	 n.a.	 2.337609e-01
9	 3	 291	 flanked	 bex	 6	 0.500000	 2.000000	 flanked_bex_freq_6_amplitude_0.5_rep_0_r_N_2.0.png	 N	 r	 r	 n.a.	 2.083766e-01
9	 3	 292	 flanked	 bex	 8	 2.000000	 2.000000	 flanked_bex_freq_8_amplitude_2_rep_4_l_N_2.0.png	 N	 l	 l	 n.a.	 2.662598e-01
9	 3	 293	 flanked	 bex	 4	 3.000000	 2.000000	 flanked_bex_freq_4_amplitude_3_rep_9_r_H_2.0.png	 H	 r	 r	 n.a.	 2.287181e-01
9	 3	 294	 flanked	 bex	 8	 2.000000	 2.000000	 flanked_bex_freq_8_amplitude_2_rep_0_t_D_2.0.png	 D	 t	 b	 n.a.	 3.725579e-01
9	 3	 295	 flanked	 bex	 16	 1.000000	 2.000000	 flanked_bex_freq_16_amplitude_1_rep_7_t_H_2.0.png	 H	 t	 t	 n.a.	 2.813665e-01
9	 3	 296	 flanked	 bex	 4	 0.250000	 2.000000	 flanked_bex_freq_4_amplitude_0.25_rep_8_l_D_2.0.png	 D	 l	 b	 n.a.	 3.265241e-01
9	 3	 297	 flanked	 bex	 2	 1.000000	 2.000000	 flanked_bex_freq_2_amplitude_1_rep_5_r_N_2.0.png	 N	 r	 b	 n.a.	 9.444544e-01
9	 3	 298	 flanked	 bex	 6	 0.500000	 2.000000	 flanked_bex_freq_6_amplitude_0.5_rep_6_r_K_2.0.png	 K	 r	 r	 n.a.	 3.866682e-01
9	 3	 299	 flanked	 bex	 6	 0.250000	 2.000000	 flanked_bex_freq_6_amplitude_0.25_rep_1_b_H_2.0.png	 H	 b	 l	 n.a.	 3.529869e-01
9	 3	 300	 flanked	 bex	 4	 2.500000	 2.000000	 flanked_bex_freq_4_amplitude_2.5_rep_2_t_N_2.0.png	 N	 t	 b	 n.a.	 2.715407e-01
9	 3	 301	 flanked	 bex	 6	 3.000000	 2.000000	 flanked_bex_freq_6_amplitude_3_rep_6_l_D_2.0.png	 D	 l	 l	 n.a.	 2.833907e-01
9	 3	 302	 flanked	 bex	 32	 0.500000	 2.000000	 flanked_bex_freq_32_amplitude_0.5_rep_0_b_K_2.0.png	 K	 b	 b	 n.a.	 3.842485e-01
9	 3	 303	 flanked	 bex	 16	 1.500000	 2.000000	 flanked_bex_freq_16_amplitude_1.5_rep_3_t_H_2.0.png	 H	 t	 r	 n.a.	 4.213475e-01
9	 3	 304	 flanked	 bex	 4	 0.250000	 2.000000	 flanked_bex_freq_4_amplitude_0.25_rep_9_b_N_2.0.png	 N	 b	 l	 n.a.	 2.573106e-01
9	 3	 305	 flanked	 bex	 2	 2.000000	 2.000000	 flanked_bex_freq_2_amplitude_2_rep_8_b_K_2.0.png	 K	 b	 b	 n.a.	 2.809155e-01
9	 3	 306	 flanked	 bex	 8	 1.000000	 2.000000	 flanked_bex_freq_8_amplitude_1_rep_1_t_H_2.0.png	 H	 t	 t	 n.a.	 5.819972e-01
9	 3	 307	 flanked	 bex	 8	 2.500000	 2.000000	 flanked_bex_freq_8_amplitude_2.5_rep_9_b_K_2.0.png	 K	 b	 b	 n.a.	 3.054977e-01
9	 3	 308	 flanked	 bex	 16	 2.000000	 2.000000	 flanked_bex_freq_16_amplitude_2_rep_9_l_H_2.0.png	 H	 l	 l	 n.a.	 2.909255e-01
9	 3	 309	 flanked	 bex	 32	 2.500000	 2.000000	 flanked_bex_freq_32_amplitude_2.5_rep_3_t_N_2.0.png	 N	 t	 r	 n.a.	 3.829407e-01
9	 3	 310	 flanked	 bex	 4	 1.500000	 2.000000	 flanked_bex_freq_4_amplitude_1.5_rep_0_b_H_2.0.png	 H	 b	 b	 n.a.	 2.631036e-01
9	 3	 311	 flanked	 bex	 6	 0.500000	 2.000000	 flanked_bex_freq_6_amplitude_0.5_rep_7_r_K_2.0.png	 K	 r	 l	 n.a.	 4.257597e-01
9	 3	 312	 flanked	 bex	 6	 3.000000	 2.000000	 flanked_bex_freq_6_amplitude_3_rep_7_t_K_2.0.png	 K	 t	 t	 n.a.	 4.431842e-01
9	 3	 313	 flanked	 bex	 8	 0.250000	 2.000000	 flanked_bex_freq_8_amplitude_0.25_rep_7_l_H_2.0.png	 H	 l	 b	 n.a.	 2.874601e-01
9	 3	 314	 flanked	 bex	 6	 0.500000	 2.000000	 flanked_bex_freq_6_amplitude_0.5_rep_9_r_N_2.0.png	 N	 r	 b	 n.a.	 3.477605e-01
9	 3	 315	 flanked	 bex	 32	 1.500000	 2.000000	 flanked_bex_freq_32_amplitude_1.5_rep_0_b_H_2.0.png	 H	 b	 t	 n.a.	 3.427027e-01
9	 3	 316	 flanked	 bex	 4	 2.000000	 2.000000	 flanked_bex_freq_4_amplitude_2_rep_6_l_D_2.0.png	 D	 l	 l	 n.a.	 3.528617e-01
9	 3	 317	 flanked	 bex	 16	 0.250000	 2.000000	 flanked_bex_freq_16_amplitude_0.25_rep_7_t_N_2.0.png	 N	 t	 t	 n.a.	 6.538438e-01
9	 3	 318	 flanked	 bex	 32	 0.500000	 2.000000	 flanked_bex_freq_32_amplitude_0.5_rep_2_b_H_2.0.png	 H	 b	 l	 n.a.	 7.744649e-01
9	 3	 319	 flanked	 bex	 6	 2.500000	 2.000000	 flanked_bex_freq_6_amplitude_2.5_rep_6_t_D_2.0.png	 D	 t	 t	 n.a.	 3.961790e-01
9	 3	 320	 flanked	 bex	 4	 3.000000	 2.000000	 flanked_bex_freq_4_amplitude_3_rep_1_l_H_2.0.png	 H	 l	 l	 n.a.	 3.184940e-01
9	 3	 321	 flanked	 bex	 16	 0.500000	 2.000000	 flanked_bex_freq_16_amplitude_0.5_rep_6_t_N_2.0.png	 N	 t	 l	 n.a.	 6.769405e-01
9	 3	 322	 flanked	 bex	 8	 0.500000	 2.000000	 flanked_bex_freq_8_amplitude_0.5_rep_5_r_K_2.0.png	 K	 r	 t	 n.a.	 5.316656e-01
9	 3	 323	 flanked	 bex	 16	 1.500000	 2.000000	 flanked_bex_freq_16_amplitude_1.5_rep_5_t_H_2.0.png	 H	 t	 t	 n.a.	 5.948980e-01
9	 3	 324	 flanked	 bex	 8	 3.000000	 2.000000	 flanked_bex_freq_8_amplitude_3_rep_9_l_K_2.0.png	 K	 l	 l	 n.a.	 2.910577e-01
9	 3	 325	 flanked	 bex	 4	 2.500000	 2.000000	 flanked_bex_freq_4_amplitude_2.5_rep_8_b_D_2.0.png	 D	 b	 b	 n.a.	 4.371752e-01
9	 3	 326	 flanked	 bex	 32	 2.000000	 2.000000	 flanked_bex_freq_32_amplitude_2_rep_7_b_K_2.0.png	 K	 b	 b	 n.a.	 3.504640e-01
9	 3	 327	 flanked	 bex	 4	 2.500000	 2.000000	 flanked_bex_freq_4_amplitude_2.5_rep_9_l_H_2.0.png	 H	 l	 l	 n.a.	 2.247892e-01
9	 3	 328	 flanked	 bex	 4	 0.250000	 2.000000	 flanked_bex_freq_4_amplitude_0.25_rep_6_l_D_2.0.png	 D	 l	 b	 n.a.	 4.236252e-01
9	 3	 329	 flanked	 bex	 2	 0.500000	 2.000000	 flanked_bex_freq_2_amplitude_0.5_rep_1_l_D_2.0.png	 D	 l	 b	 n.a.	 5.977569e-01
9	 3	 330	 flanked	 bex	 16	 0.500000	 2.000000	 flanked_bex_freq_16_amplitude_0.5_rep_9_b_N_2.0.png	 N	 b	 l	 n.a.	 4.127740e-01
9	 3	 331	 flanked	 bex	 2	 0.250000	 2.000000	 flanked_bex_freq_2_amplitude_0.25_rep_2_r_N_2.0.png	 N	 r	 t	 n.a.	 5.757506e-01
9	 3	 332	 flanked	 bex	 4	 0.500000	 2.000000	 flanked_bex_freq_4_amplitude_0.5_rep_3_l_K_2.0.png	 K	 l	 l	 n.a.	 2.851363e-01
9	 3	 333	 flanked	 bex	 32	 1.500000	 2.000000	 flanked_bex_freq_32_amplitude_1.5_rep_2_l_K_2.0.png	 K	 l	 b	 n.a.	 6.415664e-01
9	 3	 334	 flanked	 bex	 16	 0.250000	 2.000000	 flanked_bex_freq_16_amplitude_0.25_rep_2_l_H_2.0.png	 H	 l	 l	 n.a.	 2.512213e-01
9	 3	 335	 flanked	 bex	 32	 0.250000	 2.000000	 flanked_bex_freq_32_amplitude_0.25_rep_2_l_N_2.0.png	 N	 l	 r	 n.a.	 5.813251e-01
9	 3	 336	 flanked	 bex	 2	 2.500000	 2.000000	 flanked_bex_freq_2_amplitude_2.5_rep_0_r_K_2.0.png	 K	 r	 r	 n.a.	 4.146880e-01
9	 3	 337	 flanked	 bex	 8	 0.500000	 2.000000	 flanked_bex_freq_8_amplitude_0.5_rep_2_t_D_2.0.png	 D	 t	 r	 n.a.	 4.108512e-01
9	 3	 338	 flanked	 bex	 8	 2.500000	 2.000000	 flanked_bex_freq_8_amplitude_2.5_rep_6_t_H_2.0.png	 H	 t	 t	 n.a.	 4.088617e-01
9	 3	 339	 flanked	 bex	 6	 2.000000	 2.000000	 flanked_bex_freq_6_amplitude_2_rep_3_r_K_2.0.png	 K	 r	 r	 n.a.	 2.632847e-01
9	 3	 340	 flanked	 bex	 16	 2.500000	 2.000000	 flanked_bex_freq_16_amplitude_2.5_rep_1_r_H_2.0.png	 H	 r	 r	 n.a.	 2.834722e-01
9	 3	 341	 flanked	 bex	 16	 0.250000	 2.000000	 flanked_bex_freq_16_amplitude_0.25_rep_5_t_H_2.0.png	 H	 t	 r	 n.a.	 4.650553e-01
9	 3	 342	 flanked	 bex	 32	 3.000000	 2.000000	 flanked_bex_freq_32_amplitude_3_rep_2_r_N_2.0.png	 N	 r	 r	 n.a.	 2.731792e-01
9	 3	 343	 flanked	 bex	 8	 2.500000	 2.000000	 flanked_bex_freq_8_amplitude_2.5_rep_3_l_N_2.0.png	 N	 l	 l	 n.a.	 2.270127e-01
9	 3	 344	 flanked	 bex	 16	 0.250000	 2.000000	 flanked_bex_freq_16_amplitude_0.25_rep_9_b_N_2.0.png	 N	 b	 r	 n.a.	 8.118172e-01
9	 3	 345	 flanked	 bex	 8	 0.250000	 2.000000	 flanked_bex_freq_8_amplitude_0.25_rep_0_r_D_2.0.png	 D	 r	 b	 n.a.	 3.145775e-01
9	 3	 346	 flanked	 bex	 32	 0.250000	 2.000000	 flanked_bex_freq_32_amplitude_0.25_rep_4_b_D_2.0.png	 D	 b	 t	 n.a.	 4.376173e-01
9	 3	 347	 flanked	 bex	 4	 2.000000	 2.000000	 flanked_bex_freq_4_amplitude_2_rep_5_t_D_2.0.png	 D	 t	 b	 n.a.	 4.018781e-01
9	 3	 348	 flanked	 bex	 8	 1.500000	 2.000000	 flanked_bex_freq_8_amplitude_1.5_rep_9_t_D_2.0.png	 D	 t	 r	 n.a.	 9.938659e-01
9	 3	 349	 flanked	 bex	 8	 1.500000	 2.000000	 flanked_bex_freq_8_amplitude_1.5_rep_5_l_N_2.0.png	 N	 l	 l	 n.a.	 3.093843e-01
9	 3	 350	 flanked	 bex	 8	 0.500000	 2.000000	 flanked_bex_freq_8_amplitude_0.5_rep_0_b_D_2.0.png	 D	 b	 r	 n.a.	 9.566175e-01
9	 3	 351	 flanked	 bex	 2	 1.500000	 2.000000	 flanked_bex_freq_2_amplitude_1.5_rep_5_r_H_2.0.png	 H	 r	 l	 n.a.	 4.618594e-01
9	 3	 352	 flanked	 bex	 6	 2.500000	 2.000000	 flanked_bex_freq_6_amplitude_2.5_rep_1_l_H_2.0.png	 H	 l	 l	 n.a.	 2.356731e-01
9	 3	 353	 flanked	 bex	 6	 0.500000	 2.000000	 flanked_bex_freq_6_amplitude_0.5_rep_1_t_D_2.0.png	 D	 t	 r	 n.a.	 7.765793e-01
9	 3	 354	 flanked	 bex	 8	 1.000000	 2.000000	 flanked_bex_freq_8_amplitude_1_rep_9_b_D_2.0.png	 D	 b	 l	 n.a.	 3.525264e-01
9	 3	 355	 flanked	 bex	 2	 1.000000	 2.000000	 flanked_bex_freq_2_amplitude_1_rep_2_l_N_2.0.png	 N	 l	 b	 n.a.	 3.195995e-01
9	 3	 356	 flanked	 bex	 32	 2.000000	 2.000000	 flanked_bex_freq_32_amplitude_2_rep_0_t_K_2.0.png	 K	 t	 b	 n.a.	 3.552206e-01
9	 3	 357	 flanked	 bex	 16	 3.000000	 2.000000	 flanked_bex_freq_16_amplitude_3_rep_8_b_H_2.0.png	 H	 b	 b	 n.a.	 2.945400e-01
9	 3	 358	 flanked	 bex	 6	 2.500000	 2.000000	 flanked_bex_freq_6_amplitude_2.5_rep_3_l_H_2.0.png	 H	 l	 l	 n.a.	 3.093635e-01
9	 3	 359	 flanked	 bex	 2	 0.250000	 2.000000	 flanked_bex_freq_2_amplitude_0.25_rep_3_t_H_2.0.png	 H	 t	 b	 n.a.	 3.917252e-01
9	 3	 360	 flanked	 bex	 8	 1.000000	 2.000000	 flanked_bex_freq_8_amplitude_1_rep_4_t_N_2.0.png	 N	 t	 r	 n.a.	 2.836488e-01
9	 3	 361	 flanked	 bex	 4	 1.000000	 2.000000	 flanked_bex_freq_4_amplitude_1_rep_5_r_K_2.0.png	 K	 r	 r	 n.a.	 4.846863e-01
9	 3	 362	 flanked	 bex	 16	 1.000000	 2.000000	 flanked_bex_freq_16_amplitude_1_rep_5_l_D_2.0.png	 D	 l	 t	 n.a.	 5.085456e-01
9	 3	 363	 flanked	 bex	 4	 0.500000	 2.000000	 flanked_bex_freq_4_amplitude_0.5_rep_7_t_K_2.0.png	 K	 t	 r	 n.a.	 5.236792e-01
9	 3	 364	 flanked	 bex	 32	 2.000000	 2.000000	 flanked_bex_freq_32_amplitude_2_rep_1_b_H_2.0.png	 H	 b	 b	 n.a.	 3.269747e-01
9	 3	 365	 flanked	 bex	 6	 3.000000	 2.000000	 flanked_bex_freq_6_amplitude_3_rep_4_t_D_2.0.png	 D	 t	 t	 n.a.	 3.565690e-01
9	 3	 366	 flanked	 bex	 8	 0.500000	 2.000000	 flanked_bex_freq_8_amplitude_0.5_rep_1_l_H_2.0.png	 H	 l	 t	 n.a.	 5.017363e-01
9	 3	 367	 flanked	 bex	 2	 1.000000	 2.000000	 flanked_bex_freq_2_amplitude_1_rep_9_t_D_2.0.png	 D	 t	 r	 n.a.	 2.788274e-01
9	 3	 368	 flanked	 bex	 8	 3.000000	 2.000000	 flanked_bex_freq_8_amplitude_3_rep_0_b_K_2.0.png	 K	 b	 b	 n.a.	 2.574966e-01
9	 3	 369	 flanked	 bex	 32	 0.250000	 2.000000	 flanked_bex_freq_32_amplitude_0.25_rep_1_t_K_2.0.png	 K	 t	 t	 n.a.	 3.406309e-01
9	 3	 370	 flanked	 bex	 16	 3.000000	 2.000000	 flanked_bex_freq_16_amplitude_3_rep_2_r_N_2.0.png	 N	 r	 r	 n.a.	 2.248853e-01
9	 3	 371	 flanked	 bex	 32	 2.500000	 2.000000	 flanked_bex_freq_32_amplitude_2.5_rep_6_r_K_2.0.png	 K	 r	 r	 n.a.	 3.111635e-01
9	 3	 372	 flanked	 bex	 4	 0.500000	 2.000000	 flanked_bex_freq_4_amplitude_0.5_rep_6_l_H_2.0.png	 H	 l	 r	 n.a.	 4.616884e-01
9	 3	 373	 flanked	 bex	 32	 0.250000	 2.000000	 flanked_bex_freq_32_amplitude_0.25_rep_5_r_K_2.0.png	 K	 r	 b	 n.a.	 3.927131e-01
9	 3	 374	 flanked	 bex	 2	 3.000000	 2.000000	 flanked_bex_freq_2_amplitude_3_rep_2_l_K_2.0.png	 K	 l	 l	 n.a.	 6.063315e-01
9	 3	 375	 flanked	 bex	 16	 2.000000	 2.000000	 flanked_bex_freq_16_amplitude_2_rep_5_b_N_2.0.png	 N	 b	 r	 n.a.	 2.520430e-01
9	 3	 376	 flanked	 bex	 32	 0.250000	 2.000000	 flanked_bex_freq_32_amplitude_0.25_rep_9_t_H_2.0.png	 H	 t	 b	 n.a.	 3.206498e-01
9	 3	 377	 flanked	 bex	 4	 1.000000	 2.000000	 flanked_bex_freq_4_amplitude_1_rep_7_l_D_2.0.png	 D	 l	 b	 n.a.	 3.612382e-01
9	 3	 378	 flanked	 bex	 6	 0.250000	 2.000000	 flanked_bex_freq_6_amplitude_0.25_rep_7_l_K_2.0.png	 K	 l	 r	 n.a.	 5.178838e-01
9	 3	 379	 flanked	 bex	 8	 2.000000	 2.000000	 flanked_bex_freq_8_amplitude_2_rep_9_l_D_2.0.png	 D	 l	 l	 n.a.	 3.338211e-01
9	 3	 380	 flanked	 bex	 4	 1.000000	 2.000000	 flanked_bex_freq_4_amplitude_1_rep_2_b_D_2.0.png	 D	 b	 r	 n.a.	 4.290485e-01
9	 3	 381	 flanked	 bex	 16	 0.500000	 2.000000	 flanked_bex_freq_16_amplitude_0.5_rep_3_l_D_2.0.png	 D	 l	 b	 n.a.	 4.083528e-01
9	 3	 382	 flanked	 bex	 4	 1.000000	 2.000000	 flanked_bex_freq_4_amplitude_1_rep_1_r_N_2.0.png	 N	 r	 t	 n.a.	 9.703346e-01
9	 3	 383	 flanked	 bex	 6	 3.000000	 2.000000	 flanked_bex_freq_6_amplitude_3_rep_5_b_K_2.0.png	 K	 b	 b	 n.a.	 2.754874e-01
9	 3	 384	 flanked	 bex	 8	 1.000000	 2.000000	 flanked_bex_freq_8_amplitude_1_rep_5_r_N_2.0.png	 N	 r	 b	 n.a.	 3.006610e-01
9	 3	 385	 flanked	 bex	 32	 1.000000	 2.000000	 flanked_bex_freq_32_amplitude_1_rep_2_l_H_2.0.png	 H	 l	 r	 n.a.	 3.865681e-01
9	 3	 386	 flanked	 bex	 2	 0.250000	 2.000000	 flanked_bex_freq_2_amplitude_0.25_rep_4_t_D_2.0.png	 D	 t	 l	 n.a.	 4.018975e-01
9	 3	 387	 flanked	 bex	 32	 2.500000	 2.000000	 flanked_bex_freq_32_amplitude_2.5_rep_1_r_D_2.0.png	 D	 r	 r	 n.a.	 4.663315e-01
9	 3	 388	 flanked	 bex	 6	 1.500000	 2.000000	 flanked_bex_freq_6_amplitude_1.5_rep_1_l_D_2.0.png	 D	 l	 r	 n.a.	 4.798791e-01
9	 3	 389	 flanked	 bex	 16	 1.000000	 2.000000	 flanked_bex_freq_16_amplitude_1_rep_9_t_D_2.0.png	 D	 t	 t	 n.a.	 7.706198e-01
9	 3	 390	 flanked	 bex	 4	 2.000000	 2.000000	 flanked_bex_freq_4_amplitude_2_rep_4_l_N_2.0.png	 N	 l	 l	 n.a.	 3.266483e-01
9	 3	 391	 flanked	 bex	 2	 0.500000	 2.000000	 flanked_bex_freq_2_amplitude_0.5_rep_6_b_H_2.0.png	 H	 b	 t	 n.a.	 4.614318e-01
9	 3	 392	 flanked	 bex	 2	 3.000000	 2.000000	 flanked_bex_freq_2_amplitude_3_rep_3_b_H_2.0.png	 H	 b	 b	 n.a.	 3.588350e-01
9	 3	 393	 flanked	 bex	 2	 0.500000	 2.000000	 flanked_bex_freq_2_amplitude_0.5_rep_9_r_K_2.0.png	 K	 r	 r	 n.a.	 4.700996e-01
9	 3	 394	 flanked	 bex	 6	 0.250000	 2.000000	 flanked_bex_freq_6_amplitude_0.25_rep_6_l_H_2.0.png	 H	 l	 l	 n.a.	 7.950291e-01
9	 3	 395	 flanked	 bex	 16	 0.500000	 2.000000	 flanked_bex_freq_16_amplitude_0.5_rep_8_t_H_2.0.png	 H	 t	 r	 n.a.	 5.472822e-01
9	 3	 396	 flanked	 bex	 8	 1.500000	 2.000000	 flanked_bex_freq_8_amplitude_1.5_rep_1_b_H_2.0.png	 H	 b	 b	 n.a.	 4.007468e-01
9	 3	 397	 flanked	 bex	 32	 0.500000	 2.000000	 flanked_bex_freq_32_amplitude_0.5_rep_3_t_N_2.0.png	 N	 t	 t	 n.a.	 5.987769e-01
9	 3	 398	 flanked	 bex	 4	 0.250000	 2.000000	 flanked_bex_freq_4_amplitude_0.25_rep_3_r_K_2.0.png	 K	 r	 t	 n.a.	 6.752832e-01
9	 3	 399	 flanked	 bex	 4	 2.000000	 2.000000	 flanked_bex_freq_4_amplitude_2_rep_3_r_H_2.0.png	 H	 r	 r	 n.a.	 3.184132e-01
9	 3	 400	 flanked	 bex	 6	 2.500000	 2.000000	 flanked_bex_freq_6_amplitude_2.5_rep_8_l_D_2.0.png	 D	 l	 l	 n.a.	 2.891893e-01
9	 3	 401	 flanked	 bex	 4	 0.250000	 2.000000	 flanked_bex_freq_4_amplitude_0.25_rep_5_b_D_2.0.png	 D	 b	 r	 n.a.	 4.138019e-01
9	 3	 402	 flanked	 bex	 6	 1.000000	 2.000000	 flanked_bex_freq_6_amplitude_1_rep_7_l_D_2.0.png	 D	 l	 b	 n.a.	 8.384083e-01
9	 3	 403	 flanked	 bex	 16	 1.000000	 2.000000	 flanked_bex_freq_16_amplitude_1_rep_6_l_N_2.0.png	 N	 l	 t	 n.a.	 4.882906e-01
9	 3	 404	 flanked	 bex	 16	 1.500000	 2.000000	 flanked_bex_freq_16_amplitude_1.5_rep_7_l_H_2.0.png	 H	 l	 l	 n.a.	 2.923168e-01
9	 3	 405	 flanked	 bex	 32	 2.000000	 2.000000	 flanked_bex_freq_32_amplitude_2_rep_2_b_N_2.0.png	 N	 b	 b	 n.a.	 6.020927e-01
9	 3	 406	 flanked	 bex	 16	 1.500000	 2.000000	 flanked_bex_freq_16_amplitude_1.5_rep_9_r_H_2.0.png	 H	 r	 r	 n.a.	 3.695175e-01
9	 3	 407	 flanked	 bex	 16	 3.000000	 2.000000	 flanked_bex_freq_16_amplitude_3_rep_6_b_N_2.0.png	 N	 b	 b	 n.a.	 3.170194e-01
9	 3	 408	 flanked	 bex	 6	 2.500000	 2.000000	 flanked_bex_freq_6_amplitude_2.5_rep_2_r_D_2.0.png	 D	 r	 r	 n.a.	 2.390048e-01
9	 3	 409	 flanked	 bex	 6	 0.500000	 2.000000	 flanked_bex_freq_6_amplitude_0.5_rep_2_t_K_2.0.png	 K	 t	 b	 n.a.	 8.928120e-01
9	 3	 410	 flanked	 bex	 8	 1.000000	 2.000000	 flanked_bex_freq_8_amplitude_1_rep_0_r_H_2.0.png	 H	 r	 r	 n.a.	 4.747594e-01
9	 3	 411	 flanked	 bex	 8	 3.000000	 2.000000	 flanked_bex_freq_8_amplitude_3_rep_3_b_D_2.0.png	 D	 b	 b	 n.a.	 2.883242e-01
9	 3	 412	 flanked	 bex	 6	 1.000000	 2.000000	 flanked_bex_freq_6_amplitude_1_rep_4_r_H_2.0.png	 H	 r	 l	 n.a.	 4.420089e-01
9	 3	 413	 flanked	 bex	 32	 3.000000	 2.000000	 flanked_bex_freq_32_amplitude_3_rep_4_b_N_2.0.png	 N	 b	 b	 n.a.	 3.334211e-01
9	 3	 414	 flanked	 bex	 2	 0.250000	 2.000000	 flanked_bex_freq_2_amplitude_0.25_rep_5_t_N_2.0.png	 N	 t	 b	 n.a.	 5.660033e-01
9	 3	 415	 flanked	 bex	 8	 0.250000	 2.000000	 flanked_bex_freq_8_amplitude_0.25_rep_2_r_N_2.0.png	 N	 r	 b	 n.a.	 6.086246e-01
9	 3	 416	 flanked	 bex	 16	 0.250000	 2.000000	 flanked_bex_freq_16_amplitude_0.25_rep_4_l_H_2.0.png	 H	 l	 b	 n.a.	 1.423239e+00
9	 3	 417	 flanked	 bex	 16	 1.000000	 2.000000	 flanked_bex_freq_16_amplitude_1_rep_4_r_H_2.0.png	 H	 r	 l	 n.a.	 8.355306e-01
9	 3	 418	 flanked	 bex	 16	 0.250000	 2.000000	 flanked_bex_freq_16_amplitude_0.25_rep_0_b_K_2.0.png	 K	 b	 b	 n.a.	 3.861310e-01
9	 3	 419	 flanked	 bex	 16	 1.500000	 2.000000	 flanked_bex_freq_16_amplitude_1.5_rep_6_b_K_2.0.png	 K	 b	 b	 n.a.	 4.209243e-01
9	 3	 420	 flanked	 bex	 32	 3.000000	 2.000000	 flanked_bex_freq_32_amplitude_3_rep_3_t_D_2.0.png	 D	 t	 t	 n.a.	 6.639949e-01
