subject	 session	 trial	 flanked	 distortion	 freq	 amplitude	 spacing	 im_name	 targ_letter	 targ_pos	 response	 eyemovement	 RT
9	 2	 1	 unflanked	 rf	 3	 0.268300	 0.000000	 unflanked_rf_freq_3_amplitude_0.2683_rep_2_r_N.png	 N	 r	 r	 n.a.	 2.665230e-01
9	 2	 2	 unflanked	 rf	 12	 0.268300	 0.000000	 unflanked_rf_freq_12_amplitude_0.2683_rep_2_l_H.png	 H	 l	 l	 n.a.	 2.396451e-01
9	 2	 3	 unflanked	 rf	 2	 0.268300	 0.000000	 unflanked_rf_freq_2_amplitude_0.2683_rep_3_r_H.png	 H	 r	 r	 n.a.	 2.569542e-01
9	 2	 4	 unflanked	 rf	 12	 0.165000	 0.000000	 unflanked_rf_freq_12_amplitude_0.165_rep_4_b_H.png	 H	 b	 b	 n.a.	 2.542213e-01
9	 2	 5	 unflanked	 rf	 8	 0.165000	 0.000000	 unflanked_rf_freq_8_amplitude_0.165_rep_6_b_H.png	 H	 b	 b	 n.a.	 2.561237e-01
9	 2	 6	 unflanked	 rf	 8	 0.010000	 0.000000	 unflanked_rf_freq_8_amplitude_0.01_rep_0_t_D.png	 D	 t	 l	 n.a.	 6.929351e-01
9	 2	 7	 unflanked	 rf	 2	 0.061700	 0.000000	 unflanked_rf_freq_2_amplitude_0.0617_rep_3_b_N.png	 N	 b	 b	 n.a.	 5.355773e-01
9	 2	 8	 unflanked	 rf	 4	 0.216700	 0.000000	 unflanked_rf_freq_4_amplitude_0.2167_rep_8_t_H.png	 H	 t	 l	 n.a.	 6.924648e-01
9	 2	 9	 unflanked	 rf	 4	 0.061700	 0.000000	 unflanked_rf_freq_4_amplitude_0.0617_rep_0_r_D.png	 D	 r	 l	 n.a.	 6.744050e-01
9	 2	 10	 unflanked	 rf	 4	 0.216700	 0.000000	 unflanked_rf_freq_4_amplitude_0.2167_rep_9_l_N.png	 N	 l	 l	 n.a.	 4.188402e-01
9	 2	 11	 unflanked	 rf	 4	 0.165000	 0.000000	 unflanked_rf_freq_4_amplitude_0.165_rep_1_b_H.png	 H	 b	 b	 n.a.	 4.250050e-01
9	 2	 12	 unflanked	 rf	 2	 0.320000	 0.000000	 unflanked_rf_freq_2_amplitude_0.32_rep_1_r_N.png	 N	 r	 r	 n.a.	 4.236965e-01
9	 2	 13	 unflanked	 rf	 4	 0.268300	 0.000000	 unflanked_rf_freq_4_amplitude_0.2683_rep_5_t_N.png	 N	 t	 t	 n.a.	 3.765358e-01
9	 2	 14	 unflanked	 rf	 2	 0.061700	 0.000000	 unflanked_rf_freq_2_amplitude_0.0617_rep_9_b_H.png	 H	 b	 l	 n.a.	 4.452229e-01
9	 2	 15	 unflanked	 rf	 3	 0.113300	 0.000000	 unflanked_rf_freq_3_amplitude_0.1133_rep_9_l_K.png	 K	 l	 r	 n.a.	 4.948795e-01
9	 2	 16	 unflanked	 rf	 12	 0.216700	 0.000000	 unflanked_rf_freq_12_amplitude_0.2167_rep_5_l_K.png	 K	 l	 l	 n.a.	 2.323555e-01
9	 2	 17	 unflanked	 rf	 2	 0.010000	 0.000000	 unflanked_rf_freq_2_amplitude_0.01_rep_5_l_H.png	 H	 l	 b	 n.a.	 2.600674e-01
9	 2	 18	 unflanked	 rf	 8	 0.113300	 0.000000	 unflanked_rf_freq_8_amplitude_0.1133_rep_3_r_H.png	 H	 r	 r	 n.a.	 3.327498e-01
9	 2	 19	 unflanked	 rf	 8	 0.268300	 0.000000	 unflanked_rf_freq_8_amplitude_0.2683_rep_0_t_K.png	 K	 t	 t	 n.a.	 2.987192e-01
9	 2	 20	 unflanked	 rf	 3	 0.320000	 0.000000	 unflanked_rf_freq_3_amplitude_0.32_rep_2_r_H.png	 H	 r	 r	 n.a.	 2.659446e-01
9	 2	 21	 unflanked	 rf	 5	 0.010000	 0.000000	 unflanked_rf_freq_5_amplitude_0.01_rep_7_l_N.png	 N	 l	 t	 n.a.	 3.444748e-01
9	 2	 22	 unflanked	 rf	 12	 0.010000	 0.000000	 unflanked_rf_freq_12_amplitude_0.01_rep_7_l_K.png	 K	 l	 l	 n.a.	 6.650615e-01
9	 2	 23	 unflanked	 rf	 12	 0.165000	 0.000000	 unflanked_rf_freq_12_amplitude_0.165_rep_2_r_H.png	 H	 r	 r	 n.a.	 2.877456e-01
9	 2	 24	 unflanked	 rf	 2	 0.061700	 0.000000	 unflanked_rf_freq_2_amplitude_0.0617_rep_7_t_H.png	 H	 t	 b	 n.a.	 8.567766e-01
9	 2	 25	 unflanked	 rf	 4	 0.320000	 0.000000	 unflanked_rf_freq_4_amplitude_0.32_rep_7_r_H.png	 H	 r	 r	 n.a.	 2.538530e-01
9	 2	 26	 unflanked	 rf	 3	 0.268300	 0.000000	 unflanked_rf_freq_3_amplitude_0.2683_rep_9_l_H.png	 H	 l	 l	 n.a.	 2.643291e-01
9	 2	 27	 unflanked	 rf	 8	 0.268300	 0.000000	 unflanked_rf_freq_8_amplitude_0.2683_rep_6_b_D.png	 D	 b	 b	 n.a.	 4.096398e-01
9	 2	 28	 unflanked	 rf	 3	 0.010000	 0.000000	 unflanked_rf_freq_3_amplitude_0.01_rep_4_b_K.png	 K	 b	 b	 n.a.	 2.873727e-01
9	 2	 29	 unflanked	 rf	 2	 0.010000	 0.000000	 unflanked_rf_freq_2_amplitude_0.01_rep_4_t_D.png	 D	 t	 b	 n.a.	 4.513013e-01
9	 2	 30	 unflanked	 rf	 3	 0.165000	 0.000000	 unflanked_rf_freq_3_amplitude_0.165_rep_8_t_H.png	 H	 t	 b	 n.a.	 3.785750e-01
9	 2	 31	 unflanked	 rf	 4	 0.216700	 0.000000	 unflanked_rf_freq_4_amplitude_0.2167_rep_6_b_D.png	 D	 b	 b	 n.a.	 3.081412e-01
9	 2	 32	 unflanked	 rf	 2	 0.113300	 0.000000	 unflanked_rf_freq_2_amplitude_0.1133_rep_7_t_D.png	 D	 t	 b	 n.a.	 4.428535e-01
9	 2	 33	 unflanked	 rf	 8	 0.268300	 0.000000	 unflanked_rf_freq_8_amplitude_0.2683_rep_3_b_N.png	 N	 b	 b	 n.a.	 3.223280e-01
9	 2	 34	 unflanked	 rf	 8	 0.113300	 0.000000	 unflanked_rf_freq_8_amplitude_0.1133_rep_7_r_K.png	 K	 r	 r	 n.a.	 2.336928e-01
9	 2	 35	 unflanked	 rf	 2	 0.216700	 0.000000	 unflanked_rf_freq_2_amplitude_0.2167_rep_5_r_H.png	 H	 r	 t	 n.a.	 8.249056e-01
9	 2	 36	 unflanked	 rf	 4	 0.216700	 0.000000	 unflanked_rf_freq_4_amplitude_0.2167_rep_3_l_H.png	 H	 l	 l	 n.a.	 2.582200e-01
9	 2	 37	 unflanked	 rf	 8	 0.216700	 0.000000	 unflanked_rf_freq_8_amplitude_0.2167_rep_4_l_K.png	 K	 l	 l	 n.a.	 2.834431e-01
9	 2	 38	 unflanked	 rf	 5	 0.061700	 0.000000	 unflanked_rf_freq_5_amplitude_0.0617_rep_3_r_K.png	 K	 r	 r	 n.a.	 6.960909e-01
9	 2	 39	 unflanked	 rf	 12	 0.268300	 0.000000	 unflanked_rf_freq_12_amplitude_0.2683_rep_0_b_K.png	 K	 b	 b	 n.a.	 3.056446e-01
9	 2	 40	 unflanked	 rf	 5	 0.010000	 0.000000	 unflanked_rf_freq_5_amplitude_0.01_rep_9_b_K.png	 K	 b	 b	 n.a.	 3.856581e-01
9	 2	 41	 unflanked	 rf	 8	 0.010000	 0.000000	 unflanked_rf_freq_8_amplitude_0.01_rep_6_t_H.png	 H	 t	 r	 n.a.	 9.655750e-01
9	 2	 42	 unflanked	 rf	 3	 0.165000	 0.000000	 unflanked_rf_freq_3_amplitude_0.165_rep_0_b_H.png	 H	 b	 b	 n.a.	 5.226382e-01
9	 2	 43	 unflanked	 rf	 12	 0.268300	 0.000000	 unflanked_rf_freq_12_amplitude_0.2683_rep_6_l_K.png	 K	 l	 l	 n.a.	 5.546057e-01
9	 2	 44	 unflanked	 rf	 3	 0.113300	 0.000000	 unflanked_rf_freq_3_amplitude_0.1133_rep_2_r_H.png	 H	 r	 r	 n.a.	 7.047141e-01
9	 2	 45	 unflanked	 rf	 12	 0.268300	 0.000000	 unflanked_rf_freq_12_amplitude_0.2683_rep_8_r_D.png	 D	 r	 r	 n.a.	 2.878717e-01
9	 2	 46	 unflanked	 rf	 8	 0.061700	 0.000000	 unflanked_rf_freq_8_amplitude_0.0617_rep_4_r_N.png	 N	 r	 l	 n.a.	 6.822628e-01
9	 2	 47	 unflanked	 rf	 3	 0.320000	 0.000000	 unflanked_rf_freq_3_amplitude_0.32_rep_1_b_H.png	 H	 b	 b	 n.a.	 5.133800e-01
9	 2	 48	 unflanked	 rf	 2	 0.216700	 0.000000	 unflanked_rf_freq_2_amplitude_0.2167_rep_6_t_H.png	 H	 t	 t	 n.a.	 7.029897e-01
9	 2	 49	 unflanked	 rf	 4	 0.216700	 0.000000	 unflanked_rf_freq_4_amplitude_0.2167_rep_0_b_N.png	 N	 b	 b	 n.a.	 2.594156e-01
9	 2	 50	 unflanked	 rf	 12	 0.061700	 0.000000	 unflanked_rf_freq_12_amplitude_0.0617_rep_6_b_N.png	 N	 b	 r	 n.a.	 4.378872e-01
9	 2	 51	 unflanked	 rf	 2	 0.216700	 0.000000	 unflanked_rf_freq_2_amplitude_0.2167_rep_3_r_D.png	 D	 r	 t	 n.a.	 6.404964e-01
9	 2	 52	 unflanked	 rf	 12	 0.320000	 0.000000	 unflanked_rf_freq_12_amplitude_0.32_rep_9_t_N.png	 N	 t	 t	 n.a.	 3.115267e-01
9	 2	 53	 unflanked	 rf	 5	 0.320000	 0.000000	 unflanked_rf_freq_5_amplitude_0.32_rep_5_r_K.png	 K	 r	 r	 n.a.	 3.868201e-01
9	 2	 54	 unflanked	 rf	 4	 0.113300	 0.000000	 unflanked_rf_freq_4_amplitude_0.1133_rep_6_t_N.png	 N	 t	 r	 n.a.	 8.775722e-01
9	 2	 55	 unflanked	 rf	 12	 0.165000	 0.000000	 unflanked_rf_freq_12_amplitude_0.165_rep_7_b_K.png	 K	 b	 b	 n.a.	 2.252196e-01
9	 2	 56	 unflanked	 rf	 2	 0.320000	 0.000000	 unflanked_rf_freq_2_amplitude_0.32_rep_2_b_K.png	 K	 b	 b	 n.a.	 5.595629e-01
9	 2	 57	 unflanked	 rf	 5	 0.216700	 0.000000	 unflanked_rf_freq_5_amplitude_0.2167_rep_9_t_K.png	 K	 t	 t	 n.a.	 2.821502e-01
9	 2	 58	 unflanked	 rf	 4	 0.320000	 0.000000	 unflanked_rf_freq_4_amplitude_0.32_rep_1_t_H.png	 H	 t	 t	 n.a.	 3.142634e-01
9	 2	 59	 unflanked	 rf	 8	 0.061700	 0.000000	 unflanked_rf_freq_8_amplitude_0.0617_rep_7_l_D.png	 D	 l	 l	 n.a.	 3.352473e-01
9	 2	 60	 unflanked	 rf	 5	 0.113300	 0.000000	 unflanked_rf_freq_5_amplitude_0.1133_rep_8_r_K.png	 K	 r	 r	 n.a.	 5.372378e-01
9	 2	 61	 unflanked	 rf	 5	 0.268300	 0.000000	 unflanked_rf_freq_5_amplitude_0.2683_rep_6_l_D.png	 D	 l	 l	 n.a.	 6.356826e-01
9	 2	 62	 unflanked	 rf	 5	 0.320000	 0.000000	 unflanked_rf_freq_5_amplitude_0.32_rep_2_l_H.png	 H	 l	 l	 n.a.	 3.260620e-01
9	 2	 63	 unflanked	 rf	 5	 0.268300	 0.000000	 unflanked_rf_freq_5_amplitude_0.2683_rep_0_r_N.png	 N	 r	 r	 n.a.	 2.730656e-01
9	 2	 64	 unflanked	 rf	 12	 0.165000	 0.000000	 unflanked_rf_freq_12_amplitude_0.165_rep_6_b_K.png	 K	 b	 b	 n.a.	 2.788674e-01
9	 2	 65	 unflanked	 rf	 12	 0.320000	 0.000000	 unflanked_rf_freq_12_amplitude_0.32_rep_7_t_K.png	 K	 t	 t	 n.a.	 2.869165e-01
9	 2	 66	 unflanked	 rf	 12	 0.165000	 0.000000	 unflanked_rf_freq_12_amplitude_0.165_rep_8_t_N.png	 N	 t	 t	 n.a.	 4.258715e-01
9	 2	 67	 unflanked	 rf	 8	 0.165000	 0.000000	 unflanked_rf_freq_8_amplitude_0.165_rep_5_l_N.png	 N	 l	 l	 n.a.	 3.093698e-01
9	 2	 68	 unflanked	 rf	 2	 0.010000	 0.000000	 unflanked_rf_freq_2_amplitude_0.01_rep_8_b_H.png	 H	 b	 t	 n.a.	 2.639098e-01
9	 2	 69	 unflanked	 rf	 5	 0.061700	 0.000000	 unflanked_rf_freq_5_amplitude_0.0617_rep_2_t_D.png	 D	 t	 b	 n.a.	 1.128970e+00
9	 2	 70	 unflanked	 rf	 3	 0.010000	 0.000000	 unflanked_rf_freq_3_amplitude_0.01_rep_9_t_N.png	 N	 t	 t	 n.a.	 8.605388e-01
9	 2	 71	 unflanked	 rf	 2	 0.320000	 0.000000	 unflanked_rf_freq_2_amplitude_0.32_rep_4_t_H.png	 H	 t	 t	 n.a.	 3.230352e-01
9	 2	 72	 unflanked	 rf	 5	 0.320000	 0.000000	 unflanked_rf_freq_5_amplitude_0.32_rep_8_r_N.png	 N	 r	 r	 n.a.	 3.130316e-01
9	 2	 73	 unflanked	 rf	 5	 0.268300	 0.000000	 unflanked_rf_freq_5_amplitude_0.2683_rep_3_r_K.png	 K	 r	 r	 n.a.	 2.150272e-01
9	 2	 74	 unflanked	 rf	 3	 0.010000	 0.000000	 unflanked_rf_freq_3_amplitude_0.01_rep_2_r_H.png	 H	 r	 t	 n.a.	 3.611934e-01
9	 2	 75	 unflanked	 rf	 4	 0.010000	 0.000000	 unflanked_rf_freq_4_amplitude_0.01_rep_1_r_D.png	 D	 r	 b	 n.a.	 6.896077e-01
9	 2	 76	 unflanked	 rf	 4	 0.165000	 0.000000	 unflanked_rf_freq_4_amplitude_0.165_rep_6_b_D.png	 D	 b	 b	 n.a.	 3.094891e-01
9	 2	 77	 unflanked	 rf	 4	 0.113300	 0.000000	 unflanked_rf_freq_4_amplitude_0.1133_rep_0_t_K.png	 K	 t	 t	 n.a.	 3.952781e-01
9	 2	 78	 unflanked	 rf	 12	 0.010000	 0.000000	 unflanked_rf_freq_12_amplitude_0.01_rep_6_r_K.png	 K	 r	 b	 n.a.	 4.908111e-01
9	 2	 79	 unflanked	 rf	 12	 0.216700	 0.000000	 unflanked_rf_freq_12_amplitude_0.2167_rep_0_b_N.png	 N	 b	 b	 n.a.	 2.338680e-01
9	 2	 80	 unflanked	 rf	 2	 0.113300	 0.000000	 unflanked_rf_freq_2_amplitude_0.1133_rep_4_t_N.png	 N	 t	 b	 n.a.	 3.449549e-01
9	 2	 81	 unflanked	 rf	 5	 0.113300	 0.000000	 unflanked_rf_freq_5_amplitude_0.1133_rep_2_b_N.png	 N	 b	 b	 n.a.	 2.366512e-01
9	 2	 82	 unflanked	 rf	 8	 0.268300	 0.000000	 unflanked_rf_freq_8_amplitude_0.2683_rep_7_r_H.png	 H	 r	 r	 n.a.	 1.841378e-01
9	 2	 83	 unflanked	 rf	 3	 0.010000	 0.000000	 unflanked_rf_freq_3_amplitude_0.01_rep_6_r_K.png	 K	 r	 r	 n.a.	 2.939780e-01
9	 2	 84	 unflanked	 rf	 2	 0.165000	 0.000000	 unflanked_rf_freq_2_amplitude_0.165_rep_4_t_D.png	 D	 t	 l	 n.a.	 6.410708e-01
9	 2	 85	 unflanked	 rf	 12	 0.165000	 0.000000	 unflanked_rf_freq_12_amplitude_0.165_rep_0_b_N.png	 N	 b	 b	 n.a.	 2.250825e-01
9	 2	 86	 unflanked	 rf	 8	 0.165000	 0.000000	 unflanked_rf_freq_8_amplitude_0.165_rep_1_b_N.png	 N	 b	 b	 n.a.	 2.223173e-01
9	 2	 87	 unflanked	 rf	 2	 0.010000	 0.000000	 unflanked_rf_freq_2_amplitude_0.01_rep_3_t_N.png	 N	 t	 r	 n.a.	 5.079679e-01
9	 2	 88	 unflanked	 rf	 8	 0.113300	 0.000000	 unflanked_rf_freq_8_amplitude_0.1133_rep_1_t_H.png	 H	 t	 t	 n.a.	 3.491113e-01
9	 2	 89	 unflanked	 rf	 4	 0.320000	 0.000000	 unflanked_rf_freq_4_amplitude_0.32_rep_4_l_H.png	 H	 l	 l	 n.a.	 3.111832e-01
9	 2	 90	 unflanked	 rf	 8	 0.268300	 0.000000	 unflanked_rf_freq_8_amplitude_0.2683_rep_9_t_K.png	 K	 t	 t	 n.a.	 2.684879e-01
9	 2	 91	 unflanked	 rf	 2	 0.320000	 0.000000	 unflanked_rf_freq_2_amplitude_0.32_rep_0_l_D.png	 D	 l	 l	 n.a.	 3.292361e-01
9	 2	 92	 unflanked	 rf	 4	 0.165000	 0.000000	 unflanked_rf_freq_4_amplitude_0.165_rep_2_t_K.png	 K	 t	 t	 n.a.	 2.900815e-01
9	 2	 93	 unflanked	 rf	 3	 0.165000	 0.000000	 unflanked_rf_freq_3_amplitude_0.165_rep_7_r_D.png	 D	 r	 r	 n.a.	 3.825669e-01
9	 2	 94	 unflanked	 rf	 5	 0.165000	 0.000000	 unflanked_rf_freq_5_amplitude_0.165_rep_3_b_N.png	 N	 b	 t	 n.a.	 4.819749e-01
9	 2	 95	 unflanked	 rf	 2	 0.165000	 0.000000	 unflanked_rf_freq_2_amplitude_0.165_rep_0_l_D.png	 D	 l	 l	 n.a.	 6.500430e-01
9	 2	 96	 unflanked	 rf	 5	 0.268300	 0.000000	 unflanked_rf_freq_5_amplitude_0.2683_rep_1_l_N.png	 N	 l	 l	 n.a.	 2.847940e-01
9	 2	 97	 unflanked	 rf	 8	 0.165000	 0.000000	 unflanked_rf_freq_8_amplitude_0.165_rep_8_r_D.png	 D	 r	 r	 n.a.	 2.701937e-01
9	 2	 98	 unflanked	 rf	 3	 0.010000	 0.000000	 unflanked_rf_freq_3_amplitude_0.01_rep_7_b_K.png	 K	 b	 t	 n.a.	 7.557687e-01
9	 2	 99	 unflanked	 rf	 4	 0.061700	 0.000000	 unflanked_rf_freq_4_amplitude_0.0617_rep_5_l_N.png	 N	 l	 l	 n.a.	 3.720172e-01
9	 2	 100	 unflanked	 rf	 8	 0.268300	 0.000000	 unflanked_rf_freq_8_amplitude_0.2683_rep_8_l_K.png	 K	 l	 l	 n.a.	 2.661821e-01
9	 2	 101	 unflanked	 rf	 4	 0.165000	 0.000000	 unflanked_rf_freq_4_amplitude_0.165_rep_0_r_K.png	 K	 r	 r	 n.a.	 4.285094e-01
9	 2	 102	 unflanked	 rf	 4	 0.010000	 0.000000	 unflanked_rf_freq_4_amplitude_0.01_rep_9_t_K.png	 K	 t	 r	 n.a.	 7.866223e-01
9	 2	 103	 unflanked	 rf	 5	 0.061700	 0.000000	 unflanked_rf_freq_5_amplitude_0.0617_rep_0_r_H.png	 H	 r	 r	 n.a.	 3.953469e-01
9	 2	 104	 unflanked	 rf	 4	 0.113300	 0.000000	 unflanked_rf_freq_4_amplitude_0.1133_rep_3_b_H.png	 H	 b	 b	 n.a.	 3.300592e-01
9	 2	 105	 unflanked	 rf	 2	 0.268300	 0.000000	 unflanked_rf_freq_2_amplitude_0.2683_rep_8_r_H.png	 H	 r	 r	 n.a.	 4.630227e-01
9	 2	 106	 unflanked	 rf	 2	 0.320000	 0.000000	 unflanked_rf_freq_2_amplitude_0.32_rep_3_l_N.png	 N	 l	 l	 n.a.	 5.276407e-01
9	 2	 107	 unflanked	 rf	 3	 0.216700	 0.000000	 unflanked_rf_freq_3_amplitude_0.2167_rep_6_l_D.png	 D	 l	 l	 n.a.	 3.498278e-01
9	 2	 108	 unflanked	 rf	 2	 0.113300	 0.000000	 unflanked_rf_freq_2_amplitude_0.1133_rep_9_t_D.png	 D	 t	 b	 n.a.	 4.091043e-01
9	 2	 109	 unflanked	 rf	 8	 0.165000	 0.000000	 unflanked_rf_freq_8_amplitude_0.165_rep_3_t_N.png	 N	 t	 t	 n.a.	 4.715588e-01
9	 2	 110	 unflanked	 rf	 2	 0.268300	 0.000000	 unflanked_rf_freq_2_amplitude_0.2683_rep_7_t_N.png	 N	 t	 t	 n.a.	 2.679233e-01
9	 2	 111	 unflanked	 rf	 12	 0.010000	 0.000000	 unflanked_rf_freq_12_amplitude_0.01_rep_8_b_D.png	 D	 b	 r	 n.a.	 3.876680e-01
9	 2	 112	 unflanked	 rf	 4	 0.061700	 0.000000	 unflanked_rf_freq_4_amplitude_0.0617_rep_3_b_D.png	 D	 b	 t	 n.a.	 2.512443e-01
9	 2	 113	 unflanked	 rf	 2	 0.165000	 0.000000	 unflanked_rf_freq_2_amplitude_0.165_rep_7_r_K.png	 K	 r	 r	 n.a.	 3.111604e-01
9	 2	 114	 unflanked	 rf	 3	 0.113300	 0.000000	 unflanked_rf_freq_3_amplitude_0.1133_rep_0_t_N.png	 N	 t	 r	 n.a.	 6.706945e-01
9	 2	 115	 unflanked	 rf	 3	 0.320000	 0.000000	 unflanked_rf_freq_3_amplitude_0.32_rep_4_r_N.png	 N	 r	 r	 n.a.	 2.964134e-01
9	 2	 116	 unflanked	 rf	 3	 0.268300	 0.000000	 unflanked_rf_freq_3_amplitude_0.2683_rep_8_r_H.png	 H	 r	 r	 n.a.	 4.273571e-01
9	 2	 117	 unflanked	 rf	 8	 0.165000	 0.000000	 unflanked_rf_freq_8_amplitude_0.165_rep_4_r_H.png	 H	 r	 r	 n.a.	 3.445311e-01
9	 2	 118	 unflanked	 rf	 4	 0.061700	 0.000000	 unflanked_rf_freq_4_amplitude_0.0617_rep_6_b_N.png	 N	 b	 t	 n.a.	 7.193120e-01
9	 2	 119	 unflanked	 rf	 5	 0.010000	 0.000000	 unflanked_rf_freq_5_amplitude_0.01_rep_3_t_K.png	 K	 t	 r	 n.a.	 5.076378e-01
9	 2	 120	 unflanked	 rf	 12	 0.216700	 0.000000	 unflanked_rf_freq_12_amplitude_0.2167_rep_1_l_D.png	 D	 l	 l	 n.a.	 2.722243e-01
9	 2	 121	 unflanked	 rf	 3	 0.268300	 0.000000	 unflanked_rf_freq_3_amplitude_0.2683_rep_0_r_D.png	 D	 r	 l	 n.a.	 9.413323e-01
9	 2	 122	 unflanked	 rf	 12	 0.268300	 0.000000	 unflanked_rf_freq_12_amplitude_0.2683_rep_1_b_N.png	 N	 b	 b	 n.a.	 1.973446e-01
9	 2	 123	 unflanked	 rf	 3	 0.268300	 0.000000	 unflanked_rf_freq_3_amplitude_0.2683_rep_5_b_D.png	 D	 b	 b	 n.a.	 2.555724e-01
9	 2	 124	 unflanked	 rf	 5	 0.061700	 0.000000	 unflanked_rf_freq_5_amplitude_0.0617_rep_5_t_D.png	 D	 t	 b	 n.a.	 2.380724e-01
9	 2	 125	 unflanked	 rf	 8	 0.010000	 0.000000	 unflanked_rf_freq_8_amplitude_0.01_rep_1_r_H.png	 H	 r	 b	 n.a.	 7.224717e-01
9	 2	 126	 unflanked	 rf	 4	 0.320000	 0.000000	 unflanked_rf_freq_4_amplitude_0.32_rep_6_t_N.png	 N	 t	 t	 n.a.	 2.551115e-01
9	 2	 127	 unflanked	 rf	 8	 0.010000	 0.000000	 unflanked_rf_freq_8_amplitude_0.01_rep_3_l_N.png	 N	 l	 b	 n.a.	 1.048522e+00
9	 2	 128	 unflanked	 rf	 8	 0.061700	 0.000000	 unflanked_rf_freq_8_amplitude_0.0617_rep_8_b_N.png	 N	 b	 r	 n.a.	 7.675060e-01
9	 2	 129	 unflanked	 rf	 12	 0.010000	 0.000000	 unflanked_rf_freq_12_amplitude_0.01_rep_0_b_K.png	 K	 b	 b	 n.a.	 9.691961e-01
9	 2	 130	 unflanked	 rf	 4	 0.320000	 0.000000	 unflanked_rf_freq_4_amplitude_0.32_rep_0_t_K.png	 K	 t	 t	 n.a.	 3.097320e-01
9	 2	 131	 unflanked	 rf	 3	 0.010000	 0.000000	 unflanked_rf_freq_3_amplitude_0.01_rep_8_l_D.png	 D	 l	 b	 n.a.	 9.210178e-01
9	 2	 132	 unflanked	 rf	 12	 0.113300	 0.000000	 unflanked_rf_freq_12_amplitude_0.1133_rep_1_b_D.png	 D	 b	 l	 n.a.	 9.689436e-01
9	 2	 133	 unflanked	 rf	 5	 0.113300	 0.000000	 unflanked_rf_freq_5_amplitude_0.1133_rep_6_l_H.png	 H	 l	 l	 n.a.	 6.756608e-01
9	 2	 134	 unflanked	 rf	 3	 0.320000	 0.000000	 unflanked_rf_freq_3_amplitude_0.32_rep_8_r_K.png	 K	 r	 r	 n.a.	 3.544747e-01
9	 2	 135	 unflanked	 rf	 12	 0.268300	 0.000000	 unflanked_rf_freq_12_amplitude_0.2683_rep_7_r_H.png	 H	 r	 r	 n.a.	 3.267256e-01
9	 2	 136	 unflanked	 rf	 8	 0.165000	 0.000000	 unflanked_rf_freq_8_amplitude_0.165_rep_2_r_D.png	 D	 r	 r	 n.a.	 2.735225e-01
9	 2	 137	 unflanked	 rf	 5	 0.165000	 0.000000	 unflanked_rf_freq_5_amplitude_0.165_rep_1_b_N.png	 N	 b	 b	 n.a.	 2.883991e-01
9	 2	 138	 unflanked	 rf	 2	 0.216700	 0.000000	 unflanked_rf_freq_2_amplitude_0.2167_rep_7_t_H.png	 H	 t	 t	 n.a.	 8.045989e-01
9	 2	 139	 unflanked	 rf	 4	 0.320000	 0.000000	 unflanked_rf_freq_4_amplitude_0.32_rep_5_r_D.png	 D	 r	 r	 n.a.	 2.796371e-01
9	 2	 140	 unflanked	 rf	 4	 0.165000	 0.000000	 unflanked_rf_freq_4_amplitude_0.165_rep_3_b_D.png	 D	 b	 b	 n.a.	 2.775782e-01
9	 2	 141	 unflanked	 rf	 3	 0.320000	 0.000000	 unflanked_rf_freq_3_amplitude_0.32_rep_5_b_H.png	 H	 b	 b	 n.a.	 3.285616e-01
9	 2	 142	 unflanked	 rf	 8	 0.010000	 0.000000	 unflanked_rf_freq_8_amplitude_0.01_rep_5_r_H.png	 H	 r	 t	 n.a.	 2.508593e-01
9	 2	 143	 unflanked	 rf	 5	 0.113300	 0.000000	 unflanked_rf_freq_5_amplitude_0.1133_rep_7_l_D.png	 D	 l	 l	 n.a.	 3.412940e-01
9	 2	 144	 unflanked	 rf	 5	 0.165000	 0.000000	 unflanked_rf_freq_5_amplitude_0.165_rep_7_t_K.png	 K	 t	 t	 n.a.	 4.837115e-01
9	 2	 145	 unflanked	 rf	 12	 0.061700	 0.000000	 unflanked_rf_freq_12_amplitude_0.0617_rep_9_b_K.png	 K	 b	 b	 n.a.	 2.310074e-01
9	 2	 146	 unflanked	 rf	 4	 0.268300	 0.000000	 unflanked_rf_freq_4_amplitude_0.2683_rep_2_l_N.png	 N	 l	 l	 n.a.	 2.782633e-01
9	 2	 147	 unflanked	 rf	 2	 0.113300	 0.000000	 unflanked_rf_freq_2_amplitude_0.1133_rep_8_l_N.png	 N	 l	 r	 n.a.	 2.193932e-01
9	 2	 148	 unflanked	 rf	 2	 0.113300	 0.000000	 unflanked_rf_freq_2_amplitude_0.1133_rep_6_l_N.png	 N	 l	 b	 n.a.	 8.337172e-01
9	 2	 149	 unflanked	 rf	 8	 0.061700	 0.000000	 unflanked_rf_freq_8_amplitude_0.0617_rep_5_t_K.png	 K	 t	 t	 n.a.	 4.175631e-01
9	 2	 150	 unflanked	 rf	 5	 0.061700	 0.000000	 unflanked_rf_freq_5_amplitude_0.0617_rep_6_r_D.png	 D	 r	 b	 n.a.	 7.375383e-01
9	 2	 151	 unflanked	 rf	 5	 0.010000	 0.000000	 unflanked_rf_freq_5_amplitude_0.01_rep_2_b_K.png	 K	 b	 t	 n.a.	 1.204849e+00
9	 2	 152	 unflanked	 rf	 5	 0.165000	 0.000000	 unflanked_rf_freq_5_amplitude_0.165_rep_8_r_K.png	 K	 r	 r	 n.a.	 2.322111e-01
9	 2	 153	 unflanked	 rf	 3	 0.113300	 0.000000	 unflanked_rf_freq_3_amplitude_0.1133_rep_6_t_D.png	 D	 t	 t	 n.a.	 4.929022e-01
9	 2	 154	 unflanked	 rf	 12	 0.113300	 0.000000	 unflanked_rf_freq_12_amplitude_0.1133_rep_3_r_H.png	 H	 r	 r	 n.a.	 2.998738e-01
9	 2	 155	 unflanked	 rf	 3	 0.165000	 0.000000	 unflanked_rf_freq_3_amplitude_0.165_rep_9_l_N.png	 N	 l	 l	 n.a.	 2.680594e-01
9	 2	 156	 unflanked	 rf	 2	 0.216700	 0.000000	 unflanked_rf_freq_2_amplitude_0.2167_rep_2_b_H.png	 H	 b	 l	 n.a.	 5.587913e-01
9	 2	 157	 unflanked	 rf	 4	 0.010000	 0.000000	 unflanked_rf_freq_4_amplitude_0.01_rep_8_t_N.png	 N	 t	 b	 n.a.	 7.692529e-01
9	 2	 158	 unflanked	 rf	 3	 0.061700	 0.000000	 unflanked_rf_freq_3_amplitude_0.0617_rep_2_r_N.png	 N	 r	 b	 n.a.	 2.879505e-01
9	 2	 159	 unflanked	 rf	 8	 0.268300	 0.000000	 unflanked_rf_freq_8_amplitude_0.2683_rep_5_b_N.png	 N	 b	 b	 n.a.	 2.415535e-01
9	 2	 160	 unflanked	 rf	 4	 0.113300	 0.000000	 unflanked_rf_freq_4_amplitude_0.1133_rep_1_l_D.png	 D	 l	 t	 n.a.	 7.363814e-01
9	 2	 161	 unflanked	 rf	 4	 0.320000	 0.000000	 unflanked_rf_freq_4_amplitude_0.32_rep_2_l_H.png	 H	 l	 l	 n.a.	 2.687848e-01
9	 2	 162	 unflanked	 rf	 8	 0.113300	 0.000000	 unflanked_rf_freq_8_amplitude_0.1133_rep_6_l_N.png	 N	 l	 l	 n.a.	 2.985660e-01
9	 2	 163	 unflanked	 rf	 3	 0.216700	 0.000000	 unflanked_rf_freq_3_amplitude_0.2167_rep_4_t_N.png	 N	 t	 t	 n.a.	 3.603902e-01
9	 2	 164	 unflanked	 rf	 3	 0.061700	 0.000000	 unflanked_rf_freq_3_amplitude_0.0617_rep_6_t_D.png	 D	 t	 b	 n.a.	 2.593298e-01
9	 2	 165	 unflanked	 rf	 8	 0.113300	 0.000000	 unflanked_rf_freq_8_amplitude_0.1133_rep_5_l_H.png	 H	 l	 l	 n.a.	 2.848300e-01
9	 2	 166	 unflanked	 rf	 3	 0.268300	 0.000000	 unflanked_rf_freq_3_amplitude_0.2683_rep_4_b_N.png	 N	 b	 b	 n.a.	 2.891156e-01
9	 2	 167	 unflanked	 rf	 3	 0.165000	 0.000000	 unflanked_rf_freq_3_amplitude_0.165_rep_3_b_H.png	 H	 b	 b	 n.a.	 2.977819e-01
9	 2	 168	 unflanked	 rf	 2	 0.165000	 0.000000	 unflanked_rf_freq_2_amplitude_0.165_rep_3_b_H.png	 H	 b	 b	 n.a.	 4.885518e-01
9	 2	 169	 unflanked	 rf	 5	 0.113300	 0.000000	 unflanked_rf_freq_5_amplitude_0.1133_rep_0_t_H.png	 H	 t	 b	 n.a.	 2.405858e-01
9	 2	 170	 unflanked	 rf	 3	 0.165000	 0.000000	 unflanked_rf_freq_3_amplitude_0.165_rep_2_l_D.png	 D	 l	 l	 n.a.	 3.690792e-01
9	 2	 171	 unflanked	 rf	 2	 0.061700	 0.000000	 unflanked_rf_freq_2_amplitude_0.0617_rep_4_r_K.png	 K	 r	 t	 n.a.	 1.107857e+00
9	 2	 172	 unflanked	 rf	 8	 0.113300	 0.000000	 unflanked_rf_freq_8_amplitude_0.1133_rep_8_t_H.png	 H	 t	 t	 n.a.	 5.627834e-01
9	 2	 173	 unflanked	 rf	 8	 0.216700	 0.000000	 unflanked_rf_freq_8_amplitude_0.2167_rep_8_t_D.png	 D	 t	 t	 n.a.	 3.075668e-01
9	 2	 174	 unflanked	 rf	 8	 0.113300	 0.000000	 unflanked_rf_freq_8_amplitude_0.1133_rep_4_b_N.png	 N	 b	 t	 n.a.	 7.710530e-01
9	 2	 175	 unflanked	 rf	 12	 0.061700	 0.000000	 unflanked_rf_freq_12_amplitude_0.0617_rep_2_b_H.png	 H	 b	 b	 n.a.	 6.394369e-01
9	 2	 176	 unflanked	 rf	 12	 0.061700	 0.000000	 unflanked_rf_freq_12_amplitude_0.0617_rep_7_b_D.png	 D	 b	 r	 n.a.	 9.620718e-01
9	 2	 177	 unflanked	 rf	 12	 0.216700	 0.000000	 unflanked_rf_freq_12_amplitude_0.2167_rep_6_b_D.png	 D	 b	 b	 n.a.	 4.291008e-01
9	 2	 178	 unflanked	 rf	 12	 0.010000	 0.000000	 unflanked_rf_freq_12_amplitude_0.01_rep_2_r_N.png	 N	 r	 l	 n.a.	 3.237916e-01
9	 2	 179	 unflanked	 rf	 8	 0.165000	 0.000000	 unflanked_rf_freq_8_amplitude_0.165_rep_7_b_D.png	 D	 b	 b	 n.a.	 2.404116e-01
9	 2	 180	 unflanked	 rf	 4	 0.268300	 0.000000	 unflanked_rf_freq_4_amplitude_0.2683_rep_8_t_H.png	 H	 t	 t	 n.a.	 3.253495e-01
9	 2	 181	 unflanked	 rf	 3	 0.268300	 0.000000	 unflanked_rf_freq_3_amplitude_0.2683_rep_7_r_K.png	 K	 r	 r	 n.a.	 2.522104e-01
9	 2	 182	 unflanked	 rf	 5	 0.216700	 0.000000	 unflanked_rf_freq_5_amplitude_0.2167_rep_0_r_H.png	 H	 r	 r	 n.a.	 3.849773e-01
9	 2	 183	 unflanked	 rf	 12	 0.061700	 0.000000	 unflanked_rf_freq_12_amplitude_0.0617_rep_1_t_N.png	 N	 t	 r	 n.a.	 4.877166e-01
9	 2	 184	 unflanked	 rf	 12	 0.165000	 0.000000	 unflanked_rf_freq_12_amplitude_0.165_rep_3_r_H.png	 H	 r	 r	 n.a.	 2.645713e-01
9	 2	 185	 unflanked	 rf	 4	 0.061700	 0.000000	 unflanked_rf_freq_4_amplitude_0.0617_rep_1_l_H.png	 H	 l	 b	 n.a.	 3.389145e-01
9	 2	 186	 unflanked	 rf	 4	 0.165000	 0.000000	 unflanked_rf_freq_4_amplitude_0.165_rep_9_t_N.png	 N	 t	 r	 n.a.	 5.046586e-01
9	 2	 187	 unflanked	 rf	 4	 0.216700	 0.000000	 unflanked_rf_freq_4_amplitude_0.2167_rep_2_b_D.png	 D	 b	 b	 n.a.	 3.448417e-01
9	 2	 188	 unflanked	 rf	 2	 0.268300	 0.000000	 unflanked_rf_freq_2_amplitude_0.2683_rep_6_t_D.png	 D	 t	 l	 n.a.	 3.928973e-01
9	 2	 189	 unflanked	 rf	 12	 0.113300	 0.000000	 unflanked_rf_freq_12_amplitude_0.1133_rep_0_l_K.png	 K	 l	 l	 n.a.	 2.963889e-01
9	 2	 190	 unflanked	 rf	 12	 0.113300	 0.000000	 unflanked_rf_freq_12_amplitude_0.1133_rep_5_t_H.png	 H	 t	 t	 n.a.	 2.970924e-01
9	 2	 191	 unflanked	 rf	 2	 0.268300	 0.000000	 unflanked_rf_freq_2_amplitude_0.2683_rep_9_t_H.png	 H	 t	 b	 n.a.	 5.214414e-01
9	 2	 192	 unflanked	 rf	 2	 0.010000	 0.000000	 unflanked_rf_freq_2_amplitude_0.01_rep_1_l_N.png	 N	 l	 t	 n.a.	 3.251272e-01
9	 2	 193	 unflanked	 rf	 5	 0.010000	 0.000000	 unflanked_rf_freq_5_amplitude_0.01_rep_8_r_K.png	 K	 r	 b	 n.a.	 7.006522e-01
9	 2	 194	 unflanked	 rf	 2	 0.113300	 0.000000	 unflanked_rf_freq_2_amplitude_0.1133_rep_2_r_D.png	 D	 r	 t	 n.a.	 6.963223e-01
9	 2	 195	 unflanked	 rf	 2	 0.061700	 0.000000	 unflanked_rf_freq_2_amplitude_0.0617_rep_5_r_N.png	 N	 r	 l	 n.a.	 3.020631e-01
9	 2	 196	 unflanked	 rf	 5	 0.165000	 0.000000	 unflanked_rf_freq_5_amplitude_0.165_rep_0_t_D.png	 D	 t	 r	 n.a.	 3.221334e-01
9	 2	 197	 unflanked	 rf	 3	 0.216700	 0.000000	 unflanked_rf_freq_3_amplitude_0.2167_rep_3_r_K.png	 K	 r	 t	 n.a.	 5.819944e-01
9	 2	 198	 unflanked	 rf	 5	 0.320000	 0.000000	 unflanked_rf_freq_5_amplitude_0.32_rep_6_r_H.png	 H	 r	 r	 n.a.	 2.776419e-01
9	 2	 199	 unflanked	 rf	 12	 0.268300	 0.000000	 unflanked_rf_freq_12_amplitude_0.2683_rep_9_l_K.png	 K	 l	 l	 n.a.	 2.250786e-01
9	 2	 200	 unflanked	 rf	 3	 0.216700	 0.000000	 unflanked_rf_freq_3_amplitude_0.2167_rep_0_r_D.png	 D	 r	 t	 n.a.	 6.502045e-01
9	 2	 201	 unflanked	 rf	 12	 0.216700	 0.000000	 unflanked_rf_freq_12_amplitude_0.2167_rep_3_r_N.png	 N	 r	 r	 n.a.	 2.744438e-01
9	 2	 202	 unflanked	 rf	 4	 0.268300	 0.000000	 unflanked_rf_freq_4_amplitude_0.2683_rep_3_r_D.png	 D	 r	 r	 n.a.	 5.862164e-01
9	 2	 203	 unflanked	 rf	 3	 0.113300	 0.000000	 unflanked_rf_freq_3_amplitude_0.1133_rep_3_b_N.png	 N	 b	 b	 n.a.	 4.264176e-01
9	 2	 204	 unflanked	 rf	 12	 0.061700	 0.000000	 unflanked_rf_freq_12_amplitude_0.0617_rep_8_l_K.png	 K	 l	 l	 n.a.	 3.475874e-01
9	 2	 205	 unflanked	 rf	 3	 0.061700	 0.000000	 unflanked_rf_freq_3_amplitude_0.0617_rep_0_l_H.png	 H	 l	 l	 n.a.	 1.175822e+00
9	 2	 206	 unflanked	 rf	 4	 0.320000	 0.000000	 unflanked_rf_freq_4_amplitude_0.32_rep_8_l_N.png	 N	 l	 t	 n.a.	 1.044487e+00
9	 2	 207	 unflanked	 rf	 5	 0.320000	 0.000000	 unflanked_rf_freq_5_amplitude_0.32_rep_3_l_N.png	 N	 l	 l	 n.a.	 3.161863e-01
9	 2	 208	 unflanked	 rf	 8	 0.061700	 0.000000	 unflanked_rf_freq_8_amplitude_0.0617_rep_3_l_D.png	 D	 l	 l	 n.a.	 5.693454e-01
9	 2	 209	 unflanked	 rf	 12	 0.113300	 0.000000	 unflanked_rf_freq_12_amplitude_0.1133_rep_8_r_H.png	 H	 r	 r	 n.a.	 3.118833e-01
9	 2	 210	 unflanked	 rf	 4	 0.061700	 0.000000	 unflanked_rf_freq_4_amplitude_0.0617_rep_4_b_H.png	 H	 b	 b	 n.a.	 3.973209e-01
9	 2	 211	 unflanked	 rf	 2	 0.165000	 0.000000	 unflanked_rf_freq_2_amplitude_0.165_rep_2_r_H.png	 H	 r	 r	 n.a.	 4.275497e-01
9	 2	 212	 unflanked	 rf	 8	 0.216700	 0.000000	 unflanked_rf_freq_8_amplitude_0.2167_rep_0_t_K.png	 K	 t	 t	 n.a.	 2.483863e-01
9	 2	 213	 unflanked	 rf	 3	 0.268300	 0.000000	 unflanked_rf_freq_3_amplitude_0.2683_rep_1_b_H.png	 H	 b	 b	 n.a.	 2.763238e-01
9	 2	 214	 unflanked	 rf	 8	 0.010000	 0.000000	 unflanked_rf_freq_8_amplitude_0.01_rep_2_r_N.png	 N	 r	 l	 n.a.	 3.400695e-01
9	 2	 215	 unflanked	 rf	 5	 0.320000	 0.000000	 unflanked_rf_freq_5_amplitude_0.32_rep_7_t_H.png	 H	 t	 t	 n.a.	 4.798182e-01
9	 2	 216	 unflanked	 rf	 2	 0.010000	 0.000000	 unflanked_rf_freq_2_amplitude_0.01_rep_2_r_D.png	 D	 r	 b	 n.a.	 2.451521e-01
9	 2	 217	 unflanked	 rf	 5	 0.061700	 0.000000	 unflanked_rf_freq_5_amplitude_0.0617_rep_4_r_H.png	 H	 r	 l	 n.a.	 3.646614e-01
9	 2	 218	 unflanked	 rf	 5	 0.216700	 0.000000	 unflanked_rf_freq_5_amplitude_0.2167_rep_4_t_D.png	 D	 t	 t	 n.a.	 2.758994e-01
9	 2	 219	 unflanked	 rf	 4	 0.113300	 0.000000	 unflanked_rf_freq_4_amplitude_0.1133_rep_9_l_D.png	 D	 l	 l	 n.a.	 3.151037e-01
9	 2	 220	 unflanked	 rf	 8	 0.320000	 0.000000	 unflanked_rf_freq_8_amplitude_0.32_rep_2_b_D.png	 D	 b	 b	 n.a.	 2.235823e-01
9	 2	 221	 unflanked	 rf	 5	 0.320000	 0.000000	 unflanked_rf_freq_5_amplitude_0.32_rep_4_r_D.png	 D	 r	 r	 n.a.	 1.837421e-01
9	 2	 222	 unflanked	 rf	 8	 0.320000	 0.000000	 unflanked_rf_freq_8_amplitude_0.32_rep_3_b_K.png	 K	 b	 b	 n.a.	 2.380487e-01
9	 2	 223	 unflanked	 rf	 2	 0.113300	 0.000000	 unflanked_rf_freq_2_amplitude_0.1133_rep_0_t_N.png	 N	 t	 t	 n.a.	 3.191123e-01
9	 2	 224	 unflanked	 rf	 12	 0.061700	 0.000000	 unflanked_rf_freq_12_amplitude_0.0617_rep_0_r_N.png	 N	 r	 r	 n.a.	 2.838454e-01
9	 2	 225	 unflanked	 rf	 5	 0.320000	 0.000000	 unflanked_rf_freq_5_amplitude_0.32_rep_1_r_D.png	 D	 r	 r	 n.a.	 2.002857e-01
9	 2	 226	 unflanked	 rf	 12	 0.216700	 0.000000	 unflanked_rf_freq_12_amplitude_0.2167_rep_8_b_N.png	 N	 b	 b	 n.a.	 2.342895e-01
9	 2	 227	 unflanked	 rf	 3	 0.216700	 0.000000	 unflanked_rf_freq_3_amplitude_0.2167_rep_1_r_H.png	 H	 r	 r	 n.a.	 4.490671e-01
9	 2	 228	 unflanked	 rf	 5	 0.216700	 0.000000	 unflanked_rf_freq_5_amplitude_0.2167_rep_1_r_N.png	 N	 r	 r	 n.a.	 3.383534e-01
9	 2	 229	 unflanked	 rf	 5	 0.320000	 0.000000	 unflanked_rf_freq_5_amplitude_0.32_rep_0_b_N.png	 N	 b	 b	 n.a.	 2.107137e-01
9	 2	 230	 unflanked	 rf	 8	 0.320000	 0.000000	 unflanked_rf_freq_8_amplitude_0.32_rep_9_r_N.png	 N	 r	 r	 n.a.	 1.990831e-01
9	 2	 231	 unflanked	 rf	 5	 0.216700	 0.000000	 unflanked_rf_freq_5_amplitude_0.2167_rep_6_r_H.png	 H	 r	 r	 n.a.	 2.393061e-01
9	 2	 232	 unflanked	 rf	 12	 0.216700	 0.000000	 unflanked_rf_freq_12_amplitude_0.2167_rep_7_l_K.png	 K	 l	 l	 n.a.	 2.113017e-01
9	 2	 233	 unflanked	 rf	 12	 0.320000	 0.000000	 unflanked_rf_freq_12_amplitude_0.32_rep_8_t_K.png	 K	 t	 t	 n.a.	 1.978450e-01
9	 2	 234	 unflanked	 rf	 2	 0.268300	 0.000000	 unflanked_rf_freq_2_amplitude_0.2683_rep_2_t_H.png	 H	 t	 l	 n.a.	 6.514090e-01
9	 2	 235	 unflanked	 rf	 3	 0.320000	 0.000000	 unflanked_rf_freq_3_amplitude_0.32_rep_3_r_H.png	 H	 r	 r	 n.a.	 2.258069e-01
9	 2	 236	 unflanked	 rf	 3	 0.320000	 0.000000	 unflanked_rf_freq_3_amplitude_0.32_rep_0_t_N.png	 N	 t	 t	 n.a.	 2.539279e-01
9	 2	 237	 unflanked	 rf	 4	 0.268300	 0.000000	 unflanked_rf_freq_4_amplitude_0.2683_rep_9_t_N.png	 N	 t	 t	 n.a.	 2.780966e-01
9	 2	 238	 unflanked	 rf	 2	 0.216700	 0.000000	 unflanked_rf_freq_2_amplitude_0.2167_rep_9_b_D.png	 D	 b	 b	 n.a.	 3.560054e-01
9	 2	 239	 unflanked	 rf	 2	 0.061700	 0.000000	 unflanked_rf_freq_2_amplitude_0.0617_rep_6_l_D.png	 D	 l	 b	 n.a.	 2.470787e-01
9	 2	 240	 unflanked	 rf	 3	 0.061700	 0.000000	 unflanked_rf_freq_3_amplitude_0.0617_rep_3_b_N.png	 N	 b	 t	 n.a.	 2.665641e-01
9	 2	 241	 unflanked	 rf	 8	 0.216700	 0.000000	 unflanked_rf_freq_8_amplitude_0.2167_rep_3_l_D.png	 D	 l	 l	 n.a.	 2.853106e-01
9	 2	 242	 unflanked	 rf	 2	 0.268300	 0.000000	 unflanked_rf_freq_2_amplitude_0.2683_rep_0_r_H.png	 H	 r	 r	 n.a.	 2.284339e-01
9	 2	 243	 unflanked	 rf	 8	 0.216700	 0.000000	 unflanked_rf_freq_8_amplitude_0.2167_rep_6_r_K.png	 K	 r	 r	 n.a.	 2.244059e-01
9	 2	 244	 unflanked	 rf	 8	 0.320000	 0.000000	 unflanked_rf_freq_8_amplitude_0.32_rep_7_r_H.png	 H	 r	 r	 n.a.	 1.990903e-01
9	 2	 245	 unflanked	 rf	 5	 0.113300	 0.000000	 unflanked_rf_freq_5_amplitude_0.1133_rep_5_r_K.png	 K	 r	 r	 n.a.	 2.669721e-01
9	 2	 246	 unflanked	 rf	 12	 0.010000	 0.000000	 unflanked_rf_freq_12_amplitude_0.01_rep_3_l_K.png	 K	 l	 l	 n.a.	 5.667877e-01
9	 2	 247	 unflanked	 rf	 8	 0.010000	 0.000000	 unflanked_rf_freq_8_amplitude_0.01_rep_4_r_H.png	 H	 r	 b	 n.a.	 2.913645e-01
9	 2	 248	 unflanked	 rf	 4	 0.010000	 0.000000	 unflanked_rf_freq_4_amplitude_0.01_rep_5_r_K.png	 K	 r	 b	 n.a.	 4.485767e-01
9	 2	 249	 unflanked	 rf	 2	 0.320000	 0.000000	 unflanked_rf_freq_2_amplitude_0.32_rep_5_b_N.png	 N	 b	 b	 n.a.	 2.747407e-01
9	 2	 250	 unflanked	 rf	 3	 0.061700	 0.000000	 unflanked_rf_freq_3_amplitude_0.0617_rep_4_l_N.png	 N	 l	 b	 n.a.	 2.700723e-01
9	 2	 251	 unflanked	 rf	 8	 0.216700	 0.000000	 unflanked_rf_freq_8_amplitude_0.2167_rep_9_r_N.png	 N	 r	 r	 n.a.	 2.247515e-01
9	 2	 252	 unflanked	 rf	 2	 0.268300	 0.000000	 unflanked_rf_freq_2_amplitude_0.2683_rep_5_l_K.png	 K	 l	 l	 n.a.	 3.700385e-01
9	 2	 253	 unflanked	 rf	 3	 0.113300	 0.000000	 unflanked_rf_freq_3_amplitude_0.1133_rep_4_l_D.png	 D	 l	 l	 n.a.	 3.008018e-01
9	 2	 254	 unflanked	 rf	 8	 0.113300	 0.000000	 unflanked_rf_freq_8_amplitude_0.1133_rep_9_r_H.png	 H	 r	 r	 n.a.	 2.878047e-01
9	 2	 255	 unflanked	 rf	 2	 0.165000	 0.000000	 unflanked_rf_freq_2_amplitude_0.165_rep_8_r_K.png	 K	 r	 b	 n.a.	 7.334330e-01
9	 2	 256	 unflanked	 rf	 4	 0.010000	 0.000000	 unflanked_rf_freq_4_amplitude_0.01_rep_3_t_D.png	 D	 t	 r	 n.a.	 3.116971e-01
9	 2	 257	 unflanked	 rf	 5	 0.113300	 0.000000	 unflanked_rf_freq_5_amplitude_0.1133_rep_3_t_K.png	 K	 t	 b	 n.a.	 7.568549e-01
9	 2	 258	 unflanked	 rf	 2	 0.113300	 0.000000	 unflanked_rf_freq_2_amplitude_0.1133_rep_3_b_K.png	 K	 b	 b	 n.a.	 1.281475e+00
9	 2	 259	 unflanked	 rf	 4	 0.113300	 0.000000	 unflanked_rf_freq_4_amplitude_0.1133_rep_5_t_K.png	 K	 t	 r	 n.a.	 7.117194e-01
9	 2	 260	 unflanked	 rf	 2	 0.165000	 0.000000	 unflanked_rf_freq_2_amplitude_0.165_rep_1_r_H.png	 H	 r	 r	 n.a.	 7.736711e-01
9	 2	 261	 unflanked	 rf	 5	 0.320000	 0.000000	 unflanked_rf_freq_5_amplitude_0.32_rep_9_t_D.png	 D	 t	 t	 n.a.	 3.066708e-01
9	 2	 262	 unflanked	 rf	 12	 0.320000	 0.000000	 unflanked_rf_freq_12_amplitude_0.32_rep_6_t_N.png	 N	 t	 t	 n.a.	 3.258819e-01
9	 2	 263	 unflanked	 rf	 8	 0.320000	 0.000000	 unflanked_rf_freq_8_amplitude_0.32_rep_4_l_D.png	 D	 l	 l	 n.a.	 2.785856e-01
9	 2	 264	 unflanked	 rf	 12	 0.320000	 0.000000	 unflanked_rf_freq_12_amplitude_0.32_rep_1_r_N.png	 N	 r	 r	 n.a.	 2.489663e-01
9	 2	 265	 unflanked	 rf	 4	 0.165000	 0.000000	 unflanked_rf_freq_4_amplitude_0.165_rep_4_l_N.png	 N	 l	 l	 n.a.	 2.417971e-01
9	 2	 266	 unflanked	 rf	 8	 0.320000	 0.000000	 unflanked_rf_freq_8_amplitude_0.32_rep_6_r_K.png	 K	 r	 r	 n.a.	 2.215546e-01
9	 2	 267	 unflanked	 rf	 4	 0.216700	 0.000000	 unflanked_rf_freq_4_amplitude_0.2167_rep_5_l_N.png	 N	 l	 l	 n.a.	 2.969366e-01
9	 2	 268	 unflanked	 rf	 5	 0.216700	 0.000000	 unflanked_rf_freq_5_amplitude_0.2167_rep_5_t_N.png	 N	 t	 t	 n.a.	 3.496545e-01
9	 2	 269	 unflanked	 rf	 12	 0.320000	 0.000000	 unflanked_rf_freq_12_amplitude_0.32_rep_3_b_K.png	 K	 b	 b	 n.a.	 2.343466e-01
9	 2	 270	 unflanked	 rf	 8	 0.010000	 0.000000	 unflanked_rf_freq_8_amplitude_0.01_rep_8_b_D.png	 D	 b	 l	 n.a.	 9.259178e-01
9	 2	 271	 unflanked	 rf	 8	 0.268300	 0.000000	 unflanked_rf_freq_8_amplitude_0.2683_rep_2_l_K.png	 K	 l	 l	 n.a.	 3.366535e-01
9	 2	 272	 unflanked	 rf	 5	 0.113300	 0.000000	 unflanked_rf_freq_5_amplitude_0.1133_rep_1_l_K.png	 K	 l	 l	 n.a.	 3.580297e-01
9	 2	 273	 unflanked	 rf	 4	 0.061700	 0.000000	 unflanked_rf_freq_4_amplitude_0.0617_rep_2_l_D.png	 D	 l	 b	 n.a.	 6.948649e-01
9	 2	 274	 unflanked	 rf	 2	 0.113300	 0.000000	 unflanked_rf_freq_2_amplitude_0.1133_rep_5_l_N.png	 N	 l	 l	 n.a.	 6.375716e-01
9	 2	 275	 unflanked	 rf	 4	 0.061700	 0.000000	 unflanked_rf_freq_4_amplitude_0.0617_rep_7_r_D.png	 D	 r	 l	 n.a.	 8.448144e-01
9	 2	 276	 unflanked	 rf	 3	 0.010000	 0.000000	 unflanked_rf_freq_3_amplitude_0.01_rep_5_t_K.png	 K	 t	 t	 n.a.	 1.007481e+00
9	 2	 277	 unflanked	 rf	 12	 0.061700	 0.000000	 unflanked_rf_freq_12_amplitude_0.0617_rep_4_t_K.png	 K	 t	 t	 n.a.	 6.239681e-01
9	 2	 278	 unflanked	 rf	 4	 0.113300	 0.000000	 unflanked_rf_freq_4_amplitude_0.1133_rep_8_l_H.png	 H	 l	 l	 n.a.	 3.097912e-01
9	 2	 279	 unflanked	 rf	 2	 0.061700	 0.000000	 unflanked_rf_freq_2_amplitude_0.0617_rep_1_r_N.png	 N	 r	 l	 n.a.	 6.448911e-01
9	 2	 280	 unflanked	 rf	 12	 0.061700	 0.000000	 unflanked_rf_freq_12_amplitude_0.0617_rep_5_r_D.png	 D	 r	 r	 n.a.	 7.077033e-01
9	 2	 281	 unflanked	 rf	 8	 0.010000	 0.000000	 unflanked_rf_freq_8_amplitude_0.01_rep_9_l_N.png	 N	 l	 b	 n.a.	 3.301702e-01
9	 2	 282	 unflanked	 rf	 2	 0.061700	 0.000000	 unflanked_rf_freq_2_amplitude_0.0617_rep_8_t_K.png	 K	 t	 t	 n.a.	 2.697838e-01
9	 2	 283	 unflanked	 rf	 3	 0.216700	 0.000000	 unflanked_rf_freq_3_amplitude_0.2167_rep_7_b_K.png	 K	 b	 b	 n.a.	 4.969581e-01
9	 2	 284	 unflanked	 rf	 3	 0.216700	 0.000000	 unflanked_rf_freq_3_amplitude_0.2167_rep_9_b_N.png	 N	 b	 t	 n.a.	 5.060911e-01
9	 2	 285	 unflanked	 rf	 5	 0.113300	 0.000000	 unflanked_rf_freq_5_amplitude_0.1133_rep_4_l_K.png	 K	 l	 l	 n.a.	 3.714322e-01
9	 2	 286	 unflanked	 rf	 8	 0.061700	 0.000000	 unflanked_rf_freq_8_amplitude_0.0617_rep_0_b_H.png	 H	 b	 b	 n.a.	 4.635162e-01
9	 2	 287	 unflanked	 rf	 12	 0.010000	 0.000000	 unflanked_rf_freq_12_amplitude_0.01_rep_5_t_H.png	 H	 t	 l	 n.a.	 3.716890e-01
9	 2	 288	 unflanked	 rf	 5	 0.061700	 0.000000	 unflanked_rf_freq_5_amplitude_0.0617_rep_9_r_H.png	 H	 r	 r	 n.a.	 4.007463e-01
9	 2	 289	 unflanked	 rf	 2	 0.061700	 0.000000	 unflanked_rf_freq_2_amplitude_0.0617_rep_0_r_H.png	 H	 r	 t	 n.a.	 9.248096e-01
9	 2	 290	 unflanked	 rf	 4	 0.268300	 0.000000	 unflanked_rf_freq_4_amplitude_0.2683_rep_1_l_N.png	 N	 l	 l	 n.a.	 2.707457e-01
9	 2	 291	 unflanked	 rf	 12	 0.320000	 0.000000	 unflanked_rf_freq_12_amplitude_0.32_rep_2_t_N.png	 N	 t	 t	 n.a.	 5.882788e-01
9	 2	 292	 unflanked	 rf	 12	 0.165000	 0.000000	 unflanked_rf_freq_12_amplitude_0.165_rep_9_l_K.png	 K	 l	 l	 n.a.	 2.827629e-01
9	 2	 293	 unflanked	 rf	 5	 0.010000	 0.000000	 unflanked_rf_freq_5_amplitude_0.01_rep_4_r_K.png	 K	 r	 r	 n.a.	 6.180115e-01
9	 2	 294	 unflanked	 rf	 5	 0.216700	 0.000000	 unflanked_rf_freq_5_amplitude_0.2167_rep_2_l_N.png	 N	 l	 l	 n.a.	 4.425695e-01
9	 2	 295	 unflanked	 rf	 8	 0.268300	 0.000000	 unflanked_rf_freq_8_amplitude_0.2683_rep_4_r_H.png	 H	 r	 r	 n.a.	 2.702845e-01
9	 2	 296	 unflanked	 rf	 4	 0.268300	 0.000000	 unflanked_rf_freq_4_amplitude_0.2683_rep_7_l_D.png	 D	 l	 l	 n.a.	 3.278526e-01
9	 2	 297	 unflanked	 rf	 4	 0.010000	 0.000000	 unflanked_rf_freq_4_amplitude_0.01_rep_6_b_N.png	 N	 b	 l	 n.a.	 6.084006e-01
9	 2	 298	 unflanked	 rf	 8	 0.320000	 0.000000	 unflanked_rf_freq_8_amplitude_0.32_rep_0_l_N.png	 N	 l	 l	 n.a.	 2.873530e-01
9	 2	 299	 unflanked	 rf	 3	 0.113300	 0.000000	 unflanked_rf_freq_3_amplitude_0.1133_rep_5_t_H.png	 H	 t	 l	 n.a.	 8.914428e-01
9	 2	 300	 unflanked	 rf	 2	 0.320000	 0.000000	 unflanked_rf_freq_2_amplitude_0.32_rep_9_b_K.png	 K	 b	 b	 n.a.	 2.983259e-01
9	 2	 301	 unflanked	 rf	 5	 0.268300	 0.000000	 unflanked_rf_freq_5_amplitude_0.2683_rep_5_l_N.png	 N	 l	 l	 n.a.	 2.258933e-01
9	 2	 302	 unflanked	 rf	 12	 0.113300	 0.000000	 unflanked_rf_freq_12_amplitude_0.1133_rep_4_b_D.png	 D	 b	 b	 n.a.	 3.457151e-01
9	 2	 303	 unflanked	 rf	 2	 0.113300	 0.000000	 unflanked_rf_freq_2_amplitude_0.1133_rep_1_b_D.png	 D	 b	 b	 n.a.	 3.433534e-01
9	 2	 304	 unflanked	 rf	 3	 0.061700	 0.000000	 unflanked_rf_freq_3_amplitude_0.0617_rep_5_b_H.png	 H	 b	 b	 n.a.	 4.561267e-01
9	 2	 305	 unflanked	 rf	 12	 0.010000	 0.000000	 unflanked_rf_freq_12_amplitude_0.01_rep_4_t_D.png	 D	 t	 b	 n.a.	 2.625476e-01
9	 2	 306	 unflanked	 rf	 5	 0.010000	 0.000000	 unflanked_rf_freq_5_amplitude_0.01_rep_1_l_D.png	 D	 l	 t	 n.a.	 6.637937e-01
9	 2	 307	 unflanked	 rf	 3	 0.320000	 0.000000	 unflanked_rf_freq_3_amplitude_0.32_rep_6_l_N.png	 N	 l	 l	 n.a.	 2.443444e-01
9	 2	 308	 unflanked	 rf	 4	 0.268300	 0.000000	 unflanked_rf_freq_4_amplitude_0.2683_rep_6_b_H.png	 H	 b	 b	 n.a.	 3.009484e-01
9	 2	 309	 unflanked	 rf	 3	 0.113300	 0.000000	 unflanked_rf_freq_3_amplitude_0.1133_rep_7_b_D.png	 D	 b	 t	 n.a.	 5.945530e-01
9	 2	 310	 unflanked	 rf	 12	 0.113300	 0.000000	 unflanked_rf_freq_12_amplitude_0.1133_rep_6_b_D.png	 D	 b	 t	 n.a.	 7.625658e-01
9	 2	 311	 unflanked	 rf	 12	 0.320000	 0.000000	 unflanked_rf_freq_12_amplitude_0.32_rep_4_t_N.png	 N	 t	 t	 n.a.	 3.651513e-01
9	 2	 312	 unflanked	 rf	 4	 0.010000	 0.000000	 unflanked_rf_freq_4_amplitude_0.01_rep_7_r_K.png	 K	 r	 t	 n.a.	 6.434119e-01
9	 2	 313	 unflanked	 rf	 8	 0.061700	 0.000000	 unflanked_rf_freq_8_amplitude_0.0617_rep_1_l_H.png	 H	 l	 l	 n.a.	 2.848505e-01
9	 2	 314	 unflanked	 rf	 3	 0.165000	 0.000000	 unflanked_rf_freq_3_amplitude_0.165_rep_5_b_D.png	 D	 b	 b	 n.a.	 7.159233e-01
9	 2	 315	 unflanked	 rf	 3	 0.061700	 0.000000	 unflanked_rf_freq_3_amplitude_0.0617_rep_9_l_H.png	 H	 l	 r	 n.a.	 6.911201e-01
9	 2	 316	 unflanked	 rf	 12	 0.268300	 0.000000	 unflanked_rf_freq_12_amplitude_0.2683_rep_5_l_D.png	 D	 l	 l	 n.a.	 1.686341e-01
9	 2	 317	 unflanked	 rf	 5	 0.268300	 0.000000	 unflanked_rf_freq_5_amplitude_0.2683_rep_2_t_D.png	 D	 t	 t	 n.a.	 2.999288e-01
9	 2	 318	 unflanked	 rf	 8	 0.320000	 0.000000	 unflanked_rf_freq_8_amplitude_0.32_rep_1_r_H.png	 H	 r	 r	 n.a.	 2.915924e-01
9	 2	 319	 unflanked	 rf	 4	 0.165000	 0.000000	 unflanked_rf_freq_4_amplitude_0.165_rep_7_b_D.png	 D	 b	 b	 n.a.	 3.646713e-01
9	 2	 320	 unflanked	 rf	 4	 0.268300	 0.000000	 unflanked_rf_freq_4_amplitude_0.2683_rep_4_l_N.png	 N	 l	 l	 n.a.	 2.853224e-01
9	 2	 321	 unflanked	 rf	 12	 0.268300	 0.000000	 unflanked_rf_freq_12_amplitude_0.2683_rep_4_r_D.png	 D	 r	 r	 n.a.	 2.386134e-01
9	 2	 322	 unflanked	 rf	 4	 0.010000	 0.000000	 unflanked_rf_freq_4_amplitude_0.01_rep_2_l_K.png	 K	 l	 l	 n.a.	 4.644400e-01
9	 2	 323	 unflanked	 rf	 12	 0.216700	 0.000000	 unflanked_rf_freq_12_amplitude_0.2167_rep_2_t_N.png	 N	 t	 t	 n.a.	 4.392018e-01
9	 2	 324	 unflanked	 rf	 2	 0.010000	 0.000000	 unflanked_rf_freq_2_amplitude_0.01_rep_7_l_H.png	 H	 l	 r	 n.a.	 6.411028e-01
9	 2	 325	 unflanked	 rf	 12	 0.061700	 0.000000	 unflanked_rf_freq_12_amplitude_0.0617_rep_3_b_H.png	 H	 b	 l	 n.a.	 5.549264e-01
9	 2	 326	 unflanked	 rf	 5	 0.165000	 0.000000	 unflanked_rf_freq_5_amplitude_0.165_rep_2_r_D.png	 D	 r	 r	 n.a.	 2.790776e-01
9	 2	 327	 unflanked	 rf	 12	 0.113300	 0.000000	 unflanked_rf_freq_12_amplitude_0.1133_rep_2_b_D.png	 D	 b	 b	 n.a.	 2.550491e-01
9	 2	 328	 unflanked	 rf	 2	 0.165000	 0.000000	 unflanked_rf_freq_2_amplitude_0.165_rep_9_l_K.png	 K	 l	 l	 n.a.	 2.976188e-01
9	 2	 329	 unflanked	 rf	 3	 0.010000	 0.000000	 unflanked_rf_freq_3_amplitude_0.01_rep_1_r_N.png	 N	 r	 r	 n.a.	 6.139072e-01
9	 2	 330	 unflanked	 rf	 5	 0.061700	 0.000000	 unflanked_rf_freq_5_amplitude_0.0617_rep_7_l_D.png	 D	 l	 l	 n.a.	 4.578682e-01
9	 2	 331	 unflanked	 rf	 5	 0.113300	 0.000000	 unflanked_rf_freq_5_amplitude_0.1133_rep_9_r_D.png	 D	 r	 r	 n.a.	 4.647254e-01
9	 2	 332	 unflanked	 rf	 2	 0.216700	 0.000000	 unflanked_rf_freq_2_amplitude_0.2167_rep_4_l_N.png	 N	 l	 l	 n.a.	 4.263528e-01
9	 2	 333	 unflanked	 rf	 3	 0.113300	 0.000000	 unflanked_rf_freq_3_amplitude_0.1133_rep_1_t_N.png	 N	 t	 r	 n.a.	 5.823721e-01
9	 2	 334	 unflanked	 rf	 2	 0.320000	 0.000000	 unflanked_rf_freq_2_amplitude_0.32_rep_8_t_K.png	 K	 t	 t	 n.a.	 3.574642e-01
9	 2	 335	 unflanked	 rf	 8	 0.113300	 0.000000	 unflanked_rf_freq_8_amplitude_0.1133_rep_0_r_H.png	 H	 r	 r	 n.a.	 2.533238e-01
9	 2	 336	 unflanked	 rf	 12	 0.165000	 0.000000	 unflanked_rf_freq_12_amplitude_0.165_rep_5_t_N.png	 N	 t	 t	 n.a.	 4.954922e-01
9	 2	 337	 unflanked	 rf	 12	 0.320000	 0.000000	 unflanked_rf_freq_12_amplitude_0.32_rep_0_l_N.png	 N	 l	 l	 n.a.	 2.441004e-01
9	 2	 338	 unflanked	 rf	 2	 0.268300	 0.000000	 unflanked_rf_freq_2_amplitude_0.2683_rep_4_t_D.png	 D	 t	 b	 n.a.	 3.381670e-01
9	 2	 339	 unflanked	 rf	 2	 0.320000	 0.000000	 unflanked_rf_freq_2_amplitude_0.32_rep_7_t_K.png	 K	 t	 t	 n.a.	 3.415041e-01
9	 2	 340	 unflanked	 rf	 4	 0.216700	 0.000000	 unflanked_rf_freq_4_amplitude_0.2167_rep_1_r_D.png	 D	 r	 r	 n.a.	 2.670737e-01
9	 2	 341	 unflanked	 rf	 5	 0.165000	 0.000000	 unflanked_rf_freq_5_amplitude_0.165_rep_5_r_N.png	 N	 r	 r	 n.a.	 2.275531e-01
9	 2	 342	 unflanked	 rf	 2	 0.010000	 0.000000	 unflanked_rf_freq_2_amplitude_0.01_rep_6_t_H.png	 H	 t	 l	 n.a.	 7.960836e-01
9	 2	 343	 unflanked	 rf	 8	 0.061700	 0.000000	 unflanked_rf_freq_8_amplitude_0.0617_rep_6_b_D.png	 D	 b	 b	 n.a.	 5.194858e-01
9	 2	 344	 unflanked	 rf	 2	 0.320000	 0.000000	 unflanked_rf_freq_2_amplitude_0.32_rep_6_l_H.png	 H	 l	 l	 n.a.	 5.159055e-01
9	 2	 345	 unflanked	 rf	 12	 0.216700	 0.000000	 unflanked_rf_freq_12_amplitude_0.2167_rep_9_t_D.png	 D	 t	 t	 n.a.	 3.279930e-01
9	 2	 346	 unflanked	 rf	 4	 0.113300	 0.000000	 unflanked_rf_freq_4_amplitude_0.1133_rep_7_t_K.png	 K	 t	 r	 n.a.	 4.880047e-01
9	 2	 347	 unflanked	 rf	 4	 0.320000	 0.000000	 unflanked_rf_freq_4_amplitude_0.32_rep_9_t_H.png	 H	 t	 t	 n.a.	 3.741328e-01
9	 2	 348	 unflanked	 rf	 5	 0.061700	 0.000000	 unflanked_rf_freq_5_amplitude_0.0617_rep_8_t_N.png	 N	 t	 l	 n.a.	 7.519011e-01
9	 2	 349	 unflanked	 rf	 8	 0.061700	 0.000000	 unflanked_rf_freq_8_amplitude_0.0617_rep_2_r_K.png	 K	 r	 r	 n.a.	 3.662969e-01
9	 2	 350	 unflanked	 rf	 5	 0.165000	 0.000000	 unflanked_rf_freq_5_amplitude_0.165_rep_4_l_N.png	 N	 l	 l	 n.a.	 3.933894e-01
9	 2	 351	 unflanked	 rf	 5	 0.165000	 0.000000	 unflanked_rf_freq_5_amplitude_0.165_rep_6_t_D.png	 D	 t	 t	 n.a.	 2.261789e-01
9	 2	 352	 unflanked	 rf	 2	 0.216700	 0.000000	 unflanked_rf_freq_2_amplitude_0.2167_rep_8_t_D.png	 D	 t	 l	 n.a.	 3.797232e-01
9	 2	 353	 unflanked	 rf	 5	 0.268300	 0.000000	 unflanked_rf_freq_5_amplitude_0.2683_rep_7_t_K.png	 K	 t	 t	 n.a.	 1.894337e-01
9	 2	 354	 unflanked	 rf	 3	 0.320000	 0.000000	 unflanked_rf_freq_3_amplitude_0.32_rep_7_t_H.png	 H	 t	 t	 n.a.	 2.009787e-01
9	 2	 355	 unflanked	 rf	 2	 0.165000	 0.000000	 unflanked_rf_freq_2_amplitude_0.165_rep_5_r_K.png	 K	 r	 r	 n.a.	 4.174445e-01
9	 2	 356	 unflanked	 rf	 3	 0.061700	 0.000000	 unflanked_rf_freq_3_amplitude_0.0617_rep_7_b_K.png	 K	 b	 b	 n.a.	 3.161833e-01
9	 2	 357	 unflanked	 rf	 3	 0.010000	 0.000000	 unflanked_rf_freq_3_amplitude_0.01_rep_0_t_D.png	 D	 t	 b	 n.a.	 4.137758e-01
9	 2	 358	 unflanked	 rf	 12	 0.320000	 0.000000	 unflanked_rf_freq_12_amplitude_0.32_rep_5_r_K.png	 K	 r	 r	 n.a.	 2.365065e-01
9	 2	 359	 unflanked	 rf	 2	 0.165000	 0.000000	 unflanked_rf_freq_2_amplitude_0.165_rep_6_l_K.png	 K	 l	 l	 n.a.	 2.229968e-01
9	 2	 360	 unflanked	 rf	 4	 0.061700	 0.000000	 unflanked_rf_freq_4_amplitude_0.0617_rep_9_b_D.png	 D	 b	 b	 n.a.	 3.410783e-01
9	 2	 361	 unflanked	 rf	 5	 0.165000	 0.000000	 unflanked_rf_freq_5_amplitude_0.165_rep_9_t_H.png	 H	 t	 t	 n.a.	 4.138967e-01
9	 2	 362	 unflanked	 rf	 3	 0.165000	 0.000000	 unflanked_rf_freq_3_amplitude_0.165_rep_1_b_H.png	 H	 b	 b	 n.a.	 2.776220e-01
9	 2	 363	 unflanked	 rf	 5	 0.216700	 0.000000	 unflanked_rf_freq_5_amplitude_0.2167_rep_8_b_H.png	 H	 b	 b	 n.a.	 2.579587e-01
9	 2	 364	 unflanked	 rf	 12	 0.010000	 0.000000	 unflanked_rf_freq_12_amplitude_0.01_rep_9_t_K.png	 K	 t	 t	 n.a.	 3.664028e-01
9	 2	 365	 unflanked	 rf	 8	 0.165000	 0.000000	 unflanked_rf_freq_8_amplitude_0.165_rep_9_b_D.png	 D	 b	 b	 n.a.	 4.676741e-01
9	 2	 366	 unflanked	 rf	 12	 0.165000	 0.000000	 unflanked_rf_freq_12_amplitude_0.165_rep_1_l_H.png	 H	 l	 l	 n.a.	 2.548849e-01
9	 2	 367	 unflanked	 rf	 4	 0.216700	 0.000000	 unflanked_rf_freq_4_amplitude_0.2167_rep_4_b_D.png	 D	 b	 r	 n.a.	 4.387123e-01
9	 2	 368	 unflanked	 rf	 5	 0.010000	 0.000000	 unflanked_rf_freq_5_amplitude_0.01_rep_5_b_D.png	 D	 b	 t	 n.a.	 3.542174e-01
9	 2	 369	 unflanked	 rf	 8	 0.216700	 0.000000	 unflanked_rf_freq_8_amplitude_0.2167_rep_7_l_N.png	 N	 l	 l	 n.a.	 2.735426e-01
9	 2	 370	 unflanked	 rf	 3	 0.268300	 0.000000	 unflanked_rf_freq_3_amplitude_0.2683_rep_3_t_H.png	 H	 t	 b	 n.a.	 2.648651e-01
9	 2	 371	 unflanked	 rf	 5	 0.061700	 0.000000	 unflanked_rf_freq_5_amplitude_0.0617_rep_1_b_H.png	 H	 b	 l	 n.a.	 3.651135e-01
9	 2	 372	 unflanked	 rf	 4	 0.165000	 0.000000	 unflanked_rf_freq_4_amplitude_0.165_rep_8_l_K.png	 K	 l	 l	 n.a.	 2.510522e-01
9	 2	 373	 unflanked	 rf	 3	 0.113300	 0.000000	 unflanked_rf_freq_3_amplitude_0.1133_rep_8_b_D.png	 D	 b	 b	 n.a.	 7.352019e-01
9	 2	 374	 unflanked	 rf	 4	 0.113300	 0.000000	 unflanked_rf_freq_4_amplitude_0.1133_rep_2_b_H.png	 H	 b	 b	 n.a.	 2.180949e-01
9	 2	 375	 unflanked	 rf	 4	 0.061700	 0.000000	 unflanked_rf_freq_4_amplitude_0.0617_rep_8_r_N.png	 N	 r	 b	 n.a.	 2.054652e-01
9	 2	 376	 unflanked	 rf	 2	 0.010000	 0.000000	 unflanked_rf_freq_2_amplitude_0.01_rep_9_t_N.png	 N	 t	 l	 n.a.	 4.189720e-01
9	 2	 377	 unflanked	 rf	 12	 0.113300	 0.000000	 unflanked_rf_freq_12_amplitude_0.1133_rep_9_l_K.png	 K	 l	 l	 n.a.	 2.429661e-01
9	 2	 378	 unflanked	 rf	 5	 0.010000	 0.000000	 unflanked_rf_freq_5_amplitude_0.01_rep_0_r_N.png	 N	 r	 b	 n.a.	 4.895672e-01
9	 2	 379	 unflanked	 rf	 4	 0.216700	 0.000000	 unflanked_rf_freq_4_amplitude_0.2167_rep_7_t_N.png	 N	 t	 t	 n.a.	 3.462782e-01
9	 2	 380	 unflanked	 rf	 8	 0.320000	 0.000000	 unflanked_rf_freq_8_amplitude_0.32_rep_8_l_N.png	 N	 l	 l	 n.a.	 2.808198e-01
9	 2	 381	 unflanked	 rf	 5	 0.268300	 0.000000	 unflanked_rf_freq_5_amplitude_0.2683_rep_8_b_N.png	 N	 b	 b	 n.a.	 2.477936e-01
9	 2	 382	 unflanked	 rf	 12	 0.216700	 0.000000	 unflanked_rf_freq_12_amplitude_0.2167_rep_4_t_H.png	 H	 t	 t	 n.a.	 2.665815e-01
9	 2	 383	 unflanked	 rf	 8	 0.010000	 0.000000	 unflanked_rf_freq_8_amplitude_0.01_rep_7_t_D.png	 D	 t	 b	 n.a.	 2.221211e-01
9	 2	 384	 unflanked	 rf	 8	 0.216700	 0.000000	 unflanked_rf_freq_8_amplitude_0.2167_rep_1_l_N.png	 N	 l	 l	 n.a.	 2.541413e-01
9	 2	 385	 unflanked	 rf	 4	 0.010000	 0.000000	 unflanked_rf_freq_4_amplitude_0.01_rep_4_b_D.png	 D	 b	 r	 n.a.	 3.296188e-01
9	 2	 386	 unflanked	 rf	 2	 0.216700	 0.000000	 unflanked_rf_freq_2_amplitude_0.2167_rep_1_l_D.png	 D	 l	 l	 n.a.	 2.981529e-01
9	 2	 387	 unflanked	 rf	 4	 0.320000	 0.000000	 unflanked_rf_freq_4_amplitude_0.32_rep_3_b_D.png	 D	 b	 b	 n.a.	 3.344496e-01
9	 2	 388	 unflanked	 rf	 3	 0.061700	 0.000000	 unflanked_rf_freq_3_amplitude_0.0617_rep_8_t_D.png	 D	 t	 l	 n.a.	 3.693922e-01
9	 2	 389	 unflanked	 rf	 5	 0.010000	 0.000000	 unflanked_rf_freq_5_amplitude_0.01_rep_6_t_D.png	 D	 t	 b	 n.a.	 2.487312e-01
9	 2	 390	 unflanked	 rf	 8	 0.268300	 0.000000	 unflanked_rf_freq_8_amplitude_0.2683_rep_1_r_H.png	 H	 r	 r	 n.a.	 2.507946e-01
9	 2	 391	 unflanked	 rf	 2	 0.268300	 0.000000	 unflanked_rf_freq_2_amplitude_0.2683_rep_1_l_N.png	 N	 l	 l	 n.a.	 2.198341e-01
9	 2	 392	 unflanked	 rf	 8	 0.216700	 0.000000	 unflanked_rf_freq_8_amplitude_0.2167_rep_5_t_N.png	 N	 t	 t	 n.a.	 2.528398e-01
9	 2	 393	 unflanked	 rf	 5	 0.216700	 0.000000	 unflanked_rf_freq_5_amplitude_0.2167_rep_7_r_N.png	 N	 r	 r	 n.a.	 3.388856e-01
9	 2	 394	 unflanked	 rf	 12	 0.113300	 0.000000	 unflanked_rf_freq_12_amplitude_0.1133_rep_7_r_K.png	 K	 r	 r	 n.a.	 3.012614e-01
9	 2	 395	 unflanked	 rf	 2	 0.010000	 0.000000	 unflanked_rf_freq_2_amplitude_0.01_rep_0_r_H.png	 H	 r	 b	 n.a.	 2.520044e-01
9	 2	 396	 unflanked	 rf	 3	 0.268300	 0.000000	 unflanked_rf_freq_3_amplitude_0.2683_rep_6_r_H.png	 H	 r	 l	 n.a.	 3.695984e-01
9	 2	 397	 unflanked	 rf	 3	 0.061700	 0.000000	 unflanked_rf_freq_3_amplitude_0.0617_rep_1_t_K.png	 K	 t	 b	 n.a.	 4.718399e-01
9	 2	 398	 unflanked	 rf	 12	 0.268300	 0.000000	 unflanked_rf_freq_12_amplitude_0.2683_rep_3_l_K.png	 K	 l	 l	 n.a.	 2.282112e-01
9	 2	 399	 unflanked	 rf	 4	 0.010000	 0.000000	 unflanked_rf_freq_4_amplitude_0.01_rep_0_b_N.png	 N	 b	 r	 n.a.	 4.250014e-01
9	 2	 400	 unflanked	 rf	 2	 0.216700	 0.000000	 unflanked_rf_freq_2_amplitude_0.2167_rep_0_b_N.png	 N	 b	 t	 n.a.	 6.134013e-01
9	 2	 401	 unflanked	 rf	 12	 0.010000	 0.000000	 unflanked_rf_freq_12_amplitude_0.01_rep_1_r_D.png	 D	 r	 l	 n.a.	 6.344796e-01
9	 2	 402	 unflanked	 rf	 3	 0.165000	 0.000000	 unflanked_rf_freq_3_amplitude_0.165_rep_4_r_N.png	 N	 r	 b	 n.a.	 3.101546e-01
9	 2	 403	 unflanked	 rf	 5	 0.216700	 0.000000	 unflanked_rf_freq_5_amplitude_0.2167_rep_3_b_N.png	 N	 b	 b	 n.a.	 2.293962e-01
9	 2	 404	 unflanked	 rf	 5	 0.268300	 0.000000	 unflanked_rf_freq_5_amplitude_0.2683_rep_9_l_K.png	 K	 l	 l	 n.a.	 2.685750e-01
9	 2	 405	 unflanked	 rf	 3	 0.320000	 0.000000	 unflanked_rf_freq_3_amplitude_0.32_rep_9_l_K.png	 K	 l	 l	 n.a.	 2.685208e-01
9	 2	 406	 unflanked	 rf	 3	 0.216700	 0.000000	 unflanked_rf_freq_3_amplitude_0.2167_rep_8_l_K.png	 K	 l	 l	 n.a.	 2.445564e-01
9	 2	 407	 unflanked	 rf	 8	 0.061700	 0.000000	 unflanked_rf_freq_8_amplitude_0.0617_rep_9_r_N.png	 N	 r	 t	 n.a.	 3.524647e-01
9	 2	 408	 unflanked	 rf	 4	 0.113300	 0.000000	 unflanked_rf_freq_4_amplitude_0.1133_rep_4_b_D.png	 D	 b	 b	 n.a.	 5.550574e-01
9	 2	 409	 unflanked	 rf	 8	 0.216700	 0.000000	 unflanked_rf_freq_8_amplitude_0.2167_rep_2_l_K.png	 K	 l	 l	 n.a.	 4.634706e-01
9	 2	 410	 unflanked	 rf	 3	 0.216700	 0.000000	 unflanked_rf_freq_3_amplitude_0.2167_rep_2_r_N.png	 N	 r	 r	 n.a.	 8.490535e-01
9	 2	 411	 unflanked	 rf	 3	 0.165000	 0.000000	 unflanked_rf_freq_3_amplitude_0.165_rep_6_b_N.png	 N	 b	 b	 n.a.	 4.998979e-01
9	 2	 412	 unflanked	 rf	 5	 0.268300	 0.000000	 unflanked_rf_freq_5_amplitude_0.2683_rep_4_l_D.png	 D	 l	 l	 n.a.	 4.292588e-01
9	 2	 413	 unflanked	 rf	 8	 0.320000	 0.000000	 unflanked_rf_freq_8_amplitude_0.32_rep_5_r_D.png	 D	 r	 r	 n.a.	 3.182801e-01
9	 2	 414	 unflanked	 rf	 4	 0.165000	 0.000000	 unflanked_rf_freq_4_amplitude_0.165_rep_5_b_H.png	 H	 b	 b	 n.a.	 3.640716e-01
9	 2	 415	 unflanked	 rf	 8	 0.165000	 0.000000	 unflanked_rf_freq_8_amplitude_0.165_rep_0_r_N.png	 N	 r	 r	 n.a.	 2.784753e-01
9	 2	 416	 unflanked	 rf	 4	 0.268300	 0.000000	 unflanked_rf_freq_4_amplitude_0.2683_rep_0_r_K.png	 K	 r	 r	 n.a.	 2.657054e-01
9	 2	 417	 unflanked	 rf	 2	 0.061700	 0.000000	 unflanked_rf_freq_2_amplitude_0.0617_rep_2_r_D.png	 D	 r	 b	 n.a.	 2.828253e-01
9	 2	 418	 unflanked	 rf	 3	 0.010000	 0.000000	 unflanked_rf_freq_3_amplitude_0.01_rep_3_t_N.png	 N	 t	 b	 n.a.	 6.282735e-01
9	 2	 419	 unflanked	 rf	 3	 0.216700	 0.000000	 unflanked_rf_freq_3_amplitude_0.2167_rep_5_b_D.png	 D	 b	 b	 n.a.	 3.097956e-01
9	 2	 420	 unflanked	 rf	 8	 0.113300	 0.000000	 unflanked_rf_freq_8_amplitude_0.1133_rep_2_r_D.png	 D	 r	 r	 n.a.	 3.600441e-01
