subject	 session	 trial	 flanked	 distortion	 freq	 amplitude	 spacing	 im_name	 targ_letter	 targ_pos	 response	 eyemovement	 RT
9	 1	 1	 unflanked	 rf	 2	 0.113300	 0.000000	 unflanked_rf_freq_2_amplitude_0.1133_rep_5_l_N.png	 N	 l	 t	 n.a.	 7.573755e-01
9	 1	 2	 unflanked	 rf	 8	 0.010000	 0.000000	 unflanked_rf_freq_8_amplitude_0.01_rep_1_r_H.png	 H	 r	 r	 n.a.	 7.887388e-01
9	 1	 3	 unflanked	 rf	 2	 0.216700	 0.000000	 unflanked_rf_freq_2_amplitude_0.2167_rep_1_l_D.png	 D	 l	 t	 n.a.	 3.671441e-01
9	 1	 4	 unflanked	 rf	 8	 0.268300	 0.000000	 unflanked_rf_freq_8_amplitude_0.2683_rep_2_l_K.png	 K	 l	 l	 n.a.	 3.381471e-01
9	 1	 5	 unflanked	 rf	 5	 0.113300	 0.000000	 unflanked_rf_freq_5_amplitude_0.1133_rep_1_l_K.png	 K	 l	 l	 n.a.	 6.837806e-01
9	 1	 6	 unflanked	 rf	 8	 0.010000	 0.000000	 unflanked_rf_freq_8_amplitude_0.01_rep_9_l_N.png	 N	 l	 r	 n.a.	 3.731621e-01
9	 1	 7	 unflanked	 rf	 8	 0.320000	 0.000000	 unflanked_rf_freq_8_amplitude_0.32_rep_9_r_N.png	 N	 r	 r	 n.a.	 2.873005e-01
9	 1	 8	 unflanked	 rf	 12	 0.268300	 0.000000	 unflanked_rf_freq_12_amplitude_0.2683_rep_0_b_K.png	 K	 b	 b	 n.a.	 4.148899e-01
9	 1	 9	 unflanked	 rf	 2	 0.165000	 0.000000	 unflanked_rf_freq_2_amplitude_0.165_rep_0_l_D.png	 D	 l	 b	 n.a.	 5.121401e-01
9	 1	 10	 unflanked	 rf	 5	 0.268300	 0.000000	 unflanked_rf_freq_5_amplitude_0.2683_rep_7_t_K.png	 K	 t	 t	 n.a.	 2.163171e-01
9	 1	 11	 unflanked	 rf	 4	 0.113300	 0.000000	 unflanked_rf_freq_4_amplitude_0.1133_rep_4_b_D.png	 D	 b	 t	 n.a.	 5.947219e-01
9	 1	 12	 unflanked	 rf	 4	 0.216700	 0.000000	 unflanked_rf_freq_4_amplitude_0.2167_rep_4_b_D.png	 D	 b	 t	 n.a.	 3.967533e-01
9	 1	 13	 unflanked	 rf	 8	 0.165000	 0.000000	 unflanked_rf_freq_8_amplitude_0.165_rep_8_r_D.png	 D	 r	 r	 n.a.	 2.838257e-01
9	 1	 14	 unflanked	 rf	 2	 0.165000	 0.000000	 unflanked_rf_freq_2_amplitude_0.165_rep_4_t_D.png	 D	 t	 r	 n.a.	 6.792974e-01
9	 1	 15	 unflanked	 rf	 5	 0.165000	 0.000000	 unflanked_rf_freq_5_amplitude_0.165_rep_7_t_K.png	 K	 t	 t	 n.a.	 3.884198e-01
9	 1	 16	 unflanked	 rf	 8	 0.320000	 0.000000	 unflanked_rf_freq_8_amplitude_0.32_rep_7_r_H.png	 H	 r	 r	 n.a.	 2.500303e-01
9	 1	 17	 unflanked	 rf	 4	 0.320000	 0.000000	 unflanked_rf_freq_4_amplitude_0.32_rep_0_t_K.png	 K	 t	 t	 n.a.	 2.809568e-01
9	 1	 18	 unflanked	 rf	 8	 0.010000	 0.000000	 unflanked_rf_freq_8_amplitude_0.01_rep_5_r_H.png	 H	 r	 t	 n.a.	 2.689684e-01
9	 1	 19	 unflanked	 rf	 4	 0.268300	 0.000000	 unflanked_rf_freq_4_amplitude_0.2683_rep_8_t_H.png	 H	 t	 t	 n.a.	 2.746415e-01
9	 1	 20	 unflanked	 rf	 3	 0.165000	 0.000000	 unflanked_rf_freq_3_amplitude_0.165_rep_7_r_D.png	 D	 r	 t	 n.a.	 5.119578e-01
9	 1	 21	 unflanked	 rf	 2	 0.061700	 0.000000	 unflanked_rf_freq_2_amplitude_0.0617_rep_6_l_D.png	 D	 l	 t	 n.a.	 4.936601e-01
9	 1	 22	 unflanked	 rf	 3	 0.268300	 0.000000	 unflanked_rf_freq_3_amplitude_0.2683_rep_8_r_H.png	 H	 r	 r	 n.a.	 2.535861e-01
9	 1	 23	 unflanked	 rf	 12	 0.320000	 0.000000	 unflanked_rf_freq_12_amplitude_0.32_rep_0_l_N.png	 N	 l	 l	 n.a.	 3.402647e-01
9	 1	 24	 unflanked	 rf	 3	 0.113300	 0.000000	 unflanked_rf_freq_3_amplitude_0.1133_rep_5_t_H.png	 H	 t	 t	 n.a.	 6.720057e-01
9	 1	 25	 unflanked	 rf	 4	 0.216700	 0.000000	 unflanked_rf_freq_4_amplitude_0.2167_rep_9_l_N.png	 N	 l	 l	 n.a.	 5.073040e-01
9	 1	 26	 unflanked	 rf	 4	 0.113300	 0.000000	 unflanked_rf_freq_4_amplitude_0.1133_rep_5_t_K.png	 K	 t	 t	 n.a.	 5.884185e-01
9	 1	 27	 unflanked	 rf	 8	 0.165000	 0.000000	 unflanked_rf_freq_8_amplitude_0.165_rep_4_r_H.png	 H	 r	 r	 n.a.	 2.606791e-01
9	 1	 28	 unflanked	 rf	 8	 0.113300	 0.000000	 unflanked_rf_freq_8_amplitude_0.1133_rep_3_r_H.png	 H	 r	 r	 n.a.	 2.709690e-01
9	 1	 29	 unflanked	 rf	 5	 0.268300	 0.000000	 unflanked_rf_freq_5_amplitude_0.2683_rep_1_l_N.png	 N	 l	 l	 n.a.	 2.531810e-01
9	 1	 30	 unflanked	 rf	 4	 0.010000	 0.000000	 unflanked_rf_freq_4_amplitude_0.01_rep_8_t_N.png	 N	 t	 b	 n.a.	 5.777161e-01
9	 1	 31	 unflanked	 rf	 12	 0.268300	 0.000000	 unflanked_rf_freq_12_amplitude_0.2683_rep_4_r_D.png	 D	 r	 r	 n.a.	 2.687874e-01
9	 1	 32	 unflanked	 rf	 4	 0.165000	 0.000000	 unflanked_rf_freq_4_amplitude_0.165_rep_1_b_H.png	 H	 b	 b	 n.a.	 2.905748e-01
9	 1	 33	 unflanked	 rf	 12	 0.320000	 0.000000	 unflanked_rf_freq_12_amplitude_0.32_rep_9_t_N.png	 N	 t	 t	 n.a.	 2.405627e-01
9	 1	 34	 unflanked	 rf	 4	 0.113300	 0.000000	 unflanked_rf_freq_4_amplitude_0.1133_rep_0_t_K.png	 K	 t	 t	 n.a.	 4.333768e-01
9	 1	 35	 unflanked	 rf	 3	 0.320000	 0.000000	 unflanked_rf_freq_3_amplitude_0.32_rep_7_t_H.png	 H	 t	 t	 n.a.	 2.192550e-01
9	 1	 36	 unflanked	 rf	 4	 0.268300	 0.000000	 unflanked_rf_freq_4_amplitude_0.2683_rep_6_b_H.png	 H	 b	 t	 n.a.	 4.017386e-01
9	 1	 37	 unflanked	 rf	 2	 0.268300	 0.000000	 unflanked_rf_freq_2_amplitude_0.2683_rep_5_l_K.png	 K	 l	 l	 n.a.	 4.008136e-01
9	 1	 38	 unflanked	 rf	 2	 0.268300	 0.000000	 unflanked_rf_freq_2_amplitude_0.2683_rep_8_r_H.png	 H	 r	 r	 n.a.	 3.264806e-01
9	 1	 39	 unflanked	 rf	 3	 0.113300	 0.000000	 unflanked_rf_freq_3_amplitude_0.1133_rep_3_b_N.png	 N	 b	 l	 n.a.	 5.410223e-01
9	 1	 40	 unflanked	 rf	 3	 0.216700	 0.000000	 unflanked_rf_freq_3_amplitude_0.2167_rep_7_b_K.png	 K	 b	 b	 n.a.	 2.817339e-01
9	 1	 41	 unflanked	 rf	 3	 0.320000	 0.000000	 unflanked_rf_freq_3_amplitude_0.32_rep_2_r_H.png	 H	 r	 r	 n.a.	 2.975587e-01
9	 1	 42	 unflanked	 rf	 5	 0.010000	 0.000000	 unflanked_rf_freq_5_amplitude_0.01_rep_6_t_D.png	 D	 t	 b	 n.a.	 7.906745e-01
9	 1	 43	 unflanked	 rf	 4	 0.061700	 0.000000	 unflanked_rf_freq_4_amplitude_0.0617_rep_7_r_D.png	 D	 r	 b	 n.a.	 6.716449e-01
9	 1	 44	 unflanked	 rf	 5	 0.010000	 0.000000	 unflanked_rf_freq_5_amplitude_0.01_rep_1_l_D.png	 D	 l	 r	 n.a.	 6.868606e-01
9	 1	 45	 unflanked	 rf	 12	 0.113300	 0.000000	 unflanked_rf_freq_12_amplitude_0.1133_rep_4_b_D.png	 D	 b	 b	 n.a.	 3.747588e-01
9	 1	 46	 unflanked	 rf	 8	 0.061700	 0.000000	 unflanked_rf_freq_8_amplitude_0.0617_rep_3_l_D.png	 D	 l	 l	 n.a.	 4.874122e-01
9	 1	 47	 unflanked	 rf	 8	 0.113300	 0.000000	 unflanked_rf_freq_8_amplitude_0.1133_rep_7_r_K.png	 K	 r	 t	 n.a.	 9.821929e-01
9	 1	 48	 unflanked	 rf	 8	 0.010000	 0.000000	 unflanked_rf_freq_8_amplitude_0.01_rep_4_r_H.png	 H	 r	 t	 n.a.	 1.174665e+00
9	 1	 49	 unflanked	 rf	 3	 0.113300	 0.000000	 unflanked_rf_freq_3_amplitude_0.1133_rep_7_b_D.png	 D	 b	 t	 n.a.	 6.953503e-01
9	 1	 50	 unflanked	 rf	 2	 0.165000	 0.000000	 unflanked_rf_freq_2_amplitude_0.165_rep_1_r_H.png	 H	 r	 t	 n.a.	 5.255129e-01
9	 1	 51	 unflanked	 rf	 12	 0.165000	 0.000000	 unflanked_rf_freq_12_amplitude_0.165_rep_2_r_H.png	 H	 r	 r	 n.a.	 2.539576e-01
9	 1	 52	 unflanked	 rf	 4	 0.113300	 0.000000	 unflanked_rf_freq_4_amplitude_0.1133_rep_1_l_D.png	 D	 l	 r	 n.a.	 8.054295e-01
9	 1	 53	 unflanked	 rf	 2	 0.113300	 0.000000	 unflanked_rf_freq_2_amplitude_0.1133_rep_3_b_K.png	 K	 b	 b	 n.a.	 5.630237e-01
9	 1	 54	 unflanked	 rf	 5	 0.268300	 0.000000	 unflanked_rf_freq_5_amplitude_0.2683_rep_3_r_K.png	 K	 r	 r	 n.a.	 3.452072e-01
9	 1	 55	 unflanked	 rf	 5	 0.010000	 0.000000	 unflanked_rf_freq_5_amplitude_0.01_rep_9_b_K.png	 K	 b	 b	 n.a.	 5.354802e-01
9	 1	 56	 unflanked	 rf	 4	 0.113300	 0.000000	 unflanked_rf_freq_4_amplitude_0.1133_rep_6_t_N.png	 N	 t	 r	 n.a.	 7.978213e-01
9	 1	 57	 unflanked	 rf	 2	 0.320000	 0.000000	 unflanked_rf_freq_2_amplitude_0.32_rep_2_b_K.png	 K	 b	 b	 n.a.	 3.828889e-01
9	 1	 58	 unflanked	 rf	 2	 0.061700	 0.000000	 unflanked_rf_freq_2_amplitude_0.0617_rep_5_r_N.png	 N	 r	 b	 n.a.	 9.544425e-01
9	 1	 59	 unflanked	 rf	 8	 0.216700	 0.000000	 unflanked_rf_freq_8_amplitude_0.2167_rep_8_t_D.png	 D	 t	 t	 n.a.	 3.181236e-01
9	 1	 60	 unflanked	 rf	 3	 0.320000	 0.000000	 unflanked_rf_freq_3_amplitude_0.32_rep_9_l_K.png	 K	 l	 l	 n.a.	 3.617037e-01
9	 1	 61	 unflanked	 rf	 2	 0.320000	 0.000000	 unflanked_rf_freq_2_amplitude_0.32_rep_7_t_K.png	 K	 t	 t	 n.a.	 2.924679e-01
9	 1	 62	 unflanked	 rf	 8	 0.216700	 0.000000	 unflanked_rf_freq_8_amplitude_0.2167_rep_6_r_K.png	 K	 r	 r	 n.a.	 3.162822e-01
9	 1	 63	 unflanked	 rf	 2	 0.113300	 0.000000	 unflanked_rf_freq_2_amplitude_0.1133_rep_8_l_N.png	 N	 l	 l	 n.a.	 7.168868e-01
9	 1	 64	 unflanked	 rf	 8	 0.113300	 0.000000	 unflanked_rf_freq_8_amplitude_0.1133_rep_6_l_N.png	 N	 l	 l	 n.a.	 4.803511e-01
9	 1	 65	 unflanked	 rf	 3	 0.010000	 0.000000	 unflanked_rf_freq_3_amplitude_0.01_rep_0_t_D.png	 D	 t	 r	 n.a.	 5.969234e-01
9	 1	 66	 unflanked	 rf	 12	 0.320000	 0.000000	 unflanked_rf_freq_12_amplitude_0.32_rep_3_b_K.png	 K	 b	 b	 n.a.	 2.767621e-01
9	 1	 67	 unflanked	 rf	 2	 0.113300	 0.000000	 unflanked_rf_freq_2_amplitude_0.1133_rep_4_t_N.png	 N	 t	 b	 n.a.	 3.943129e-01
9	 1	 68	 unflanked	 rf	 5	 0.216700	 0.000000	 unflanked_rf_freq_5_amplitude_0.2167_rep_1_r_N.png	 N	 r	 r	 n.a.	 2.923659e-01
9	 1	 69	 unflanked	 rf	 8	 0.216700	 0.000000	 unflanked_rf_freq_8_amplitude_0.2167_rep_2_l_K.png	 K	 l	 l	 n.a.	 2.015920e-01
9	 1	 70	 unflanked	 rf	 8	 0.268300	 0.000000	 unflanked_rf_freq_8_amplitude_0.2683_rep_9_t_K.png	 K	 t	 t	 n.a.	 2.636314e-01
9	 1	 71	 unflanked	 rf	 3	 0.061700	 0.000000	 unflanked_rf_freq_3_amplitude_0.0617_rep_4_l_N.png	 N	 l	 t	 n.a.	 1.069624e+00
9	 1	 72	 unflanked	 rf	 5	 0.165000	 0.000000	 unflanked_rf_freq_5_amplitude_0.165_rep_5_r_N.png	 N	 r	 r	 n.a.	 2.221682e-01
9	 1	 73	 unflanked	 rf	 8	 0.165000	 0.000000	 unflanked_rf_freq_8_amplitude_0.165_rep_2_r_D.png	 D	 r	 r	 n.a.	 2.701351e-01
9	 1	 74	 unflanked	 rf	 3	 0.216700	 0.000000	 unflanked_rf_freq_3_amplitude_0.2167_rep_9_b_N.png	 N	 b	 b	 n.a.	 3.533158e-01
9	 1	 75	 unflanked	 rf	 8	 0.010000	 0.000000	 unflanked_rf_freq_8_amplitude_0.01_rep_0_t_D.png	 D	 t	 r	 n.a.	 3.217012e-01
9	 1	 76	 unflanked	 rf	 2	 0.010000	 0.000000	 unflanked_rf_freq_2_amplitude_0.01_rep_6_t_H.png	 H	 t	 r	 n.a.	 7.029159e-01
9	 1	 77	 unflanked	 rf	 12	 0.165000	 0.000000	 unflanked_rf_freq_12_amplitude_0.165_rep_8_t_N.png	 N	 t	 t	 n.a.	 3.238209e-01
9	 1	 78	 unflanked	 rf	 12	 0.216700	 0.000000	 unflanked_rf_freq_12_amplitude_0.2167_rep_1_l_D.png	 D	 l	 l	 n.a.	 3.829994e-01
9	 1	 79	 unflanked	 rf	 5	 0.320000	 0.000000	 unflanked_rf_freq_5_amplitude_0.32_rep_3_l_N.png	 N	 l	 l	 n.a.	 2.481035e-01
9	 1	 80	 unflanked	 rf	 12	 0.268300	 0.000000	 unflanked_rf_freq_12_amplitude_0.2683_rep_7_r_H.png	 H	 r	 r	 n.a.	 2.282610e-01
9	 1	 81	 unflanked	 rf	 4	 0.216700	 0.000000	 unflanked_rf_freq_4_amplitude_0.2167_rep_7_t_N.png	 N	 t	 t	 n.a.	 2.955913e-01
9	 1	 82	 unflanked	 rf	 12	 0.320000	 0.000000	 unflanked_rf_freq_12_amplitude_0.32_rep_7_t_K.png	 K	 t	 t	 n.a.	 2.326474e-01
9	 1	 83	 unflanked	 rf	 3	 0.268300	 0.000000	 unflanked_rf_freq_3_amplitude_0.2683_rep_6_r_H.png	 H	 r	 r	 n.a.	 2.586238e-01
9	 1	 84	 unflanked	 rf	 4	 0.216700	 0.000000	 unflanked_rf_freq_4_amplitude_0.2167_rep_2_b_D.png	 D	 b	 b	 n.a.	 4.130512e-01
9	 1	 85	 unflanked	 rf	 12	 0.113300	 0.000000	 unflanked_rf_freq_12_amplitude_0.1133_rep_2_b_D.png	 D	 b	 b	 n.a.	 2.826774e-01
9	 1	 86	 unflanked	 rf	 2	 0.010000	 0.000000	 unflanked_rf_freq_2_amplitude_0.01_rep_5_l_H.png	 H	 l	 b	 n.a.	 3.815655e-01
9	 1	 87	 unflanked	 rf	 2	 0.061700	 0.000000	 unflanked_rf_freq_2_amplitude_0.0617_rep_3_b_N.png	 N	 b	 t	 n.a.	 2.800352e-01
9	 1	 88	 unflanked	 rf	 8	 0.320000	 0.000000	 unflanked_rf_freq_8_amplitude_0.32_rep_6_r_K.png	 K	 r	 r	 n.a.	 2.546425e-01
9	 1	 89	 unflanked	 rf	 5	 0.320000	 0.000000	 unflanked_rf_freq_5_amplitude_0.32_rep_4_r_D.png	 D	 r	 r	 n.a.	 3.064535e-01
9	 1	 90	 unflanked	 rf	 2	 0.061700	 0.000000	 unflanked_rf_freq_2_amplitude_0.0617_rep_9_b_H.png	 H	 b	 b	 n.a.	 3.084648e-01
9	 1	 91	 unflanked	 rf	 4	 0.010000	 0.000000	 unflanked_rf_freq_4_amplitude_0.01_rep_5_r_K.png	 K	 r	 r	 n.a.	 5.653054e-01
9	 1	 92	 unflanked	 rf	 12	 0.268300	 0.000000	 unflanked_rf_freq_12_amplitude_0.2683_rep_6_l_K.png	 K	 l	 l	 n.a.	 5.176788e-01
9	 1	 93	 unflanked	 rf	 4	 0.320000	 0.000000	 unflanked_rf_freq_4_amplitude_0.32_rep_5_r_D.png	 D	 r	 r	 n.a.	 3.164399e-01
9	 1	 94	 unflanked	 rf	 5	 0.061700	 0.000000	 unflanked_rf_freq_5_amplitude_0.0617_rep_7_l_D.png	 D	 l	 t	 n.a.	 3.453869e-01
9	 1	 95	 unflanked	 rf	 8	 0.061700	 0.000000	 unflanked_rf_freq_8_amplitude_0.0617_rep_5_t_K.png	 K	 t	 t	 n.a.	 3.242182e-01
9	 1	 96	 unflanked	 rf	 5	 0.113300	 0.000000	 unflanked_rf_freq_5_amplitude_0.1133_rep_6_l_H.png	 H	 l	 l	 n.a.	 4.119910e-01
9	 1	 97	 unflanked	 rf	 2	 0.165000	 0.000000	 unflanked_rf_freq_2_amplitude_0.165_rep_7_r_K.png	 K	 r	 r	 n.a.	 4.979928e-01
9	 1	 98	 unflanked	 rf	 2	 0.216700	 0.000000	 unflanked_rf_freq_2_amplitude_0.2167_rep_7_t_H.png	 H	 t	 t	 n.a.	 3.093994e-01
9	 1	 99	 unflanked	 rf	 3	 0.165000	 0.000000	 unflanked_rf_freq_3_amplitude_0.165_rep_0_b_H.png	 H	 b	 b	 n.a.	 2.747298e-01
9	 1	 100	 unflanked	 rf	 8	 0.165000	 0.000000	 unflanked_rf_freq_8_amplitude_0.165_rep_3_t_N.png	 N	 t	 t	 n.a.	 3.305966e-01
9	 1	 101	 unflanked	 rf	 3	 0.010000	 0.000000	 unflanked_rf_freq_3_amplitude_0.01_rep_8_l_D.png	 D	 l	 r	 n.a.	 5.478579e-01
9	 1	 102	 unflanked	 rf	 3	 0.165000	 0.000000	 unflanked_rf_freq_3_amplitude_0.165_rep_4_r_N.png	 N	 r	 r	 n.a.	 6.337179e-01
9	 1	 103	 unflanked	 rf	 12	 0.010000	 0.000000	 unflanked_rf_freq_12_amplitude_0.01_rep_2_r_N.png	 N	 r	 t	 n.a.	 8.317639e-01
9	 1	 104	 unflanked	 rf	 2	 0.268300	 0.000000	 unflanked_rf_freq_2_amplitude_0.2683_rep_6_t_D.png	 D	 t	 t	 n.a.	 4.221625e-01
9	 1	 105	 unflanked	 rf	 5	 0.320000	 0.000000	 unflanked_rf_freq_5_amplitude_0.32_rep_0_b_N.png	 N	 b	 b	 n.a.	 3.268859e-01
9	 1	 106	 unflanked	 rf	 5	 0.216700	 0.000000	 unflanked_rf_freq_5_amplitude_0.2167_rep_4_t_D.png	 D	 t	 t	 n.a.	 2.691175e-01
9	 1	 107	 unflanked	 rf	 3	 0.165000	 0.000000	 unflanked_rf_freq_3_amplitude_0.165_rep_5_b_D.png	 D	 b	 t	 n.a.	 3.114480e-01
9	 1	 108	 unflanked	 rf	 4	 0.320000	 0.000000	 unflanked_rf_freq_4_amplitude_0.32_rep_6_t_N.png	 N	 t	 t	 n.a.	 3.188790e-01
9	 1	 109	 unflanked	 rf	 3	 0.216700	 0.000000	 unflanked_rf_freq_3_amplitude_0.2167_rep_3_r_K.png	 K	 r	 r	 n.a.	 3.378959e-01
9	 1	 110	 unflanked	 rf	 3	 0.010000	 0.000000	 unflanked_rf_freq_3_amplitude_0.01_rep_6_r_K.png	 K	 r	 b	 n.a.	 1.221439e+00
9	 1	 111	 unflanked	 rf	 5	 0.010000	 0.000000	 unflanked_rf_freq_5_amplitude_0.01_rep_5_b_D.png	 D	 b	 t	 n.a.	 3.024938e-01
9	 1	 112	 unflanked	 rf	 4	 0.165000	 0.000000	 unflanked_rf_freq_4_amplitude_0.165_rep_4_l_N.png	 N	 l	 l	 n.a.	 3.272384e-01
9	 1	 113	 unflanked	 rf	 5	 0.165000	 0.000000	 unflanked_rf_freq_5_amplitude_0.165_rep_3_b_N.png	 N	 b	 b	 n.a.	 8.429238e-01
9	 1	 114	 unflanked	 rf	 8	 0.268300	 0.000000	 unflanked_rf_freq_8_amplitude_0.2683_rep_1_r_H.png	 H	 r	 r	 n.a.	 3.020766e-01
9	 1	 115	 unflanked	 rf	 12	 0.216700	 0.000000	 unflanked_rf_freq_12_amplitude_0.2167_rep_6_b_D.png	 D	 b	 b	 n.a.	 2.862630e-01
9	 1	 116	 unflanked	 rf	 5	 0.113300	 0.000000	 unflanked_rf_freq_5_amplitude_0.1133_rep_0_t_H.png	 H	 t	 b	 n.a.	 5.069219e-01
9	 1	 117	 unflanked	 rf	 4	 0.216700	 0.000000	 unflanked_rf_freq_4_amplitude_0.2167_rep_1_r_D.png	 D	 r	 r	 n.a.	 3.121144e-01
9	 1	 118	 unflanked	 rf	 2	 0.268300	 0.000000	 unflanked_rf_freq_2_amplitude_0.2683_rep_1_l_N.png	 N	 l	 l	 n.a.	 4.035170e-01
9	 1	 119	 unflanked	 rf	 5	 0.268300	 0.000000	 unflanked_rf_freq_5_amplitude_0.2683_rep_9_l_K.png	 K	 l	 l	 n.a.	 3.264314e-01
9	 1	 120	 unflanked	 rf	 4	 0.165000	 0.000000	 unflanked_rf_freq_4_amplitude_0.165_rep_3_b_D.png	 D	 b	 b	 n.a.	 4.210918e-01
9	 1	 121	 unflanked	 rf	 5	 0.113300	 0.000000	 unflanked_rf_freq_5_amplitude_0.1133_rep_5_r_K.png	 K	 r	 r	 n.a.	 4.773805e-01
9	 1	 122	 unflanked	 rf	 5	 0.061700	 0.000000	 unflanked_rf_freq_5_amplitude_0.0617_rep_9_r_H.png	 H	 r	 b	 n.a.	 8.515308e-01
9	 1	 123	 unflanked	 rf	 12	 0.216700	 0.000000	 unflanked_rf_freq_12_amplitude_0.2167_rep_2_t_N.png	 N	 t	 t	 n.a.	 3.114445e-01
9	 1	 124	 unflanked	 rf	 8	 0.061700	 0.000000	 unflanked_rf_freq_8_amplitude_0.0617_rep_8_b_N.png	 N	 b	 b	 n.a.	 5.596152e-01
9	 1	 125	 unflanked	 rf	 5	 0.113300	 0.000000	 unflanked_rf_freq_5_amplitude_0.1133_rep_4_l_K.png	 K	 l	 l	 n.a.	 3.754512e-01
9	 1	 126	 unflanked	 rf	 5	 0.320000	 0.000000	 unflanked_rf_freq_5_amplitude_0.32_rep_7_t_H.png	 H	 t	 t	 n.a.	 3.554620e-01
9	 1	 127	 unflanked	 rf	 5	 0.061700	 0.000000	 unflanked_rf_freq_5_amplitude_0.0617_rep_3_r_K.png	 K	 r	 b	 n.a.	 1.052999e+00
9	 1	 128	 unflanked	 rf	 5	 0.268300	 0.000000	 unflanked_rf_freq_5_amplitude_0.2683_rep_0_r_N.png	 N	 r	 r	 n.a.	 4.792018e-01
9	 1	 129	 unflanked	 rf	 3	 0.268300	 0.000000	 unflanked_rf_freq_3_amplitude_0.2683_rep_2_r_N.png	 N	 r	 r	 n.a.	 2.991725e-01
9	 1	 130	 unflanked	 rf	 3	 0.320000	 0.000000	 unflanked_rf_freq_3_amplitude_0.32_rep_6_l_N.png	 N	 l	 l	 n.a.	 3.076840e-01
9	 1	 131	 unflanked	 rf	 4	 0.061700	 0.000000	 unflanked_rf_freq_4_amplitude_0.0617_rep_3_b_D.png	 D	 b	 t	 n.a.	 2.657401e-01
9	 1	 132	 unflanked	 rf	 12	 0.320000	 0.000000	 unflanked_rf_freq_12_amplitude_0.32_rep_5_r_K.png	 K	 r	 r	 n.a.	 2.542298e-01
9	 1	 133	 unflanked	 rf	 3	 0.010000	 0.000000	 unflanked_rf_freq_3_amplitude_0.01_rep_9_t_N.png	 N	 t	 b	 n.a.	 3.750032e-01
9	 1	 134	 unflanked	 rf	 12	 0.113300	 0.000000	 unflanked_rf_freq_12_amplitude_0.1133_rep_3_r_H.png	 H	 r	 r	 n.a.	 2.933089e-01
9	 1	 135	 unflanked	 rf	 12	 0.320000	 0.000000	 unflanked_rf_freq_12_amplitude_0.32_rep_6_t_N.png	 N	 t	 t	 n.a.	 2.511136e-01
9	 1	 136	 unflanked	 rf	 12	 0.113300	 0.000000	 unflanked_rf_freq_12_amplitude_0.1133_rep_6_b_D.png	 D	 b	 b	 n.a.	 4.926004e-01
9	 1	 137	 unflanked	 rf	 5	 0.165000	 0.000000	 unflanked_rf_freq_5_amplitude_0.165_rep_8_r_K.png	 K	 r	 r	 n.a.	 2.900616e-01
9	 1	 138	 unflanked	 rf	 8	 0.216700	 0.000000	 unflanked_rf_freq_8_amplitude_0.2167_rep_1_l_N.png	 N	 l	 l	 n.a.	 3.109783e-01
9	 1	 139	 unflanked	 rf	 12	 0.165000	 0.000000	 unflanked_rf_freq_12_amplitude_0.165_rep_5_t_N.png	 N	 t	 t	 n.a.	 2.799463e-01
9	 1	 140	 unflanked	 rf	 8	 0.268300	 0.000000	 unflanked_rf_freq_8_amplitude_0.2683_rep_0_t_K.png	 K	 t	 t	 n.a.	 2.468062e-01
9	 1	 141	 unflanked	 rf	 12	 0.113300	 0.000000	 unflanked_rf_freq_12_amplitude_0.1133_rep_7_r_K.png	 K	 r	 r	 n.a.	 4.986556e-01
9	 1	 142	 unflanked	 rf	 12	 0.165000	 0.000000	 unflanked_rf_freq_12_amplitude_0.165_rep_4_b_H.png	 H	 b	 b	 n.a.	 3.803546e-01
9	 1	 143	 unflanked	 rf	 2	 0.320000	 0.000000	 unflanked_rf_freq_2_amplitude_0.32_rep_4_t_H.png	 H	 t	 t	 n.a.	 4.713752e-01
9	 1	 144	 unflanked	 rf	 8	 0.113300	 0.000000	 unflanked_rf_freq_8_amplitude_0.1133_rep_2_r_D.png	 D	 r	 r	 n.a.	 2.540705e-01
9	 1	 145	 unflanked	 rf	 8	 0.061700	 0.000000	 unflanked_rf_freq_8_amplitude_0.0617_rep_4_r_N.png	 N	 r	 l	 n.a.	 6.398025e-01
9	 1	 146	 unflanked	 rf	 3	 0.268300	 0.000000	 unflanked_rf_freq_3_amplitude_0.2683_rep_1_b_H.png	 H	 b	 b	 n.a.	 4.420763e-01
9	 1	 147	 unflanked	 rf	 5	 0.268300	 0.000000	 unflanked_rf_freq_5_amplitude_0.2683_rep_4_l_D.png	 D	 l	 l	 n.a.	 3.052921e-01
9	 1	 148	 unflanked	 rf	 4	 0.320000	 0.000000	 unflanked_rf_freq_4_amplitude_0.32_rep_9_t_H.png	 H	 t	 t	 n.a.	 2.676098e-01
9	 1	 149	 unflanked	 rf	 8	 0.216700	 0.000000	 unflanked_rf_freq_8_amplitude_0.2167_rep_7_l_N.png	 N	 l	 l	 n.a.	 2.881123e-01
9	 1	 150	 unflanked	 rf	 2	 0.268300	 0.000000	 unflanked_rf_freq_2_amplitude_0.2683_rep_3_r_H.png	 H	 r	 r	 n.a.	 2.668784e-01
9	 1	 151	 unflanked	 rf	 12	 0.268300	 0.000000	 unflanked_rf_freq_12_amplitude_0.2683_rep_5_l_D.png	 D	 l	 l	 n.a.	 2.188240e-01
9	 1	 152	 unflanked	 rf	 4	 0.165000	 0.000000	 unflanked_rf_freq_4_amplitude_0.165_rep_7_b_D.png	 D	 b	 b	 n.a.	 4.218014e-01
9	 1	 153	 unflanked	 rf	 4	 0.010000	 0.000000	 unflanked_rf_freq_4_amplitude_0.01_rep_0_b_N.png	 N	 b	 b	 n.a.	 3.287369e-01
9	 1	 154	 unflanked	 rf	 4	 0.268300	 0.000000	 unflanked_rf_freq_4_amplitude_0.2683_rep_5_t_N.png	 N	 t	 t	 n.a.	 2.487840e-01
9	 1	 155	 unflanked	 rf	 5	 0.113300	 0.000000	 unflanked_rf_freq_5_amplitude_0.1133_rep_2_b_N.png	 N	 b	 b	 n.a.	 2.624458e-01
9	 1	 156	 unflanked	 rf	 12	 0.320000	 0.000000	 unflanked_rf_freq_12_amplitude_0.32_rep_1_r_N.png	 N	 r	 r	 n.a.	 2.123400e-01
9	 1	 157	 unflanked	 rf	 12	 0.113300	 0.000000	 unflanked_rf_freq_12_amplitude_0.1133_rep_5_t_H.png	 H	 t	 t	 n.a.	 2.175047e-01
9	 1	 158	 unflanked	 rf	 3	 0.165000	 0.000000	 unflanked_rf_freq_3_amplitude_0.165_rep_3_b_H.png	 H	 b	 b	 n.a.	 3.332443e-01
9	 1	 159	 unflanked	 rf	 2	 0.216700	 0.000000	 unflanked_rf_freq_2_amplitude_0.2167_rep_5_r_H.png	 H	 r	 r	 n.a.	 2.560987e-01
9	 1	 160	 unflanked	 rf	 4	 0.061700	 0.000000	 unflanked_rf_freq_4_amplitude_0.0617_rep_2_l_D.png	 D	 l	 b	 n.a.	 2.982809e-01
9	 1	 161	 unflanked	 rf	 2	 0.216700	 0.000000	 unflanked_rf_freq_2_amplitude_0.2167_rep_2_b_H.png	 H	 b	 b	 n.a.	 4.379843e-01
9	 1	 162	 unflanked	 rf	 3	 0.113300	 0.000000	 unflanked_rf_freq_3_amplitude_0.1133_rep_8_b_D.png	 D	 b	 b	 n.a.	 3.398289e-01
9	 1	 163	 unflanked	 rf	 12	 0.010000	 0.000000	 unflanked_rf_freq_12_amplitude_0.01_rep_8_b_D.png	 D	 b	 b	 n.a.	 1.208773e+00
9	 1	 164	 unflanked	 rf	 12	 0.268300	 0.000000	 unflanked_rf_freq_12_amplitude_0.2683_rep_3_l_K.png	 K	 l	 l	 n.a.	 3.069659e-01
9	 1	 165	 unflanked	 rf	 3	 0.216700	 0.000000	 unflanked_rf_freq_3_amplitude_0.2167_rep_2_r_N.png	 N	 r	 r	 n.a.	 4.449343e-01
9	 1	 166	 unflanked	 rf	 12	 0.010000	 0.000000	 unflanked_rf_freq_12_amplitude_0.01_rep_3_l_K.png	 K	 l	 b	 n.a.	 1.512156e+00
9	 1	 167	 unflanked	 rf	 3	 0.061700	 0.000000	 unflanked_rf_freq_3_amplitude_0.0617_rep_9_l_H.png	 H	 l	 b	 n.a.	 3.902289e-01
9	 1	 168	 unflanked	 rf	 12	 0.061700	 0.000000	 unflanked_rf_freq_12_amplitude_0.0617_rep_7_b_D.png	 D	 b	 r	 n.a.	 6.075541e-01
9	 1	 169	 unflanked	 rf	 12	 0.268300	 0.000000	 unflanked_rf_freq_12_amplitude_0.2683_rep_9_l_K.png	 K	 l	 l	 n.a.	 2.688171e-01
9	 1	 170	 unflanked	 rf	 5	 0.268300	 0.000000	 unflanked_rf_freq_5_amplitude_0.2683_rep_5_l_N.png	 N	 l	 l	 n.a.	 2.895477e-01
9	 1	 171	 unflanked	 rf	 5	 0.113300	 0.000000	 unflanked_rf_freq_5_amplitude_0.1133_rep_9_r_D.png	 D	 r	 t	 n.a.	 4.349081e-01
9	 1	 172	 unflanked	 rf	 4	 0.010000	 0.000000	 unflanked_rf_freq_4_amplitude_0.01_rep_6_b_N.png	 N	 b	 r	 n.a.	 1.191644e+00
9	 1	 173	 unflanked	 rf	 5	 0.061700	 0.000000	 unflanked_rf_freq_5_amplitude_0.0617_rep_4_r_H.png	 H	 r	 r	 n.a.	 3.334635e-01
9	 1	 174	 unflanked	 rf	 2	 0.113300	 0.000000	 unflanked_rf_freq_2_amplitude_0.1133_rep_0_t_N.png	 N	 t	 t	 n.a.	 4.899376e-01
9	 1	 175	 unflanked	 rf	 12	 0.216700	 0.000000	 unflanked_rf_freq_12_amplitude_0.2167_rep_9_t_D.png	 D	 t	 t	 n.a.	 2.877956e-01
9	 1	 176	 unflanked	 rf	 4	 0.061700	 0.000000	 unflanked_rf_freq_4_amplitude_0.0617_rep_6_b_N.png	 N	 b	 t	 n.a.	 3.887092e-01
9	 1	 177	 unflanked	 rf	 2	 0.113300	 0.000000	 unflanked_rf_freq_2_amplitude_0.1133_rep_6_l_N.png	 N	 l	 t	 n.a.	 3.295825e-01
9	 1	 178	 unflanked	 rf	 4	 0.061700	 0.000000	 unflanked_rf_freq_4_amplitude_0.0617_rep_0_r_D.png	 D	 r	 t	 n.a.	 9.615492e-01
9	 1	 179	 unflanked	 rf	 2	 0.010000	 0.000000	 unflanked_rf_freq_2_amplitude_0.01_rep_4_t_D.png	 D	 t	 r	 n.a.	 3.827875e-01
9	 1	 180	 unflanked	 rf	 12	 0.113300	 0.000000	 unflanked_rf_freq_12_amplitude_0.1133_rep_1_b_D.png	 D	 b	 r	 n.a.	 1.223120e+00
9	 1	 181	 unflanked	 rf	 5	 0.010000	 0.000000	 unflanked_rf_freq_5_amplitude_0.01_rep_3_t_K.png	 K	 t	 r	 n.a.	 1.004765e+00
9	 1	 182	 unflanked	 rf	 12	 0.010000	 0.000000	 unflanked_rf_freq_12_amplitude_0.01_rep_4_t_D.png	 D	 t	 b	 n.a.	 3.517944e-01
9	 1	 183	 unflanked	 rf	 5	 0.113300	 0.000000	 unflanked_rf_freq_5_amplitude_0.1133_rep_3_t_K.png	 K	 t	 t	 n.a.	 6.165553e-01
9	 1	 184	 unflanked	 rf	 2	 0.320000	 0.000000	 unflanked_rf_freq_2_amplitude_0.32_rep_3_l_N.png	 N	 l	 l	 n.a.	 4.908687e-01
9	 1	 185	 unflanked	 rf	 4	 0.216700	 0.000000	 unflanked_rf_freq_4_amplitude_0.2167_rep_3_l_H.png	 H	 l	 l	 n.a.	 3.921476e-01
9	 1	 186	 unflanked	 rf	 5	 0.216700	 0.000000	 unflanked_rf_freq_5_amplitude_0.2167_rep_9_t_K.png	 K	 t	 t	 n.a.	 3.274823e-01
9	 1	 187	 unflanked	 rf	 4	 0.268300	 0.000000	 unflanked_rf_freq_4_amplitude_0.2683_rep_1_l_N.png	 N	 l	 l	 n.a.	 2.973996e-01
9	 1	 188	 unflanked	 rf	 5	 0.010000	 0.000000	 unflanked_rf_freq_5_amplitude_0.01_rep_7_l_N.png	 N	 l	 t	 n.a.	 2.883462e-01
9	 1	 189	 unflanked	 rf	 8	 0.320000	 0.000000	 unflanked_rf_freq_8_amplitude_0.32_rep_8_l_N.png	 N	 l	 l	 n.a.	 2.678016e-01
9	 1	 190	 unflanked	 rf	 12	 0.061700	 0.000000	 unflanked_rf_freq_12_amplitude_0.0617_rep_5_r_D.png	 D	 r	 r	 n.a.	 4.081934e-01
9	 1	 191	 unflanked	 rf	 5	 0.061700	 0.000000	 unflanked_rf_freq_5_amplitude_0.0617_rep_0_r_H.png	 H	 r	 t	 n.a.	 6.420253e-01
9	 1	 192	 unflanked	 rf	 12	 0.010000	 0.000000	 unflanked_rf_freq_12_amplitude_0.01_rep_7_l_K.png	 K	 l	 r	 n.a.	 6.122639e-01
9	 1	 193	 unflanked	 rf	 2	 0.010000	 0.000000	 unflanked_rf_freq_2_amplitude_0.01_rep_3_t_N.png	 N	 t	 r	 n.a.	 9.172283e-01
9	 1	 194	 unflanked	 rf	 4	 0.268300	 0.000000	 unflanked_rf_freq_4_amplitude_0.2683_rep_7_l_D.png	 D	 l	 t	 n.a.	 8.726498e-01
9	 1	 195	 unflanked	 rf	 3	 0.216700	 0.000000	 unflanked_rf_freq_3_amplitude_0.2167_rep_6_l_D.png	 D	 l	 l	 n.a.	 3.901332e-01
9	 1	 196	 unflanked	 rf	 4	 0.113300	 0.000000	 unflanked_rf_freq_4_amplitude_0.1133_rep_8_l_H.png	 H	 l	 r	 n.a.	 5.399133e-01
9	 1	 197	 unflanked	 rf	 3	 0.010000	 0.000000	 unflanked_rf_freq_3_amplitude_0.01_rep_5_t_K.png	 K	 t	 r	 n.a.	 1.035466e+00
9	 1	 198	 unflanked	 rf	 12	 0.010000	 0.000000	 unflanked_rf_freq_12_amplitude_0.01_rep_0_b_K.png	 K	 b	 r	 n.a.	 5.593523e-01
9	 1	 199	 unflanked	 rf	 4	 0.165000	 0.000000	 unflanked_rf_freq_4_amplitude_0.165_rep_6_b_D.png	 D	 b	 b	 n.a.	 4.118481e-01
9	 1	 200	 unflanked	 rf	 2	 0.320000	 0.000000	 unflanked_rf_freq_2_amplitude_0.32_rep_5_b_N.png	 N	 b	 b	 n.a.	 4.326600e-01
9	 1	 201	 unflanked	 rf	 5	 0.165000	 0.000000	 unflanked_rf_freq_5_amplitude_0.165_rep_0_t_D.png	 D	 t	 t	 n.a.	 5.553044e-01
9	 1	 202	 unflanked	 rf	 8	 0.113300	 0.000000	 unflanked_rf_freq_8_amplitude_0.1133_rep_9_r_H.png	 H	 r	 r	 n.a.	 3.133756e-01
9	 1	 203	 unflanked	 rf	 5	 0.216700	 0.000000	 unflanked_rf_freq_5_amplitude_0.2167_rep_8_b_H.png	 H	 b	 b	 n.a.	 3.179140e-01
9	 1	 204	 unflanked	 rf	 5	 0.320000	 0.000000	 unflanked_rf_freq_5_amplitude_0.32_rep_1_r_D.png	 D	 r	 r	 n.a.	 2.772821e-01
9	 1	 205	 unflanked	 rf	 2	 0.113300	 0.000000	 unflanked_rf_freq_2_amplitude_0.1133_rep_7_t_D.png	 D	 t	 r	 n.a.	 3.180515e-01
9	 1	 206	 unflanked	 rf	 5	 0.165000	 0.000000	 unflanked_rf_freq_5_amplitude_0.165_rep_2_r_D.png	 D	 r	 r	 n.a.	 3.073314e-01
9	 1	 207	 unflanked	 rf	 2	 0.165000	 0.000000	 unflanked_rf_freq_2_amplitude_0.165_rep_5_r_K.png	 K	 r	 r	 n.a.	 5.620102e-01
9	 1	 208	 unflanked	 rf	 4	 0.165000	 0.000000	 unflanked_rf_freq_4_amplitude_0.165_rep_0_r_K.png	 K	 r	 r	 n.a.	 4.952891e-01
9	 1	 209	 unflanked	 rf	 12	 0.216700	 0.000000	 unflanked_rf_freq_12_amplitude_0.2167_rep_3_r_N.png	 N	 r	 r	 n.a.	 3.316905e-01
9	 1	 210	 unflanked	 rf	 4	 0.113300	 0.000000	 unflanked_rf_freq_4_amplitude_0.1133_rep_3_b_H.png	 H	 b	 b	 n.a.	 4.336371e-01
9	 1	 211	 unflanked	 rf	 8	 0.268300	 0.000000	 unflanked_rf_freq_8_amplitude_0.2683_rep_4_r_H.png	 H	 r	 r	 n.a.	 3.774876e-01
9	 1	 212	 unflanked	 rf	 8	 0.216700	 0.000000	 unflanked_rf_freq_8_amplitude_0.2167_rep_0_t_K.png	 K	 t	 t	 n.a.	 2.291322e-01
9	 1	 213	 unflanked	 rf	 12	 0.216700	 0.000000	 unflanked_rf_freq_12_amplitude_0.2167_rep_5_l_K.png	 K	 l	 l	 n.a.	 2.307357e-01
9	 1	 214	 unflanked	 rf	 12	 0.268300	 0.000000	 unflanked_rf_freq_12_amplitude_0.2683_rep_2_l_H.png	 H	 l	 l	 n.a.	 1.844567e-01
9	 1	 215	 unflanked	 rf	 3	 0.320000	 0.000000	 unflanked_rf_freq_3_amplitude_0.32_rep_4_r_N.png	 N	 r	 r	 n.a.	 1.986063e-01
9	 1	 216	 unflanked	 rf	 12	 0.061700	 0.000000	 unflanked_rf_freq_12_amplitude_0.0617_rep_3_b_H.png	 H	 b	 l	 n.a.	 2.971914e-01
9	 1	 217	 unflanked	 rf	 8	 0.165000	 0.000000	 unflanked_rf_freq_8_amplitude_0.165_rep_7_b_D.png	 D	 b	 b	 n.a.	 2.742840e-01
9	 1	 218	 unflanked	 rf	 2	 0.061700	 0.000000	 unflanked_rf_freq_2_amplitude_0.0617_rep_1_r_N.png	 N	 r	 r	 n.a.	 5.021791e-01
9	 1	 219	 unflanked	 rf	 4	 0.320000	 0.000000	 unflanked_rf_freq_4_amplitude_0.32_rep_4_l_H.png	 H	 l	 l	 n.a.	 2.013060e-01
9	 1	 220	 unflanked	 rf	 2	 0.010000	 0.000000	 unflanked_rf_freq_2_amplitude_0.01_rep_1_l_N.png	 N	 l	 t	 n.a.	 2.633587e-01
9	 1	 221	 unflanked	 rf	 3	 0.268300	 0.000000	 unflanked_rf_freq_3_amplitude_0.2683_rep_4_b_N.png	 N	 b	 b	 n.a.	 3.131209e-01
9	 1	 222	 unflanked	 rf	 8	 0.010000	 0.000000	 unflanked_rf_freq_8_amplitude_0.01_rep_8_b_D.png	 D	 b	 t	 n.a.	 2.532453e-01
9	 1	 223	 unflanked	 rf	 4	 0.010000	 0.000000	 unflanked_rf_freq_4_amplitude_0.01_rep_3_t_D.png	 D	 t	 b	 n.a.	 7.037696e-01
9	 1	 224	 unflanked	 rf	 3	 0.061700	 0.000000	 unflanked_rf_freq_3_amplitude_0.0617_rep_5_b_H.png	 H	 b	 b	 n.a.	 4.393312e-01
9	 1	 225	 unflanked	 rf	 4	 0.216700	 0.000000	 unflanked_rf_freq_4_amplitude_0.2167_rep_8_t_H.png	 H	 t	 t	 n.a.	 3.545529e-01
9	 1	 226	 unflanked	 rf	 12	 0.165000	 0.000000	 unflanked_rf_freq_12_amplitude_0.165_rep_0_b_N.png	 N	 b	 b	 n.a.	 2.647733e-01
9	 1	 227	 unflanked	 rf	 12	 0.113300	 0.000000	 unflanked_rf_freq_12_amplitude_0.1133_rep_0_l_K.png	 K	 l	 l	 n.a.	 3.034123e-01
9	 1	 228	 unflanked	 rf	 3	 0.113300	 0.000000	 unflanked_rf_freq_3_amplitude_0.1133_rep_6_t_D.png	 D	 t	 t	 n.a.	 5.370287e-01
9	 1	 229	 unflanked	 rf	 2	 0.010000	 0.000000	 unflanked_rf_freq_2_amplitude_0.01_rep_9_t_N.png	 N	 t	 t	 n.a.	 7.550236e-01
9	 1	 230	 unflanked	 rf	 2	 0.268300	 0.000000	 unflanked_rf_freq_2_amplitude_0.2683_rep_9_t_H.png	 H	 t	 t	 n.a.	 3.175735e-01
9	 1	 231	 unflanked	 rf	 12	 0.113300	 0.000000	 unflanked_rf_freq_12_amplitude_0.1133_rep_9_l_K.png	 K	 l	 l	 n.a.	 3.641268e-01
9	 1	 232	 unflanked	 rf	 3	 0.268300	 0.000000	 unflanked_rf_freq_3_amplitude_0.2683_rep_0_r_D.png	 D	 r	 l	 n.a.	 5.838090e-01
9	 1	 233	 unflanked	 rf	 12	 0.216700	 0.000000	 unflanked_rf_freq_12_amplitude_0.2167_rep_7_l_K.png	 K	 l	 l	 n.a.	 2.605380e-01
9	 1	 234	 unflanked	 rf	 8	 0.268300	 0.000000	 unflanked_rf_freq_8_amplitude_0.2683_rep_5_b_N.png	 N	 b	 b	 n.a.	 3.128496e-01
9	 1	 235	 unflanked	 rf	 5	 0.216700	 0.000000	 unflanked_rf_freq_5_amplitude_0.2167_rep_3_b_N.png	 N	 b	 b	 n.a.	 2.767105e-01
9	 1	 236	 unflanked	 rf	 4	 0.268300	 0.000000	 unflanked_rf_freq_4_amplitude_0.2683_rep_2_l_N.png	 N	 l	 l	 n.a.	 2.995318e-01
9	 1	 237	 unflanked	 rf	 8	 0.320000	 0.000000	 unflanked_rf_freq_8_amplitude_0.32_rep_0_l_N.png	 N	 l	 l	 n.a.	 3.642985e-01
9	 1	 238	 unflanked	 rf	 2	 0.061700	 0.000000	 unflanked_rf_freq_2_amplitude_0.0617_rep_2_r_D.png	 D	 r	 b	 n.a.	 5.285726e-01
9	 1	 239	 unflanked	 rf	 2	 0.113300	 0.000000	 unflanked_rf_freq_2_amplitude_0.1133_rep_2_r_D.png	 D	 r	 b	 n.a.	 1.006807e+00
9	 1	 240	 unflanked	 rf	 8	 0.061700	 0.000000	 unflanked_rf_freq_8_amplitude_0.0617_rep_6_b_D.png	 D	 b	 b	 n.a.	 1.350480e+00
9	 1	 241	 unflanked	 rf	 4	 0.113300	 0.000000	 unflanked_rf_freq_4_amplitude_0.1133_rep_9_l_D.png	 D	 l	 l	 n.a.	 5.697073e-01
9	 1	 242	 unflanked	 rf	 3	 0.216700	 0.000000	 unflanked_rf_freq_3_amplitude_0.2167_rep_8_l_K.png	 K	 l	 l	 n.a.	 4.224567e-01
9	 1	 243	 unflanked	 rf	 5	 0.165000	 0.000000	 unflanked_rf_freq_5_amplitude_0.165_rep_1_b_N.png	 N	 b	 b	 n.a.	 3.995673e-01
9	 1	 244	 unflanked	 rf	 3	 0.010000	 0.000000	 unflanked_rf_freq_3_amplitude_0.01_rep_1_r_N.png	 N	 r	 b	 n.a.	 4.865439e-01
9	 1	 245	 unflanked	 rf	 4	 0.268300	 0.000000	 unflanked_rf_freq_4_amplitude_0.2683_rep_3_r_D.png	 D	 r	 r	 n.a.	 3.454410e-01
9	 1	 246	 unflanked	 rf	 3	 0.010000	 0.000000	 unflanked_rf_freq_3_amplitude_0.01_rep_7_b_K.png	 K	 b	 r	 n.a.	 9.541324e-01
9	 1	 247	 unflanked	 rf	 2	 0.216700	 0.000000	 unflanked_rf_freq_2_amplitude_0.2167_rep_8_t_D.png	 D	 t	 t	 n.a.	 8.178649e-01
9	 1	 248	 unflanked	 rf	 12	 0.216700	 0.000000	 unflanked_rf_freq_12_amplitude_0.2167_rep_8_b_N.png	 N	 b	 b	 n.a.	 5.475612e-01
9	 1	 249	 unflanked	 rf	 12	 0.165000	 0.000000	 unflanked_rf_freq_12_amplitude_0.165_rep_6_b_K.png	 K	 b	 b	 n.a.	 4.023358e-01
9	 1	 250	 unflanked	 rf	 8	 0.216700	 0.000000	 unflanked_rf_freq_8_amplitude_0.2167_rep_4_l_K.png	 K	 l	 l	 n.a.	 3.613850e-01
9	 1	 251	 unflanked	 rf	 5	 0.216700	 0.000000	 unflanked_rf_freq_5_amplitude_0.2167_rep_5_t_N.png	 N	 t	 t	 n.a.	 3.390875e-01
9	 1	 252	 unflanked	 rf	 2	 0.320000	 0.000000	 unflanked_rf_freq_2_amplitude_0.32_rep_6_l_H.png	 H	 l	 l	 n.a.	 3.084365e-01
9	 1	 253	 unflanked	 rf	 2	 0.061700	 0.000000	 unflanked_rf_freq_2_amplitude_0.0617_rep_4_r_K.png	 K	 r	 r	 n.a.	 2.314805e-01
9	 1	 254	 unflanked	 rf	 5	 0.320000	 0.000000	 unflanked_rf_freq_5_amplitude_0.32_rep_6_r_H.png	 H	 r	 r	 n.a.	 2.551007e-01
9	 1	 255	 unflanked	 rf	 4	 0.165000	 0.000000	 unflanked_rf_freq_4_amplitude_0.165_rep_5_b_H.png	 H	 b	 l	 n.a.	 7.569422e-01
9	 1	 256	 unflanked	 rf	 8	 0.320000	 0.000000	 unflanked_rf_freq_8_amplitude_0.32_rep_2_b_D.png	 D	 b	 b	 n.a.	 3.298946e-01
9	 1	 257	 unflanked	 rf	 5	 0.010000	 0.000000	 unflanked_rf_freq_5_amplitude_0.01_rep_2_b_K.png	 K	 b	 b	 n.a.	 1.198210e+00
9	 1	 258	 unflanked	 rf	 8	 0.010000	 0.000000	 unflanked_rf_freq_8_amplitude_0.01_rep_6_t_H.png	 H	 t	 b	 n.a.	 1.181594e+00
9	 1	 259	 unflanked	 rf	 3	 0.113300	 0.000000	 unflanked_rf_freq_3_amplitude_0.1133_rep_2_r_H.png	 H	 r	 r	 n.a.	 3.162196e-01
9	 1	 260	 unflanked	 rf	 8	 0.010000	 0.000000	 unflanked_rf_freq_8_amplitude_0.01_rep_7_t_D.png	 D	 t	 b	 n.a.	 7.265539e-01
9	 1	 261	 unflanked	 rf	 2	 0.061700	 0.000000	 unflanked_rf_freq_2_amplitude_0.0617_rep_8_t_K.png	 K	 t	 t	 n.a.	 3.447823e-01
9	 1	 262	 unflanked	 rf	 8	 0.165000	 0.000000	 unflanked_rf_freq_8_amplitude_0.165_rep_5_l_N.png	 N	 l	 l	 n.a.	 5.332429e-01
9	 1	 263	 unflanked	 rf	 4	 0.216700	 0.000000	 unflanked_rf_freq_4_amplitude_0.2167_rep_6_b_D.png	 D	 b	 b	 n.a.	 3.849964e-01
9	 1	 264	 unflanked	 rf	 8	 0.061700	 0.000000	 unflanked_rf_freq_8_amplitude_0.0617_rep_7_l_D.png	 D	 l	 l	 n.a.	 2.658488e-01
9	 1	 265	 unflanked	 rf	 3	 0.320000	 0.000000	 unflanked_rf_freq_3_amplitude_0.32_rep_5_b_H.png	 H	 b	 b	 n.a.	 2.285263e-01
9	 1	 266	 unflanked	 rf	 3	 0.165000	 0.000000	 unflanked_rf_freq_3_amplitude_0.165_rep_9_l_N.png	 N	 l	 l	 n.a.	 2.691652e-01
9	 1	 267	 unflanked	 rf	 4	 0.216700	 0.000000	 unflanked_rf_freq_4_amplitude_0.2167_rep_0_b_N.png	 N	 b	 b	 n.a.	 2.497361e-01
9	 1	 268	 unflanked	 rf	 4	 0.010000	 0.000000	 unflanked_rf_freq_4_amplitude_0.01_rep_1_r_D.png	 D	 r	 l	 n.a.	 9.031912e-01
9	 1	 269	 unflanked	 rf	 12	 0.165000	 0.000000	 unflanked_rf_freq_12_amplitude_0.165_rep_3_r_H.png	 H	 r	 r	 n.a.	 2.284221e-01
9	 1	 270	 unflanked	 rf	 8	 0.216700	 0.000000	 unflanked_rf_freq_8_amplitude_0.2167_rep_3_l_D.png	 D	 l	 l	 n.a.	 2.223861e-01
9	 1	 271	 unflanked	 rf	 3	 0.061700	 0.000000	 unflanked_rf_freq_3_amplitude_0.0617_rep_6_t_D.png	 D	 t	 b	 n.a.	 6.791348e-01
9	 1	 272	 unflanked	 rf	 2	 0.216700	 0.000000	 unflanked_rf_freq_2_amplitude_0.2167_rep_0_b_N.png	 N	 b	 b	 n.a.	 4.838136e-01
9	 1	 273	 unflanked	 rf	 2	 0.113300	 0.000000	 unflanked_rf_freq_2_amplitude_0.1133_rep_1_b_D.png	 D	 b	 t	 n.a.	 3.341567e-01
9	 1	 274	 unflanked	 rf	 2	 0.216700	 0.000000	 unflanked_rf_freq_2_amplitude_0.2167_rep_6_t_H.png	 H	 t	 t	 n.a.	 4.264472e-01
9	 1	 275	 unflanked	 rf	 4	 0.061700	 0.000000	 unflanked_rf_freq_4_amplitude_0.0617_rep_9_b_D.png	 D	 b	 b	 n.a.	 1.004587e+00
9	 1	 276	 unflanked	 rf	 5	 0.010000	 0.000000	 unflanked_rf_freq_5_amplitude_0.01_rep_8_r_K.png	 K	 r	 r	 n.a.	 1.235670e+00
9	 1	 277	 unflanked	 rf	 2	 0.320000	 0.000000	 unflanked_rf_freq_2_amplitude_0.32_rep_9_b_K.png	 K	 b	 b	 n.a.	 5.777095e-01
9	 1	 278	 unflanked	 rf	 5	 0.216700	 0.000000	 unflanked_rf_freq_5_amplitude_0.2167_rep_0_r_H.png	 H	 r	 r	 n.a.	 4.003362e-01
9	 1	 279	 unflanked	 rf	 5	 0.061700	 0.000000	 unflanked_rf_freq_5_amplitude_0.0617_rep_1_b_H.png	 H	 b	 r	 n.a.	 5.324888e-01
9	 1	 280	 unflanked	 rf	 4	 0.165000	 0.000000	 unflanked_rf_freq_4_amplitude_0.165_rep_8_l_K.png	 K	 l	 l	 n.a.	 2.951800e-01
9	 1	 281	 unflanked	 rf	 3	 0.061700	 0.000000	 unflanked_rf_freq_3_amplitude_0.0617_rep_8_t_D.png	 D	 t	 l	 n.a.	 8.106768e-01
9	 1	 282	 unflanked	 rf	 2	 0.113300	 0.000000	 unflanked_rf_freq_2_amplitude_0.1133_rep_9_t_D.png	 D	 t	 b	 n.a.	 3.211468e-01
9	 1	 283	 unflanked	 rf	 8	 0.268300	 0.000000	 unflanked_rf_freq_8_amplitude_0.2683_rep_8_l_K.png	 K	 l	 l	 n.a.	 2.009271e-01
9	 1	 284	 unflanked	 rf	 12	 0.165000	 0.000000	 unflanked_rf_freq_12_amplitude_0.165_rep_9_l_K.png	 K	 l	 l	 n.a.	 1.817230e-01
9	 1	 285	 unflanked	 rf	 3	 0.268300	 0.000000	 unflanked_rf_freq_3_amplitude_0.2683_rep_7_r_K.png	 K	 r	 r	 n.a.	 2.393225e-01
9	 1	 286	 unflanked	 rf	 3	 0.320000	 0.000000	 unflanked_rf_freq_3_amplitude_0.32_rep_0_t_N.png	 N	 t	 t	 n.a.	 2.233130e-01
9	 1	 287	 unflanked	 rf	 2	 0.216700	 0.000000	 unflanked_rf_freq_2_amplitude_0.2167_rep_4_l_N.png	 N	 l	 t	 n.a.	 1.720126e-01
9	 1	 288	 unflanked	 rf	 4	 0.268300	 0.000000	 unflanked_rf_freq_4_amplitude_0.2683_rep_4_l_N.png	 N	 l	 l	 n.a.	 3.324053e-01
9	 1	 289	 unflanked	 rf	 2	 0.268300	 0.000000	 unflanked_rf_freq_2_amplitude_0.2683_rep_2_t_H.png	 H	 t	 t	 n.a.	 2.551057e-01
9	 1	 290	 unflanked	 rf	 2	 0.061700	 0.000000	 unflanked_rf_freq_2_amplitude_0.0617_rep_7_t_H.png	 H	 t	 t	 n.a.	 2.405942e-01
9	 1	 291	 unflanked	 rf	 3	 0.165000	 0.000000	 unflanked_rf_freq_3_amplitude_0.165_rep_8_t_H.png	 H	 t	 t	 n.a.	 3.004643e-01
9	 1	 292	 unflanked	 rf	 3	 0.010000	 0.000000	 unflanked_rf_freq_3_amplitude_0.01_rep_4_b_K.png	 K	 b	 b	 n.a.	 3.101041e-01
9	 1	 293	 unflanked	 rf	 8	 0.061700	 0.000000	 unflanked_rf_freq_8_amplitude_0.0617_rep_0_b_H.png	 H	 b	 t	 n.a.	 2.266358e-01
9	 1	 294	 unflanked	 rf	 4	 0.010000	 0.000000	 unflanked_rf_freq_4_amplitude_0.01_rep_7_r_K.png	 K	 r	 r	 n.a.	 4.686655e-01
9	 1	 295	 unflanked	 rf	 5	 0.061700	 0.000000	 unflanked_rf_freq_5_amplitude_0.0617_rep_6_r_D.png	 D	 r	 b	 n.a.	 7.067214e-01
9	 1	 296	 unflanked	 rf	 12	 0.268300	 0.000000	 unflanked_rf_freq_12_amplitude_0.2683_rep_1_b_N.png	 N	 b	 b	 n.a.	 2.785912e-01
9	 1	 297	 unflanked	 rf	 8	 0.113300	 0.000000	 unflanked_rf_freq_8_amplitude_0.1133_rep_4_b_N.png	 N	 b	 t	 n.a.	 3.381840e-01
9	 1	 298	 unflanked	 rf	 8	 0.010000	 0.000000	 unflanked_rf_freq_8_amplitude_0.01_rep_2_r_N.png	 N	 r	 b	 n.a.	 8.555372e-01
9	 1	 299	 unflanked	 rf	 3	 0.165000	 0.000000	 unflanked_rf_freq_3_amplitude_0.165_rep_2_l_D.png	 D	 l	 r	 n.a.	 6.576054e-01
9	 1	 300	 unflanked	 rf	 4	 0.061700	 0.000000	 unflanked_rf_freq_4_amplitude_0.0617_rep_5_l_N.png	 N	 l	 l	 n.a.	 9.068978e-01
9	 1	 301	 unflanked	 rf	 8	 0.268300	 0.000000	 unflanked_rf_freq_8_amplitude_0.2683_rep_7_r_H.png	 H	 r	 r	 n.a.	 4.588102e-01
9	 1	 302	 unflanked	 rf	 2	 0.010000	 0.000000	 unflanked_rf_freq_2_amplitude_0.01_rep_8_b_H.png	 H	 b	 t	 n.a.	 5.558111e-01
9	 1	 303	 unflanked	 rf	 3	 0.268300	 0.000000	 unflanked_rf_freq_3_amplitude_0.2683_rep_3_t_H.png	 H	 t	 t	 n.a.	 2.657836e-01
9	 1	 304	 unflanked	 rf	 5	 0.320000	 0.000000	 unflanked_rf_freq_5_amplitude_0.32_rep_2_l_H.png	 H	 l	 l	 n.a.	 2.731153e-01
9	 1	 305	 unflanked	 rf	 5	 0.010000	 0.000000	 unflanked_rf_freq_5_amplitude_0.01_rep_4_r_K.png	 K	 r	 r	 n.a.	 2.806098e-01
9	 1	 306	 unflanked	 rf	 4	 0.061700	 0.000000	 unflanked_rf_freq_4_amplitude_0.0617_rep_8_r_N.png	 N	 r	 b	 n.a.	 9.298729e-01
9	 1	 307	 unflanked	 rf	 12	 0.061700	 0.000000	 unflanked_rf_freq_12_amplitude_0.0617_rep_1_t_N.png	 N	 t	 r	 n.a.	 5.894375e-01
9	 1	 308	 unflanked	 rf	 4	 0.268300	 0.000000	 unflanked_rf_freq_4_amplitude_0.2683_rep_9_t_N.png	 N	 t	 t	 n.a.	 2.939275e-01
9	 1	 309	 unflanked	 rf	 12	 0.061700	 0.000000	 unflanked_rf_freq_12_amplitude_0.0617_rep_8_l_K.png	 K	 l	 l	 n.a.	 3.894793e-01
9	 1	 310	 unflanked	 rf	 2	 0.320000	 0.000000	 unflanked_rf_freq_2_amplitude_0.32_rep_1_r_N.png	 N	 r	 r	 n.a.	 2.614037e-01
9	 1	 311	 unflanked	 rf	 3	 0.113300	 0.000000	 unflanked_rf_freq_3_amplitude_0.1133_rep_0_t_N.png	 N	 t	 r	 n.a.	 5.596492e-01
9	 1	 312	 unflanked	 rf	 12	 0.061700	 0.000000	 unflanked_rf_freq_12_amplitude_0.0617_rep_0_r_N.png	 N	 r	 r	 n.a.	 3.100458e-01
9	 1	 313	 unflanked	 rf	 4	 0.320000	 0.000000	 unflanked_rf_freq_4_amplitude_0.32_rep_2_l_H.png	 H	 l	 l	 n.a.	 2.808118e-01
9	 1	 314	 unflanked	 rf	 3	 0.216700	 0.000000	 unflanked_rf_freq_3_amplitude_0.2167_rep_0_r_D.png	 D	 r	 r	 n.a.	 4.513678e-01
9	 1	 315	 unflanked	 rf	 4	 0.010000	 0.000000	 unflanked_rf_freq_4_amplitude_0.01_rep_9_t_K.png	 K	 t	 r	 n.a.	 9.562840e-01
9	 1	 316	 unflanked	 rf	 5	 0.165000	 0.000000	 unflanked_rf_freq_5_amplitude_0.165_rep_9_t_H.png	 H	 t	 t	 n.a.	 5.014324e-01
9	 1	 317	 unflanked	 rf	 8	 0.216700	 0.000000	 unflanked_rf_freq_8_amplitude_0.2167_rep_5_t_N.png	 N	 t	 t	 n.a.	 3.203662e-01
9	 1	 318	 unflanked	 rf	 5	 0.010000	 0.000000	 unflanked_rf_freq_5_amplitude_0.01_rep_0_r_N.png	 N	 r	 l	 n.a.	 7.011454e-01
9	 1	 319	 unflanked	 rf	 5	 0.268300	 0.000000	 unflanked_rf_freq_5_amplitude_0.2683_rep_2_t_D.png	 D	 t	 t	 n.a.	 2.266210e-01
9	 1	 320	 unflanked	 rf	 4	 0.320000	 0.000000	 unflanked_rf_freq_4_amplitude_0.32_rep_7_r_H.png	 H	 r	 r	 n.a.	 2.647882e-01
9	 1	 321	 unflanked	 rf	 5	 0.061700	 0.000000	 unflanked_rf_freq_5_amplitude_0.0617_rep_8_t_N.png	 N	 t	 r	 n.a.	 8.933504e-01
9	 1	 322	 unflanked	 rf	 12	 0.320000	 0.000000	 unflanked_rf_freq_12_amplitude_0.32_rep_8_t_K.png	 K	 t	 t	 n.a.	 2.335676e-01
9	 1	 323	 unflanked	 rf	 3	 0.165000	 0.000000	 unflanked_rf_freq_3_amplitude_0.165_rep_6_b_N.png	 N	 b	 b	 n.a.	 3.551741e-01
9	 1	 324	 unflanked	 rf	 12	 0.165000	 0.000000	 unflanked_rf_freq_12_amplitude_0.165_rep_1_l_H.png	 H	 l	 l	 n.a.	 2.241136e-01
9	 1	 325	 unflanked	 rf	 12	 0.320000	 0.000000	 unflanked_rf_freq_12_amplitude_0.32_rep_2_t_N.png	 N	 t	 t	 n.a.	 2.369196e-01
9	 1	 326	 unflanked	 rf	 8	 0.165000	 0.000000	 unflanked_rf_freq_8_amplitude_0.165_rep_6_b_H.png	 H	 b	 b	 n.a.	 2.779762e-01
9	 1	 327	 unflanked	 rf	 8	 0.113300	 0.000000	 unflanked_rf_freq_8_amplitude_0.1133_rep_1_t_H.png	 H	 t	 t	 n.a.	 2.855995e-01
9	 1	 328	 unflanked	 rf	 3	 0.010000	 0.000000	 unflanked_rf_freq_3_amplitude_0.01_rep_3_t_N.png	 N	 t	 b	 n.a.	 2.851363e-01
9	 1	 329	 unflanked	 rf	 3	 0.268300	 0.000000	 unflanked_rf_freq_3_amplitude_0.2683_rep_5_b_D.png	 D	 b	 b	 n.a.	 2.813261e-01
9	 1	 330	 unflanked	 rf	 12	 0.061700	 0.000000	 unflanked_rf_freq_12_amplitude_0.0617_rep_4_t_K.png	 K	 t	 t	 n.a.	 6.235253e-01
9	 1	 331	 unflanked	 rf	 3	 0.061700	 0.000000	 unflanked_rf_freq_3_amplitude_0.0617_rep_2_r_N.png	 N	 r	 b	 n.a.	 5.140337e-01
9	 1	 332	 unflanked	 rf	 8	 0.113300	 0.000000	 unflanked_rf_freq_8_amplitude_0.1133_rep_0_r_H.png	 H	 r	 r	 n.a.	 2.418118e-01
9	 1	 333	 unflanked	 rf	 8	 0.061700	 0.000000	 unflanked_rf_freq_8_amplitude_0.0617_rep_9_r_N.png	 N	 r	 l	 n.a.	 1.077295e+00
9	 1	 334	 unflanked	 rf	 2	 0.320000	 0.000000	 unflanked_rf_freq_2_amplitude_0.32_rep_0_l_D.png	 D	 l	 l	 n.a.	 3.650548e-01
9	 1	 335	 unflanked	 rf	 3	 0.268300	 0.000000	 unflanked_rf_freq_3_amplitude_0.2683_rep_9_l_H.png	 H	 l	 l	 n.a.	 4.134683e-01
9	 1	 336	 unflanked	 rf	 8	 0.268300	 0.000000	 unflanked_rf_freq_8_amplitude_0.2683_rep_3_b_N.png	 N	 b	 b	 n.a.	 3.446220e-01
9	 1	 337	 unflanked	 rf	 3	 0.216700	 0.000000	 unflanked_rf_freq_3_amplitude_0.2167_rep_5_b_D.png	 D	 b	 b	 n.a.	 4.364978e-01
9	 1	 338	 unflanked	 rf	 8	 0.320000	 0.000000	 unflanked_rf_freq_8_amplitude_0.32_rep_3_b_K.png	 K	 b	 b	 n.a.	 2.918380e-01
9	 1	 339	 unflanked	 rf	 8	 0.165000	 0.000000	 unflanked_rf_freq_8_amplitude_0.165_rep_1_b_N.png	 N	 b	 b	 n.a.	 2.372291e-01
9	 1	 340	 unflanked	 rf	 4	 0.061700	 0.000000	 unflanked_rf_freq_4_amplitude_0.0617_rep_1_l_H.png	 H	 l	 b	 n.a.	 2.726725e-01
9	 1	 341	 unflanked	 rf	 2	 0.268300	 0.000000	 unflanked_rf_freq_2_amplitude_0.2683_rep_7_t_N.png	 N	 t	 b	 n.a.	 6.478150e-01
9	 1	 342	 unflanked	 rf	 3	 0.113300	 0.000000	 unflanked_rf_freq_3_amplitude_0.1133_rep_9_l_K.png	 K	 l	 l	 n.a.	 1.005939e+00
9	 1	 343	 unflanked	 rf	 2	 0.165000	 0.000000	 unflanked_rf_freq_2_amplitude_0.165_rep_9_l_K.png	 K	 l	 l	 n.a.	 3.808549e-01
9	 1	 344	 unflanked	 rf	 12	 0.268300	 0.000000	 unflanked_rf_freq_12_amplitude_0.2683_rep_8_r_D.png	 D	 r	 r	 n.a.	 3.495179e-01
9	 1	 345	 unflanked	 rf	 12	 0.113300	 0.000000	 unflanked_rf_freq_12_amplitude_0.1133_rep_8_r_H.png	 H	 r	 r	 n.a.	 2.992513e-01
9	 1	 346	 unflanked	 rf	 3	 0.113300	 0.000000	 unflanked_rf_freq_3_amplitude_0.1133_rep_1_t_N.png	 N	 t	 r	 n.a.	 5.026255e-01
9	 1	 347	 unflanked	 rf	 12	 0.010000	 0.000000	 unflanked_rf_freq_12_amplitude_0.01_rep_6_r_K.png	 K	 r	 r	 n.a.	 4.706705e-01
9	 1	 348	 unflanked	 rf	 5	 0.061700	 0.000000	 unflanked_rf_freq_5_amplitude_0.0617_rep_2_t_D.png	 D	 t	 r	 n.a.	 5.460968e-01
9	 1	 349	 unflanked	 rf	 2	 0.061700	 0.000000	 unflanked_rf_freq_2_amplitude_0.0617_rep_0_r_H.png	 H	 r	 r	 n.a.	 4.991006e-01
9	 1	 350	 unflanked	 rf	 12	 0.010000	 0.000000	 unflanked_rf_freq_12_amplitude_0.01_rep_5_t_H.png	 H	 t	 r	 n.a.	 7.013926e-01
9	 1	 351	 unflanked	 rf	 2	 0.010000	 0.000000	 unflanked_rf_freq_2_amplitude_0.01_rep_7_l_H.png	 H	 l	 b	 n.a.	 5.639598e-01
9	 1	 352	 unflanked	 rf	 2	 0.165000	 0.000000	 unflanked_rf_freq_2_amplitude_0.165_rep_8_r_K.png	 K	 r	 t	 n.a.	 6.205420e-01
9	 1	 353	 unflanked	 rf	 5	 0.268300	 0.000000	 unflanked_rf_freq_5_amplitude_0.2683_rep_8_b_N.png	 N	 b	 b	 n.a.	 2.578104e-01
9	 1	 354	 unflanked	 rf	 12	 0.061700	 0.000000	 unflanked_rf_freq_12_amplitude_0.0617_rep_6_b_N.png	 N	 b	 t	 n.a.	 2.814057e-01
9	 1	 355	 unflanked	 rf	 2	 0.268300	 0.000000	 unflanked_rf_freq_2_amplitude_0.2683_rep_0_r_H.png	 H	 r	 r	 n.a.	 1.999200e-01
9	 1	 356	 unflanked	 rf	 8	 0.216700	 0.000000	 unflanked_rf_freq_8_amplitude_0.2167_rep_9_r_N.png	 N	 r	 r	 n.a.	 2.141615e-01
9	 1	 357	 unflanked	 rf	 3	 0.320000	 0.000000	 unflanked_rf_freq_3_amplitude_0.32_rep_8_r_K.png	 K	 r	 r	 n.a.	 2.177272e-01
9	 1	 358	 unflanked	 rf	 8	 0.165000	 0.000000	 unflanked_rf_freq_8_amplitude_0.165_rep_0_r_N.png	 N	 r	 r	 n.a.	 1.824655e-01
9	 1	 359	 unflanked	 rf	 5	 0.113300	 0.000000	 unflanked_rf_freq_5_amplitude_0.1133_rep_8_r_K.png	 K	 r	 r	 n.a.	 1.920087e-01
9	 1	 360	 unflanked	 rf	 5	 0.165000	 0.000000	 unflanked_rf_freq_5_amplitude_0.165_rep_6_t_D.png	 D	 t	 t	 n.a.	 2.468613e-01
9	 1	 361	 unflanked	 rf	 4	 0.268300	 0.000000	 unflanked_rf_freq_4_amplitude_0.2683_rep_0_r_K.png	 K	 r	 r	 n.a.	 2.066692e-01
9	 1	 362	 unflanked	 rf	 2	 0.165000	 0.000000	 unflanked_rf_freq_2_amplitude_0.165_rep_6_l_K.png	 K	 l	 t	 n.a.	 1.851147e-01
9	 1	 363	 unflanked	 rf	 12	 0.165000	 0.000000	 unflanked_rf_freq_12_amplitude_0.165_rep_7_b_K.png	 K	 b	 b	 n.a.	 2.721374e-01
9	 1	 364	 unflanked	 rf	 8	 0.010000	 0.000000	 unflanked_rf_freq_8_amplitude_0.01_rep_3_l_N.png	 N	 l	 b	 n.a.	 4.999040e-01
9	 1	 365	 unflanked	 rf	 8	 0.268300	 0.000000	 unflanked_rf_freq_8_amplitude_0.2683_rep_6_b_D.png	 D	 b	 b	 n.a.	 1.993794e-01
9	 1	 366	 unflanked	 rf	 8	 0.061700	 0.000000	 unflanked_rf_freq_8_amplitude_0.0617_rep_2_r_K.png	 K	 r	 r	 n.a.	 2.921918e-01
9	 1	 367	 unflanked	 rf	 4	 0.216700	 0.000000	 unflanked_rf_freq_4_amplitude_0.2167_rep_5_l_N.png	 N	 l	 l	 n.a.	 2.636480e-01
9	 1	 368	 unflanked	 rf	 3	 0.216700	 0.000000	 unflanked_rf_freq_3_amplitude_0.2167_rep_4_t_N.png	 N	 t	 t	 n.a.	 4.330978e-01
9	 1	 369	 unflanked	 rf	 5	 0.061700	 0.000000	 unflanked_rf_freq_5_amplitude_0.0617_rep_5_t_D.png	 D	 t	 t	 n.a.	 5.506432e-01
9	 1	 370	 unflanked	 rf	 3	 0.165000	 0.000000	 unflanked_rf_freq_3_amplitude_0.165_rep_1_b_H.png	 H	 b	 t	 n.a.	 2.315255e-01
9	 1	 371	 unflanked	 rf	 3	 0.061700	 0.000000	 unflanked_rf_freq_3_amplitude_0.0617_rep_1_t_K.png	 K	 t	 t	 n.a.	 2.643303e-01
9	 1	 372	 unflanked	 rf	 5	 0.268300	 0.000000	 unflanked_rf_freq_5_amplitude_0.2683_rep_6_l_D.png	 D	 l	 l	 n.a.	 7.289520e-01
9	 1	 373	 unflanked	 rf	 8	 0.320000	 0.000000	 unflanked_rf_freq_8_amplitude_0.32_rep_5_r_D.png	 D	 r	 r	 n.a.	 2.532758e-01
9	 1	 374	 unflanked	 rf	 12	 0.216700	 0.000000	 unflanked_rf_freq_12_amplitude_0.2167_rep_4_t_H.png	 H	 t	 t	 n.a.	 2.450477e-01
9	 1	 375	 unflanked	 rf	 4	 0.113300	 0.000000	 unflanked_rf_freq_4_amplitude_0.1133_rep_7_t_K.png	 K	 t	 t	 n.a.	 5.718960e-01
9	 1	 376	 unflanked	 rf	 5	 0.216700	 0.000000	 unflanked_rf_freq_5_amplitude_0.2167_rep_7_r_N.png	 N	 r	 r	 n.a.	 3.169405e-01
9	 1	 377	 unflanked	 rf	 5	 0.320000	 0.000000	 unflanked_rf_freq_5_amplitude_0.32_rep_9_t_D.png	 D	 t	 t	 n.a.	 2.552043e-01
9	 1	 378	 unflanked	 rf	 4	 0.165000	 0.000000	 unflanked_rf_freq_4_amplitude_0.165_rep_2_t_K.png	 K	 t	 t	 n.a.	 2.713980e-01
9	 1	 379	 unflanked	 rf	 12	 0.216700	 0.000000	 unflanked_rf_freq_12_amplitude_0.2167_rep_0_b_N.png	 N	 b	 b	 n.a.	 2.651189e-01
9	 1	 380	 unflanked	 rf	 2	 0.216700	 0.000000	 unflanked_rf_freq_2_amplitude_0.2167_rep_3_r_D.png	 D	 r	 l	 n.a.	 5.330187e-01
9	 1	 381	 unflanked	 rf	 2	 0.320000	 0.000000	 unflanked_rf_freq_2_amplitude_0.32_rep_8_t_K.png	 K	 t	 t	 n.a.	 2.896647e-01
9	 1	 382	 unflanked	 rf	 3	 0.320000	 0.000000	 unflanked_rf_freq_3_amplitude_0.32_rep_3_r_H.png	 H	 r	 l	 n.a.	 6.018595e-01
9	 1	 383	 unflanked	 rf	 3	 0.061700	 0.000000	 unflanked_rf_freq_3_amplitude_0.0617_rep_0_l_H.png	 H	 l	 r	 n.a.	 3.635588e-01
9	 1	 384	 unflanked	 rf	 12	 0.320000	 0.000000	 unflanked_rf_freq_12_amplitude_0.32_rep_4_t_N.png	 N	 t	 t	 n.a.	 2.239213e-01
9	 1	 385	 unflanked	 rf	 8	 0.113300	 0.000000	 unflanked_rf_freq_8_amplitude_0.1133_rep_8_t_H.png	 H	 t	 t	 n.a.	 3.969311e-01
9	 1	 386	 unflanked	 rf	 3	 0.061700	 0.000000	 unflanked_rf_freq_3_amplitude_0.0617_rep_7_b_K.png	 K	 b	 b	 n.a.	 4.886309e-01
9	 1	 387	 unflanked	 rf	 5	 0.216700	 0.000000	 unflanked_rf_freq_5_amplitude_0.2167_rep_6_r_H.png	 H	 r	 r	 n.a.	 3.220245e-01
9	 1	 388	 unflanked	 rf	 3	 0.113300	 0.000000	 unflanked_rf_freq_3_amplitude_0.1133_rep_4_l_D.png	 D	 l	 l	 n.a.	 4.470761e-01
9	 1	 389	 unflanked	 rf	 3	 0.061700	 0.000000	 unflanked_rf_freq_3_amplitude_0.0617_rep_3_b_N.png	 N	 b	 t	 n.a.	 4.328274e-01
9	 1	 390	 unflanked	 rf	 12	 0.010000	 0.000000	 unflanked_rf_freq_12_amplitude_0.01_rep_9_t_K.png	 K	 t	 t	 n.a.	 2.945975e-01
9	 1	 391	 unflanked	 rf	 3	 0.010000	 0.000000	 unflanked_rf_freq_3_amplitude_0.01_rep_2_r_H.png	 H	 r	 b	 n.a.	 9.027441e-01
9	 1	 392	 unflanked	 rf	 5	 0.113300	 0.000000	 unflanked_rf_freq_5_amplitude_0.1133_rep_7_l_D.png	 D	 l	 t	 n.a.	 2.490386e-01
9	 1	 393	 unflanked	 rf	 4	 0.320000	 0.000000	 unflanked_rf_freq_4_amplitude_0.32_rep_3_b_D.png	 D	 b	 b	 n.a.	 3.117911e-01
9	 1	 394	 unflanked	 rf	 4	 0.165000	 0.000000	 unflanked_rf_freq_4_amplitude_0.165_rep_9_t_N.png	 N	 t	 r	 n.a.	 5.073892e-01
9	 1	 395	 unflanked	 rf	 3	 0.320000	 0.000000	 unflanked_rf_freq_3_amplitude_0.32_rep_1_b_H.png	 H	 b	 b	 n.a.	 3.360172e-01
9	 1	 396	 unflanked	 rf	 8	 0.061700	 0.000000	 unflanked_rf_freq_8_amplitude_0.0617_rep_1_l_H.png	 H	 l	 l	 n.a.	 5.321383e-01
9	 1	 397	 unflanked	 rf	 12	 0.061700	 0.000000	 unflanked_rf_freq_12_amplitude_0.0617_rep_2_b_H.png	 H	 b	 l	 n.a.	 9.166797e-01
9	 1	 398	 unflanked	 rf	 12	 0.010000	 0.000000	 unflanked_rf_freq_12_amplitude_0.01_rep_1_r_D.png	 D	 r	 t	 n.a.	 9.768805e-01
9	 1	 399	 unflanked	 rf	 2	 0.165000	 0.000000	 unflanked_rf_freq_2_amplitude_0.165_rep_2_r_H.png	 H	 r	 r	 n.a.	 3.594107e-01
9	 1	 400	 unflanked	 rf	 5	 0.216700	 0.000000	 unflanked_rf_freq_5_amplitude_0.2167_rep_2_l_N.png	 N	 l	 l	 n.a.	 3.064114e-01
9	 1	 401	 unflanked	 rf	 4	 0.320000	 0.000000	 unflanked_rf_freq_4_amplitude_0.32_rep_1_t_H.png	 H	 t	 t	 n.a.	 3.340651e-01
9	 1	 402	 unflanked	 rf	 8	 0.320000	 0.000000	 unflanked_rf_freq_8_amplitude_0.32_rep_1_r_H.png	 H	 r	 r	 n.a.	 2.436618e-01
9	 1	 403	 unflanked	 rf	 5	 0.320000	 0.000000	 unflanked_rf_freq_5_amplitude_0.32_rep_8_r_N.png	 N	 r	 r	 n.a.	 2.926946e-01
9	 1	 404	 unflanked	 rf	 2	 0.165000	 0.000000	 unflanked_rf_freq_2_amplitude_0.165_rep_3_b_H.png	 H	 b	 b	 n.a.	 3.215460e-01
9	 1	 405	 unflanked	 rf	 5	 0.320000	 0.000000	 unflanked_rf_freq_5_amplitude_0.32_rep_5_r_K.png	 K	 r	 r	 n.a.	 2.307360e-01
9	 1	 406	 unflanked	 rf	 12	 0.061700	 0.000000	 unflanked_rf_freq_12_amplitude_0.0617_rep_9_b_K.png	 K	 b	 b	 n.a.	 2.474289e-01
9	 1	 407	 unflanked	 rf	 3	 0.216700	 0.000000	 unflanked_rf_freq_3_amplitude_0.2167_rep_1_r_H.png	 H	 r	 r	 n.a.	 2.493707e-01
9	 1	 408	 unflanked	 rf	 4	 0.113300	 0.000000	 unflanked_rf_freq_4_amplitude_0.1133_rep_2_b_H.png	 H	 b	 b	 n.a.	 5.417545e-01
9	 1	 409	 unflanked	 rf	 2	 0.216700	 0.000000	 unflanked_rf_freq_2_amplitude_0.2167_rep_9_b_D.png	 D	 b	 b	 n.a.	 3.543920e-01
9	 1	 410	 unflanked	 rf	 2	 0.010000	 0.000000	 unflanked_rf_freq_2_amplitude_0.01_rep_0_r_H.png	 H	 r	 t	 n.a.	 3.866204e-01
9	 1	 411	 unflanked	 rf	 8	 0.320000	 0.000000	 unflanked_rf_freq_8_amplitude_0.32_rep_4_l_D.png	 D	 l	 l	 n.a.	 2.911668e-01
9	 1	 412	 unflanked	 rf	 4	 0.061700	 0.000000	 unflanked_rf_freq_4_amplitude_0.0617_rep_4_b_H.png	 H	 b	 b	 n.a.	 8.486312e-01
9	 1	 413	 unflanked	 rf	 2	 0.268300	 0.000000	 unflanked_rf_freq_2_amplitude_0.2683_rep_4_t_D.png	 D	 t	 b	 n.a.	 3.681956e-01
9	 1	 414	 unflanked	 rf	 5	 0.165000	 0.000000	 unflanked_rf_freq_5_amplitude_0.165_rep_4_l_N.png	 N	 l	 l	 n.a.	 3.518360e-01
9	 1	 415	 unflanked	 rf	 8	 0.165000	 0.000000	 unflanked_rf_freq_8_amplitude_0.165_rep_9_b_D.png	 D	 b	 b	 n.a.	 3.654126e-01
9	 1	 416	 unflanked	 rf	 4	 0.010000	 0.000000	 unflanked_rf_freq_4_amplitude_0.01_rep_4_b_D.png	 D	 b	 r	 n.a.	 5.438840e-01
9	 1	 417	 unflanked	 rf	 2	 0.010000	 0.000000	 unflanked_rf_freq_2_amplitude_0.01_rep_2_r_D.png	 D	 r	 b	 n.a.	 2.353523e-01
9	 1	 418	 unflanked	 rf	 8	 0.113300	 0.000000	 unflanked_rf_freq_8_amplitude_0.1133_rep_5_l_H.png	 H	 l	 l	 n.a.	 3.955494e-01
9	 1	 419	 unflanked	 rf	 4	 0.320000	 0.000000	 unflanked_rf_freq_4_amplitude_0.32_rep_8_l_N.png	 N	 l	 l	 n.a.	 2.894542e-01
9	 1	 420	 unflanked	 rf	 4	 0.010000	 0.000000	 unflanked_rf_freq_4_amplitude_0.01_rep_2_l_K.png	 K	 l	 r	 n.a.	 1.190822e+00
