subject	 session	 trial	 flanked	 distortion	 freq	 amplitude	 spacing	 im_name	 targ_letter	 targ_pos	 response	 eyemovement	 RT
5	 6	 1	 flanked	 rf	 3	 0.010000	 2.000000	 flanked_rf_freq_3_amplitude_0.01_rep_4_r_D_2.0.png	 D	 r	 r	 n.a.	 6.208137e-01
5	 6	 2	 flanked	 rf	 2	 0.010000	 2.000000	 flanked_rf_freq_2_amplitude_0.01_rep_9_b_K_2.0.png	 K	 b	 r	 n.a.	 6.198791e-01
5	 6	 3	 flanked	 rf	 8	 0.216700	 2.000000	 flanked_rf_freq_8_amplitude_0.2167_rep_8_b_K_2.0.png	 K	 b	 b	 n.a.	 7.009179e-01
5	 6	 4	 flanked	 rf	 2	 0.010000	 2.000000	 flanked_rf_freq_2_amplitude_0.01_rep_7_r_K_2.0.png	 K	 r	 b	 n.a.	 6.456517e-01
5	 6	 5	 flanked	 rf	 2	 0.165000	 2.000000	 flanked_rf_freq_2_amplitude_0.165_rep_1_r_H_2.0.png	 H	 r	 t	 n.a.	 9.833096e-01
5	 6	 6	 flanked	 rf	 8	 0.268300	 2.000000	 flanked_rf_freq_8_amplitude_0.2683_rep_3_b_K_2.0.png	 K	 b	 b	 n.a.	 3.974411e-01
5	 6	 7	 flanked	 rf	 8	 0.216700	 2.000000	 flanked_rf_freq_8_amplitude_0.2167_rep_5_l_H_2.0.png	 H	 l	 l	 n.a.	 3.799982e-01
5	 6	 8	 flanked	 rf	 3	 0.113300	 2.000000	 flanked_rf_freq_3_amplitude_0.1133_rep_7_r_D_2.0.png	 D	 r	 r	 n.a.	 4.472537e-01
5	 6	 9	 flanked	 rf	 4	 0.007500	 2.000000	 flanked_rf_freq_4_amplitude_0.0075_rep_5_l_K_2.0.png	 K	 l	 r	 n.a.	 5.726001e-01
5	 6	 10	 flanked	 rf	 8	 0.010000	 2.000000	 flanked_rf_freq_8_amplitude_0.01_rep_4_r_H_2.0.png	 H	 r	 b	 n.a.	 5.044329e-01
5	 6	 11	 flanked	 rf	 12	 0.113300	 2.000000	 flanked_rf_freq_12_amplitude_0.1133_rep_1_b_N_2.0.png	 N	 b	 b	 n.a.	 5.116446e-01
5	 6	 12	 flanked	 rf	 3	 0.165000	 2.000000	 flanked_rf_freq_3_amplitude_0.165_rep_3_l_N_2.0.png	 N	 l	 l	 n.a.	 6.456773e-01
5	 6	 13	 flanked	 rf	 2	 0.113300	 2.000000	 flanked_rf_freq_2_amplitude_0.1133_rep_6_b_N_2.0.png	 N	 b	 r	 n.a.	 3.452566e-01
5	 6	 14	 flanked	 rf	 8	 0.216700	 2.000000	 flanked_rf_freq_8_amplitude_0.2167_rep_9_r_D_2.0.png	 D	 r	 r	 n.a.	 3.302823e-01
5	 6	 15	 flanked	 rf	 5	 0.010000	 2.000000	 flanked_rf_freq_5_amplitude_0.01_rep_5_r_D_2.0.png	 D	 r	 r	 n.a.	 6.658372e-01
5	 6	 16	 flanked	 rf	 2	 0.268300	 2.000000	 flanked_rf_freq_2_amplitude_0.2683_rep_2_b_N_2.0.png	 N	 b	 r	 n.a.	 4.583996e-01
5	 6	 17	 flanked	 rf	 5	 0.216700	 2.000000	 flanked_rf_freq_5_amplitude_0.2167_rep_1_t_H_2.0.png	 H	 t	 b	 n.a.	 4.805042e-01
5	 6	 18	 flanked	 rf	 12	 0.165000	 2.000000	 flanked_rf_freq_12_amplitude_0.165_rep_4_t_N_2.0.png	 N	 t	 t	 n.a.	 4.898010e-01
5	 6	 19	 flanked	 rf	 3	 0.007500	 2.000000	 flanked_rf_freq_3_amplitude_0.0075_rep_1_t_H_2.0.png	 H	 t	 r	 n.a.	 4.259444e-01
5	 6	 20	 flanked	 rf	 8	 0.268300	 2.000000	 flanked_rf_freq_8_amplitude_0.2683_rep_9_t_H_2.0.png	 H	 t	 t	 n.a.	 3.331572e-01
5	 6	 21	 flanked	 rf	 12	 0.007500	 2.000000	 flanked_rf_freq_12_amplitude_0.0075_rep_0_r_N_2.0.png	 N	 r	 r	 n.a.	 8.308661e-01
5	 6	 22	 flanked	 rf	 8	 0.007500	 2.000000	 flanked_rf_freq_8_amplitude_0.0075_rep_5_b_H_2.0.png	 H	 b	 r	 n.a.	 1.057890e+00
5	 6	 23	 flanked	 rf	 5	 0.010000	 2.000000	 flanked_rf_freq_5_amplitude_0.01_rep_6_t_H_2.0.png	 H	 t	 r	 n.a.	 7.013332e-01
5	 6	 24	 flanked	 rf	 3	 0.165000	 2.000000	 flanked_rf_freq_3_amplitude_0.165_rep_7_r_K_2.0.png	 K	 r	 r	 n.a.	 4.289925e-01
5	 6	 25	 flanked	 rf	 3	 0.216700	 2.000000	 flanked_rf_freq_3_amplitude_0.2167_rep_7_l_H_2.0.png	 H	 l	 l	 n.a.	 4.917878e-01
5	 6	 26	 flanked	 rf	 4	 0.165000	 2.000000	 flanked_rf_freq_4_amplitude_0.165_rep_0_t_N_2.0.png	 N	 t	 t	 n.a.	 6.116345e-01
5	 6	 27	 flanked	 rf	 4	 0.268300	 2.000000	 flanked_rf_freq_4_amplitude_0.2683_rep_6_l_N_2.0.png	 N	 l	 l	 n.a.	 3.603161e-01
5	 6	 28	 flanked	 rf	 4	 0.010000	 2.000000	 flanked_rf_freq_4_amplitude_0.01_rep_1_r_H_2.0.png	 H	 r	 t	 n.a.	 6.128881e-01
5	 6	 29	 flanked	 rf	 12	 0.268300	 2.000000	 flanked_rf_freq_12_amplitude_0.2683_rep_2_b_K_2.0.png	 K	 b	 b	 n.a.	 2.513026e-01
5	 6	 30	 flanked	 rf	 2	 0.113300	 2.000000	 flanked_rf_freq_2_amplitude_0.1133_rep_3_b_K_2.0.png	 K	 b	 t	 n.a.	 5.703480e-01
5	 6	 31	 flanked	 rf	 8	 0.216700	 2.000000	 flanked_rf_freq_8_amplitude_0.2167_rep_1_b_D_2.0.png	 D	 b	 r	 n.a.	 7.340687e-01
5	 6	 32	 flanked	 rf	 5	 0.165000	 2.000000	 flanked_rf_freq_5_amplitude_0.165_rep_5_t_D_2.0.png	 D	 t	 l	 n.a.	 6.598326e-01
5	 6	 33	 flanked	 rf	 2	 0.010000	 2.000000	 flanked_rf_freq_2_amplitude_0.01_rep_5_r_H_2.0.png	 H	 r	 t	 n.a.	 5.951087e-01
5	 6	 34	 flanked	 rf	 5	 0.061700	 2.000000	 flanked_rf_freq_5_amplitude_0.0617_rep_8_r_D_2.0.png	 D	 r	 t	 n.a.	 9.106587e-01
5	 6	 35	 flanked	 rf	 2	 0.007500	 2.000000	 flanked_rf_freq_2_amplitude_0.0075_rep_5_b_D_2.0.png	 D	 b	 r	 n.a.	 8.308808e-01
5	 6	 36	 flanked	 rf	 4	 0.268300	 2.000000	 flanked_rf_freq_4_amplitude_0.2683_rep_2_r_D_2.0.png	 D	 r	 r	 n.a.	 3.758738e-01
5	 6	 37	 flanked	 rf	 4	 0.113300	 2.000000	 flanked_rf_freq_4_amplitude_0.1133_rep_7_b_D_2.0.png	 D	 b	 r	 n.a.	 5.273285e-01
5	 6	 38	 flanked	 rf	 4	 0.061700	 2.000000	 flanked_rf_freq_4_amplitude_0.0617_rep_6_b_N_2.0.png	 N	 b	 t	 n.a.	 5.830475e-01
5	 6	 39	 flanked	 rf	 12	 0.007500	 2.000000	 flanked_rf_freq_12_amplitude_0.0075_rep_1_r_D_2.0.png	 D	 r	 t	 n.a.	 7.581024e-01
5	 6	 40	 flanked	 rf	 4	 0.007500	 2.000000	 flanked_rf_freq_4_amplitude_0.0075_rep_3_l_N_2.0.png	 N	 l	 r	 n.a.	 3.863191e-01
5	 6	 41	 flanked	 rf	 3	 0.113300	 2.000000	 flanked_rf_freq_3_amplitude_0.1133_rep_0_b_K_2.0.png	 K	 b	 b	 n.a.	 4.295595e-01
5	 6	 42	 flanked	 rf	 8	 0.216700	 2.000000	 flanked_rf_freq_8_amplitude_0.2167_rep_3_l_K_2.0.png	 K	 l	 l	 n.a.	 2.972859e-01
5	 6	 43	 flanked	 rf	 4	 0.216700	 2.000000	 flanked_rf_freq_4_amplitude_0.2167_rep_1_l_D_2.0.png	 D	 l	 l	 n.a.	 5.697967e-01
5	 6	 44	 flanked	 rf	 4	 0.216700	 2.000000	 flanked_rf_freq_4_amplitude_0.2167_rep_0_r_K_2.0.png	 K	 r	 r	 n.a.	 5.212642e-01
5	 6	 45	 flanked	 rf	 12	 0.113300	 2.000000	 flanked_rf_freq_12_amplitude_0.1133_rep_3_b_H_2.0.png	 H	 b	 b	 n.a.	 4.567363e-01
5	 6	 46	 flanked	 rf	 8	 0.007500	 2.000000	 flanked_rf_freq_8_amplitude_0.0075_rep_4_r_H_2.0.png	 H	 r	 l	 n.a.	 5.287866e-01
5	 6	 47	 flanked	 rf	 3	 0.216700	 2.000000	 flanked_rf_freq_3_amplitude_0.2167_rep_6_b_D_2.0.png	 D	 b	 r	 n.a.	 4.660618e-01
5	 6	 48	 flanked	 rf	 2	 0.010000	 2.000000	 flanked_rf_freq_2_amplitude_0.01_rep_0_t_D_2.0.png	 D	 t	 r	 n.a.	 9.173440e-01
5	 6	 49	 flanked	 rf	 3	 0.061700	 2.000000	 flanked_rf_freq_3_amplitude_0.0617_rep_7_l_K_2.0.png	 K	 l	 r	 n.a.	 6.053216e-01
5	 6	 50	 flanked	 rf	 12	 0.165000	 2.000000	 flanked_rf_freq_12_amplitude_0.165_rep_1_r_H_2.0.png	 H	 r	 r	 n.a.	 3.136430e-01
5	 6	 51	 flanked	 rf	 12	 0.061700	 2.000000	 flanked_rf_freq_12_amplitude_0.0617_rep_9_l_H_2.0.png	 H	 l	 b	 n.a.	 7.331395e-01
5	 6	 52	 flanked	 rf	 8	 0.268300	 2.000000	 flanked_rf_freq_8_amplitude_0.2683_rep_2_l_N_2.0.png	 N	 l	 l	 n.a.	 3.097679e-01
5	 6	 53	 flanked	 rf	 4	 0.007500	 2.000000	 flanked_rf_freq_4_amplitude_0.0075_rep_1_t_N_2.0.png	 N	 t	 t	 n.a.	 5.527137e-01
5	 6	 54	 flanked	 rf	 12	 0.165000	 2.000000	 flanked_rf_freq_12_amplitude_0.165_rep_8_l_H_2.0.png	 H	 l	 l	 n.a.	 2.989095e-01
5	 6	 55	 flanked	 rf	 5	 0.007500	 2.000000	 flanked_rf_freq_5_amplitude_0.0075_rep_7_l_H_2.0.png	 H	 l	 r	 n.a.	 6.622554e-01
5	 6	 56	 flanked	 rf	 2	 0.061700	 2.000000	 flanked_rf_freq_2_amplitude_0.0617_rep_4_r_H_2.0.png	 H	 r	 b	 n.a.	 5.100306e-01
5	 6	 57	 flanked	 rf	 2	 0.007500	 2.000000	 flanked_rf_freq_2_amplitude_0.0075_rep_3_t_H_2.0.png	 H	 t	 r	 n.a.	 6.976591e-01
5	 6	 58	 flanked	 rf	 2	 0.061700	 2.000000	 flanked_rf_freq_2_amplitude_0.0617_rep_1_r_D_2.0.png	 D	 r	 b	 n.a.	 4.789421e-01
5	 6	 59	 flanked	 rf	 8	 0.010000	 2.000000	 flanked_rf_freq_8_amplitude_0.01_rep_6_l_N_2.0.png	 N	 l	 t	 n.a.	 5.095320e-01
5	 6	 60	 flanked	 rf	 5	 0.010000	 2.000000	 flanked_rf_freq_5_amplitude_0.01_rep_1_r_K_2.0.png	 K	 r	 r	 n.a.	 7.560239e-01
5	 6	 61	 flanked	 rf	 3	 0.113300	 2.000000	 flanked_rf_freq_3_amplitude_0.1133_rep_1_t_K_2.0.png	 K	 t	 l	 n.a.	 6.732331e-01
5	 6	 62	 flanked	 rf	 3	 0.268300	 2.000000	 flanked_rf_freq_3_amplitude_0.2683_rep_8_l_H_2.0.png	 H	 l	 l	 n.a.	 5.609163e-01
5	 6	 63	 flanked	 rf	 3	 0.007500	 2.000000	 flanked_rf_freq_3_amplitude_0.0075_rep_6_l_H_2.0.png	 H	 l	 r	 n.a.	 3.890156e-01
5	 6	 64	 flanked	 rf	 12	 0.216700	 2.000000	 flanked_rf_freq_12_amplitude_0.2167_rep_7_r_H_2.0.png	 H	 r	 r	 n.a.	 2.691462e-01
5	 6	 65	 flanked	 rf	 12	 0.268300	 2.000000	 flanked_rf_freq_12_amplitude_0.2683_rep_8_l_D_2.0.png	 D	 l	 l	 n.a.	 2.763676e-01
5	 6	 66	 flanked	 rf	 12	 0.010000	 2.000000	 flanked_rf_freq_12_amplitude_0.01_rep_6_b_N_2.0.png	 N	 b	 r	 n.a.	 7.067346e-01
5	 6	 67	 flanked	 rf	 8	 0.061700	 2.000000	 flanked_rf_freq_8_amplitude_0.0617_rep_1_l_N_2.0.png	 N	 l	 l	 n.a.	 5.053231e-01
5	 6	 68	 flanked	 rf	 5	 0.010000	 2.000000	 flanked_rf_freq_5_amplitude_0.01_rep_0_l_H_2.0.png	 H	 l	 r	 n.a.	 4.475284e-01
5	 6	 69	 flanked	 rf	 4	 0.061700	 2.000000	 flanked_rf_freq_4_amplitude_0.0617_rep_5_l_H_2.0.png	 H	 l	 t	 n.a.	 1.195034e+00
5	 6	 70	 flanked	 rf	 2	 0.113300	 2.000000	 flanked_rf_freq_2_amplitude_0.1133_rep_5_b_K_2.0.png	 K	 b	 b	 n.a.	 3.660968e-01
5	 6	 71	 flanked	 rf	 2	 0.061700	 2.000000	 flanked_rf_freq_2_amplitude_0.0617_rep_3_b_N_2.0.png	 N	 b	 r	 n.a.	 4.978669e-01
5	 6	 72	 flanked	 rf	 3	 0.010000	 2.000000	 flanked_rf_freq_3_amplitude_0.01_rep_1_r_K_2.0.png	 K	 r	 b	 n.a.	 6.290560e-01
5	 6	 73	 flanked	 rf	 12	 0.061700	 2.000000	 flanked_rf_freq_12_amplitude_0.0617_rep_2_b_D_2.0.png	 D	 b	 r	 n.a.	 3.251120e-01
5	 6	 74	 flanked	 rf	 8	 0.061700	 2.000000	 flanked_rf_freq_8_amplitude_0.0617_rep_9_b_K_2.0.png	 K	 b	 t	 n.a.	 5.469265e-01
5	 6	 75	 flanked	 rf	 2	 0.268300	 2.000000	 flanked_rf_freq_2_amplitude_0.2683_rep_5_b_H_2.0.png	 H	 b	 r	 n.a.	 3.841107e-01
5	 6	 76	 flanked	 rf	 8	 0.216700	 2.000000	 flanked_rf_freq_8_amplitude_0.2167_rep_2_l_D_2.0.png	 D	 l	 l	 n.a.	 2.563871e-01
5	 6	 77	 flanked	 rf	 5	 0.216700	 2.000000	 flanked_rf_freq_5_amplitude_0.2167_rep_5_r_H_2.0.png	 H	 r	 r	 n.a.	 2.154834e-01
5	 6	 78	 flanked	 rf	 3	 0.268300	 2.000000	 flanked_rf_freq_3_amplitude_0.2683_rep_2_l_K_2.0.png	 K	 l	 l	 n.a.	 8.604284e-01
5	 6	 79	 flanked	 rf	 5	 0.113300	 2.000000	 flanked_rf_freq_5_amplitude_0.1133_rep_5_b_D_2.0.png	 D	 b	 r	 n.a.	 1.045729e+00
5	 6	 80	 flanked	 rf	 2	 0.268300	 2.000000	 flanked_rf_freq_2_amplitude_0.2683_rep_7_r_N_2.0.png	 N	 r	 r	 n.a.	 4.012207e-01
5	 6	 81	 flanked	 rf	 3	 0.010000	 2.000000	 flanked_rf_freq_3_amplitude_0.01_rep_3_l_D_2.0.png	 D	 l	 b	 n.a.	 6.562999e-01
5	 6	 82	 flanked	 rf	 2	 0.061700	 2.000000	 flanked_rf_freq_2_amplitude_0.0617_rep_0_t_N_2.0.png	 N	 t	 t	 n.a.	 5.207716e-01
5	 6	 83	 flanked	 rf	 5	 0.007500	 2.000000	 flanked_rf_freq_5_amplitude_0.0075_rep_0_t_D_2.0.png	 D	 t	 r	 n.a.	 5.316972e-01
5	 6	 84	 flanked	 rf	 3	 0.268300	 2.000000	 flanked_rf_freq_3_amplitude_0.2683_rep_3_l_H_2.0.png	 H	 l	 l	 n.a.	 2.852410e-01
5	 6	 85	 flanked	 rf	 12	 0.216700	 2.000000	 flanked_rf_freq_12_amplitude_0.2167_rep_3_t_D_2.0.png	 D	 t	 t	 n.a.	 4.237820e-01
5	 6	 86	 flanked	 rf	 5	 0.165000	 2.000000	 flanked_rf_freq_5_amplitude_0.165_rep_8_l_K_2.0.png	 K	 l	 l	 n.a.	 3.612956e-01
5	 6	 87	 flanked	 rf	 8	 0.061700	 2.000000	 flanked_rf_freq_8_amplitude_0.0617_rep_4_l_K_2.0.png	 K	 l	 r	 n.a.	 5.339098e-01
5	 6	 88	 flanked	 rf	 5	 0.113300	 2.000000	 flanked_rf_freq_5_amplitude_0.1133_rep_7_r_D_2.0.png	 D	 r	 l	 n.a.	 8.610177e-01
5	 6	 89	 flanked	 rf	 3	 0.113300	 2.000000	 flanked_rf_freq_3_amplitude_0.1133_rep_2_l_K_2.0.png	 K	 l	 l	 n.a.	 5.220972e-01
5	 6	 90	 flanked	 rf	 8	 0.061700	 2.000000	 flanked_rf_freq_8_amplitude_0.0617_rep_3_b_H_2.0.png	 H	 b	 t	 n.a.	 4.455350e-01
5	 6	 91	 flanked	 rf	 5	 0.007500	 2.000000	 flanked_rf_freq_5_amplitude_0.0075_rep_5_b_D_2.0.png	 D	 b	 r	 n.a.	 4.275047e-01
5	 6	 92	 flanked	 rf	 12	 0.113300	 2.000000	 flanked_rf_freq_12_amplitude_0.1133_rep_8_r_N_2.0.png	 N	 r	 r	 n.a.	 2.363903e-01
5	 6	 93	 flanked	 rf	 8	 0.268300	 2.000000	 flanked_rf_freq_8_amplitude_0.2683_rep_0_b_D_2.0.png	 D	 b	 b	 n.a.	 3.963488e-01
5	 6	 94	 flanked	 rf	 2	 0.165000	 2.000000	 flanked_rf_freq_2_amplitude_0.165_rep_6_l_H_2.0.png	 H	 l	 l	 n.a.	 4.171743e-01
5	 6	 95	 flanked	 rf	 12	 0.007500	 2.000000	 flanked_rf_freq_12_amplitude_0.0075_rep_8_l_D_2.0.png	 D	 l	 t	 n.a.	 5.011787e-01
5	 6	 96	 flanked	 rf	 2	 0.010000	 2.000000	 flanked_rf_freq_2_amplitude_0.01_rep_8_t_H_2.0.png	 H	 t	 t	 n.a.	 6.234418e-01
5	 6	 97	 flanked	 rf	 2	 0.061700	 2.000000	 flanked_rf_freq_2_amplitude_0.0617_rep_8_b_K_2.0.png	 K	 b	 r	 n.a.	 4.919733e-01
5	 6	 98	 flanked	 rf	 4	 0.010000	 2.000000	 flanked_rf_freq_4_amplitude_0.01_rep_4_t_D_2.0.png	 D	 t	 l	 n.a.	 9.892615e-01
5	 6	 99	 flanked	 rf	 12	 0.007500	 2.000000	 flanked_rf_freq_12_amplitude_0.0075_rep_9_t_K_2.0.png	 K	 t	 t	 n.a.	 4.581148e-01
5	 6	 100	 flanked	 rf	 2	 0.165000	 2.000000	 flanked_rf_freq_2_amplitude_0.165_rep_8_l_H_2.0.png	 H	 l	 r	 n.a.	 4.688766e-01
5	 6	 101	 flanked	 rf	 4	 0.113300	 2.000000	 flanked_rf_freq_4_amplitude_0.1133_rep_2_t_D_2.0.png	 D	 t	 r	 n.a.	 5.879410e-01
5	 6	 102	 flanked	 rf	 5	 0.268300	 2.000000	 flanked_rf_freq_5_amplitude_0.2683_rep_5_l_K_2.0.png	 K	 l	 l	 n.a.	 2.356558e-01
5	 6	 103	 flanked	 rf	 12	 0.113300	 2.000000	 flanked_rf_freq_12_amplitude_0.1133_rep_0_b_N_2.0.png	 N	 b	 b	 n.a.	 9.005361e-01
5	 6	 104	 flanked	 rf	 4	 0.007500	 2.000000	 flanked_rf_freq_4_amplitude_0.0075_rep_8_b_K_2.0.png	 K	 b	 r	 n.a.	 4.953173e-01
5	 6	 105	 flanked	 rf	 4	 0.061700	 2.000000	 flanked_rf_freq_4_amplitude_0.0617_rep_1_r_K_2.0.png	 K	 r	 t	 n.a.	 5.077945e-01
5	 6	 106	 flanked	 rf	 12	 0.007500	 2.000000	 flanked_rf_freq_12_amplitude_0.0075_rep_3_b_H_2.0.png	 H	 b	 r	 n.a.	 3.891957e-01
5	 6	 107	 flanked	 rf	 3	 0.007500	 2.000000	 flanked_rf_freq_3_amplitude_0.0075_rep_4_t_D_2.0.png	 D	 t	 r	 n.a.	 4.664546e-01
5	 6	 108	 flanked	 rf	 3	 0.007500	 2.000000	 flanked_rf_freq_3_amplitude_0.0075_rep_5_b_H_2.0.png	 H	 b	 l	 n.a.	 6.318239e-01
5	 6	 109	 flanked	 rf	 2	 0.010000	 2.000000	 flanked_rf_freq_2_amplitude_0.01_rep_3_b_K_2.0.png	 K	 b	 r	 n.a.	 5.314677e-01
5	 6	 110	 flanked	 rf	 4	 0.061700	 2.000000	 flanked_rf_freq_4_amplitude_0.0617_rep_7_b_K_2.0.png	 K	 b	 l	 n.a.	 9.578689e-01
5	 6	 111	 flanked	 rf	 4	 0.268300	 2.000000	 flanked_rf_freq_4_amplitude_0.2683_rep_1_l_D_2.0.png	 D	 l	 r	 n.a.	 8.781769e-01
5	 6	 112	 flanked	 rf	 3	 0.113300	 2.000000	 flanked_rf_freq_3_amplitude_0.1133_rep_6_t_N_2.0.png	 N	 t	 t	 n.a.	 5.164696e-01
5	 6	 113	 flanked	 rf	 8	 0.010000	 2.000000	 flanked_rf_freq_8_amplitude_0.01_rep_8_t_K_2.0.png	 K	 t	 t	 n.a.	 6.094104e-01
5	 6	 114	 flanked	 rf	 2	 0.007500	 2.000000	 flanked_rf_freq_2_amplitude_0.0075_rep_7_l_H_2.0.png	 H	 l	 r	 n.a.	 4.067985e-01
5	 6	 115	 flanked	 rf	 2	 0.007500	 2.000000	 flanked_rf_freq_2_amplitude_0.0075_rep_4_l_H_2.0.png	 H	 l	 r	 n.a.	 9.725974e-01
5	 6	 116	 flanked	 rf	 5	 0.113300	 2.000000	 flanked_rf_freq_5_amplitude_0.1133_rep_2_r_N_2.0.png	 N	 r	 r	 n.a.	 3.577679e-01
5	 6	 117	 flanked	 rf	 2	 0.113300	 2.000000	 flanked_rf_freq_2_amplitude_0.1133_rep_2_l_K_2.0.png	 K	 l	 r	 n.a.	 4.179753e-01
5	 6	 118	 flanked	 rf	 2	 0.061700	 2.000000	 flanked_rf_freq_2_amplitude_0.0617_rep_2_t_K_2.0.png	 K	 t	 t	 n.a.	 4.677616e-01
5	 6	 119	 flanked	 rf	 4	 0.216700	 2.000000	 flanked_rf_freq_4_amplitude_0.2167_rep_2_t_N_2.0.png	 N	 t	 r	 n.a.	 3.825859e-01
5	 6	 120	 flanked	 rf	 3	 0.268300	 2.000000	 flanked_rf_freq_3_amplitude_0.2683_rep_7_b_N_2.0.png	 N	 b	 r	 n.a.	 3.811760e-01
5	 6	 121	 flanked	 rf	 3	 0.007500	 2.000000	 flanked_rf_freq_3_amplitude_0.0075_rep_3_b_D_2.0.png	 D	 b	 l	 n.a.	 1.249947e+00
5	 6	 122	 flanked	 rf	 8	 0.061700	 2.000000	 flanked_rf_freq_8_amplitude_0.0617_rep_2_r_K_2.0.png	 K	 r	 r	 n.a.	 5.626594e-01
5	 6	 123	 flanked	 rf	 4	 0.010000	 2.000000	 flanked_rf_freq_4_amplitude_0.01_rep_9_r_H_2.0.png	 H	 r	 b	 n.a.	 6.576481e-01
5	 6	 124	 flanked	 rf	 3	 0.113300	 2.000000	 flanked_rf_freq_3_amplitude_0.1133_rep_9_t_N_2.0.png	 N	 t	 r	 n.a.	 8.039584e-01
5	 6	 125	 flanked	 rf	 12	 0.165000	 2.000000	 flanked_rf_freq_12_amplitude_0.165_rep_7_l_H_2.0.png	 H	 l	 l	 n.a.	 3.128182e-01
5	 6	 126	 flanked	 rf	 3	 0.216700	 2.000000	 flanked_rf_freq_3_amplitude_0.2167_rep_9_b_D_2.0.png	 D	 b	 t	 n.a.	 8.630031e-01
5	 6	 127	 flanked	 rf	 4	 0.268300	 2.000000	 flanked_rf_freq_4_amplitude_0.2683_rep_8_b_K_2.0.png	 K	 b	 b	 n.a.	 4.540626e-01
5	 6	 128	 flanked	 rf	 3	 0.061700	 2.000000	 flanked_rf_freq_3_amplitude_0.0617_rep_0_b_D_2.0.png	 D	 b	 r	 n.a.	 5.894182e-01
5	 6	 129	 flanked	 rf	 4	 0.216700	 2.000000	 flanked_rf_freq_4_amplitude_0.2167_rep_7_b_K_2.0.png	 K	 b	 b	 n.a.	 4.187220e-01
5	 6	 130	 flanked	 rf	 2	 0.007500	 2.000000	 flanked_rf_freq_2_amplitude_0.0075_rep_8_l_H_2.0.png	 H	 l	 r	 n.a.	 4.357983e-01
5	 6	 131	 flanked	 rf	 8	 0.007500	 2.000000	 flanked_rf_freq_8_amplitude_0.0075_rep_6_r_N_2.0.png	 N	 r	 l	 n.a.	 8.985879e-01
5	 6	 132	 flanked	 rf	 5	 0.113300	 2.000000	 flanked_rf_freq_5_amplitude_0.1133_rep_1_b_N_2.0.png	 N	 b	 t	 n.a.	 9.222028e-01
5	 6	 133	 flanked	 rf	 8	 0.216700	 2.000000	 flanked_rf_freq_8_amplitude_0.2167_rep_0_b_N_2.0.png	 N	 b	 b	 n.a.	 5.342547e-01
5	 6	 134	 flanked	 rf	 4	 0.216700	 2.000000	 flanked_rf_freq_4_amplitude_0.2167_rep_6_b_N_2.0.png	 N	 b	 b	 n.a.	 6.582895e-01
5	 6	 135	 flanked	 rf	 3	 0.010000	 2.000000	 flanked_rf_freq_3_amplitude_0.01_rep_5_t_N_2.0.png	 N	 t	 r	 n.a.	 4.040681e-01
5	 6	 136	 flanked	 rf	 4	 0.165000	 2.000000	 flanked_rf_freq_4_amplitude_0.165_rep_7_r_D_2.0.png	 D	 r	 r	 n.a.	 5.046288e-01
5	 6	 137	 flanked	 rf	 2	 0.216700	 2.000000	 flanked_rf_freq_2_amplitude_0.2167_rep_3_r_N_2.0.png	 N	 r	 r	 n.a.	 4.727369e-01
5	 6	 138	 flanked	 rf	 5	 0.007500	 2.000000	 flanked_rf_freq_5_amplitude_0.0075_rep_6_b_N_2.0.png	 N	 b	 b	 n.a.	 6.861153e-01
5	 6	 139	 flanked	 rf	 4	 0.113300	 2.000000	 flanked_rf_freq_4_amplitude_0.1133_rep_8_b_D_2.0.png	 D	 b	 r	 n.a.	 3.629519e-01
5	 6	 140	 flanked	 rf	 2	 0.268300	 2.000000	 flanked_rf_freq_2_amplitude_0.2683_rep_8_l_H_2.0.png	 H	 l	 l	 n.a.	 5.383689e-01
5	 6	 141	 flanked	 rf	 8	 0.061700	 2.000000	 flanked_rf_freq_8_amplitude_0.0617_rep_5_b_K_2.0.png	 K	 b	 b	 n.a.	 3.836838e-01
5	 6	 142	 flanked	 rf	 12	 0.061700	 2.000000	 flanked_rf_freq_12_amplitude_0.0617_rep_5_t_K_2.0.png	 K	 t	 t	 n.a.	 4.483105e-01
5	 6	 143	 flanked	 rf	 5	 0.061700	 2.000000	 flanked_rf_freq_5_amplitude_0.0617_rep_5_b_D_2.0.png	 D	 b	 b	 n.a.	 6.334544e-01
5	 6	 144	 flanked	 rf	 2	 0.216700	 2.000000	 flanked_rf_freq_2_amplitude_0.2167_rep_8_r_H_2.0.png	 H	 r	 r	 n.a.	 3.605299e-01
5	 6	 145	 flanked	 rf	 8	 0.165000	 2.000000	 flanked_rf_freq_8_amplitude_0.165_rep_1_b_K_2.0.png	 K	 b	 b	 n.a.	 3.994285e-01
5	 6	 146	 flanked	 rf	 2	 0.268300	 2.000000	 flanked_rf_freq_2_amplitude_0.2683_rep_6_b_N_2.0.png	 N	 b	 b	 n.a.	 8.871312e-01
5	 6	 147	 flanked	 rf	 3	 0.268300	 2.000000	 flanked_rf_freq_3_amplitude_0.2683_rep_4_t_N_2.0.png	 N	 t	 t	 n.a.	 5.519857e-01
5	 6	 148	 flanked	 rf	 12	 0.216700	 2.000000	 flanked_rf_freq_12_amplitude_0.2167_rep_5_t_D_2.0.png	 D	 t	 t	 n.a.	 5.140247e-01
5	 6	 149	 flanked	 rf	 3	 0.061700	 2.000000	 flanked_rf_freq_3_amplitude_0.0617_rep_9_l_H_2.0.png	 H	 l	 r	 n.a.	 7.326179e-01
5	 6	 150	 flanked	 rf	 12	 0.010000	 2.000000	 flanked_rf_freq_12_amplitude_0.01_rep_2_t_K_2.0.png	 K	 t	 b	 n.a.	 7.080617e-01
5	 6	 151	 flanked	 rf	 8	 0.268300	 2.000000	 flanked_rf_freq_8_amplitude_0.2683_rep_5_b_D_2.0.png	 D	 b	 b	 n.a.	 3.034286e-01
5	 6	 152	 flanked	 rf	 5	 0.165000	 2.000000	 flanked_rf_freq_5_amplitude_0.165_rep_4_l_K_2.0.png	 K	 l	 l	 n.a.	 4.693695e-01
5	 6	 153	 flanked	 rf	 3	 0.010000	 2.000000	 flanked_rf_freq_3_amplitude_0.01_rep_2_t_D_2.0.png	 D	 t	 b	 n.a.	 3.509528e-01
5	 6	 154	 flanked	 rf	 2	 0.007500	 2.000000	 flanked_rf_freq_2_amplitude_0.0075_rep_2_r_H_2.0.png	 H	 r	 t	 n.a.	 5.808873e-01
5	 6	 155	 flanked	 rf	 5	 0.061700	 2.000000	 flanked_rf_freq_5_amplitude_0.0617_rep_1_t_K_2.0.png	 K	 t	 b	 n.a.	 4.421967e-01
5	 6	 156	 flanked	 rf	 12	 0.113300	 2.000000	 flanked_rf_freq_12_amplitude_0.1133_rep_7_t_D_2.0.png	 D	 t	 t	 n.a.	 3.927211e-01
5	 6	 157	 flanked	 rf	 8	 0.010000	 2.000000	 flanked_rf_freq_8_amplitude_0.01_rep_9_b_K_2.0.png	 K	 b	 r	 n.a.	 5.671421e-01
5	 6	 158	 flanked	 rf	 2	 0.165000	 2.000000	 flanked_rf_freq_2_amplitude_0.165_rep_9_l_N_2.0.png	 N	 l	 b	 n.a.	 3.522714e-01
5	 6	 159	 flanked	 rf	 3	 0.216700	 2.000000	 flanked_rf_freq_3_amplitude_0.2167_rep_4_l_D_2.0.png	 D	 l	 l	 n.a.	 3.329342e-01
5	 6	 160	 flanked	 rf	 4	 0.007500	 2.000000	 flanked_rf_freq_4_amplitude_0.0075_rep_0_b_D_2.0.png	 D	 b	 b	 n.a.	 8.192141e-01
5	 6	 161	 flanked	 rf	 2	 0.113300	 2.000000	 flanked_rf_freq_2_amplitude_0.1133_rep_0_l_K_2.0.png	 K	 l	 l	 n.a.	 3.277521e-01
5	 6	 162	 flanked	 rf	 8	 0.113300	 2.000000	 flanked_rf_freq_8_amplitude_0.1133_rep_4_r_H_2.0.png	 H	 r	 r	 n.a.	 2.734993e-01
5	 6	 163	 flanked	 rf	 8	 0.165000	 2.000000	 flanked_rf_freq_8_amplitude_0.165_rep_5_l_D_2.0.png	 D	 l	 l	 n.a.	 3.081779e-01
5	 6	 164	 flanked	 rf	 5	 0.010000	 2.000000	 flanked_rf_freq_5_amplitude_0.01_rep_9_r_D_2.0.png	 D	 r	 b	 n.a.	 3.985672e-01
5	 6	 165	 flanked	 rf	 2	 0.007500	 2.000000	 flanked_rf_freq_2_amplitude_0.0075_rep_1_b_K_2.0.png	 K	 b	 l	 n.a.	 1.013119e+00
5	 6	 166	 flanked	 rf	 3	 0.268300	 2.000000	 flanked_rf_freq_3_amplitude_0.2683_rep_6_r_D_2.0.png	 D	 r	 r	 n.a.	 2.528130e-01
5	 6	 167	 flanked	 rf	 3	 0.165000	 2.000000	 flanked_rf_freq_3_amplitude_0.165_rep_2_t_D_2.0.png	 D	 t	 r	 n.a.	 3.886865e-01
5	 6	 168	 flanked	 rf	 12	 0.061700	 2.000000	 flanked_rf_freq_12_amplitude_0.0617_rep_1_r_K_2.0.png	 K	 r	 r	 n.a.	 3.523197e-01
5	 6	 169	 flanked	 rf	 5	 0.007500	 2.000000	 flanked_rf_freq_5_amplitude_0.0075_rep_2_r_K_2.0.png	 K	 r	 r	 n.a.	 6.474276e-01
5	 6	 170	 flanked	 rf	 2	 0.010000	 2.000000	 flanked_rf_freq_2_amplitude_0.01_rep_6_b_D_2.0.png	 D	 b	 l	 n.a.	 1.040155e+00
5	 6	 171	 flanked	 rf	 5	 0.268300	 2.000000	 flanked_rf_freq_5_amplitude_0.2683_rep_6_b_N_2.0.png	 N	 b	 b	 n.a.	 3.642318e-01
5	 6	 172	 flanked	 rf	 3	 0.268300	 2.000000	 flanked_rf_freq_3_amplitude_0.2683_rep_9_r_K_2.0.png	 K	 r	 r	 n.a.	 3.632184e-01
5	 6	 173	 flanked	 rf	 2	 0.216700	 2.000000	 flanked_rf_freq_2_amplitude_0.2167_rep_2_b_D_2.0.png	 D	 b	 b	 n.a.	 7.221526e-01
5	 6	 174	 flanked	 rf	 5	 0.268300	 2.000000	 flanked_rf_freq_5_amplitude_0.2683_rep_2_t_H_2.0.png	 H	 t	 t	 n.a.	 4.255781e-01
5	 6	 175	 flanked	 rf	 2	 0.007500	 2.000000	 flanked_rf_freq_2_amplitude_0.0075_rep_0_b_K_2.0.png	 K	 b	 t	 n.a.	 4.569309e-01
5	 6	 176	 flanked	 rf	 4	 0.113300	 2.000000	 flanked_rf_freq_4_amplitude_0.1133_rep_5_l_K_2.0.png	 K	 l	 l	 n.a.	 4.108407e-01
5	 6	 177	 flanked	 rf	 2	 0.268300	 2.000000	 flanked_rf_freq_2_amplitude_0.2683_rep_9_b_H_2.0.png	 H	 b	 r	 n.a.	 3.999986e-01
5	 6	 178	 flanked	 rf	 8	 0.061700	 2.000000	 flanked_rf_freq_8_amplitude_0.0617_rep_8_l_H_2.0.png	 H	 l	 t	 n.a.	 9.208587e-01
5	 6	 179	 flanked	 rf	 8	 0.113300	 2.000000	 flanked_rf_freq_8_amplitude_0.1133_rep_1_t_N_2.0.png	 N	 t	 l	 n.a.	 7.327192e-01
5	 6	 180	 flanked	 rf	 12	 0.113300	 2.000000	 flanked_rf_freq_12_amplitude_0.1133_rep_4_t_N_2.0.png	 N	 t	 t	 n.a.	 5.845134e-01
5	 6	 181	 flanked	 rf	 5	 0.113300	 2.000000	 flanked_rf_freq_5_amplitude_0.1133_rep_0_t_K_2.0.png	 K	 t	 t	 n.a.	 8.186275e-01
5	 6	 182	 flanked	 rf	 12	 0.216700	 2.000000	 flanked_rf_freq_12_amplitude_0.2167_rep_6_t_K_2.0.png	 K	 t	 t	 n.a.	 3.694799e-01
5	 6	 183	 flanked	 rf	 5	 0.165000	 2.000000	 flanked_rf_freq_5_amplitude_0.165_rep_0_r_D_2.0.png	 D	 r	 r	 n.a.	 4.619298e-01
5	 6	 184	 flanked	 rf	 2	 0.007500	 2.000000	 flanked_rf_freq_2_amplitude_0.0075_rep_9_l_H_2.0.png	 H	 l	 r	 n.a.	 5.458976e-01
5	 6	 185	 flanked	 rf	 8	 0.165000	 2.000000	 flanked_rf_freq_8_amplitude_0.165_rep_0_b_H_2.0.png	 H	 b	 b	 n.a.	 3.796406e-01
5	 6	 186	 flanked	 rf	 2	 0.007500	 2.000000	 flanked_rf_freq_2_amplitude_0.0075_rep_6_b_N_2.0.png	 N	 b	 t	 n.a.	 7.330585e-01
5	 6	 187	 flanked	 rf	 2	 0.113300	 2.000000	 flanked_rf_freq_2_amplitude_0.1133_rep_8_r_N_2.0.png	 N	 r	 b	 n.a.	 4.572694e-01
5	 6	 188	 flanked	 rf	 3	 0.113300	 2.000000	 flanked_rf_freq_3_amplitude_0.1133_rep_4_t_H_2.0.png	 H	 t	 r	 n.a.	 4.652661e-01
5	 6	 189	 flanked	 rf	 8	 0.010000	 2.000000	 flanked_rf_freq_8_amplitude_0.01_rep_1_t_N_2.0.png	 N	 t	 r	 n.a.	 3.574180e-01
5	 6	 190	 flanked	 rf	 5	 0.165000	 2.000000	 flanked_rf_freq_5_amplitude_0.165_rep_9_b_H_2.0.png	 H	 b	 r	 n.a.	 8.672234e-01
5	 6	 191	 flanked	 rf	 12	 0.010000	 2.000000	 flanked_rf_freq_12_amplitude_0.01_rep_9_l_K_2.0.png	 K	 l	 b	 n.a.	 8.232287e-01
5	 6	 192	 flanked	 rf	 4	 0.007500	 2.000000	 flanked_rf_freq_4_amplitude_0.0075_rep_2_l_N_2.0.png	 N	 l	 t	 n.a.	 8.068696e-01
5	 6	 193	 flanked	 rf	 2	 0.113300	 2.000000	 flanked_rf_freq_2_amplitude_0.1133_rep_4_b_D_2.0.png	 D	 b	 l	 n.a.	 3.904137e-01
5	 6	 194	 flanked	 rf	 8	 0.268300	 2.000000	 flanked_rf_freq_8_amplitude_0.2683_rep_8_b_H_2.0.png	 H	 b	 b	 n.a.	 4.224931e-01
5	 6	 195	 flanked	 rf	 8	 0.268300	 2.000000	 flanked_rf_freq_8_amplitude_0.2683_rep_7_l_N_2.0.png	 N	 l	 l	 n.a.	 3.035031e-01
5	 6	 196	 flanked	 rf	 3	 0.010000	 2.000000	 flanked_rf_freq_3_amplitude_0.01_rep_9_b_K_2.0.png	 K	 b	 r	 n.a.	 4.953983e-01
5	 6	 197	 flanked	 rf	 12	 0.113300	 2.000000	 flanked_rf_freq_12_amplitude_0.1133_rep_9_b_K_2.0.png	 K	 b	 b	 n.a.	 4.136127e-01
5	 6	 198	 flanked	 rf	 2	 0.268300	 2.000000	 flanked_rf_freq_2_amplitude_0.2683_rep_0_l_H_2.0.png	 H	 l	 l	 n.a.	 3.266414e-01
5	 6	 199	 flanked	 rf	 5	 0.007500	 2.000000	 flanked_rf_freq_5_amplitude_0.0075_rep_1_r_D_2.0.png	 D	 r	 b	 n.a.	 7.905017e-01
5	 6	 200	 flanked	 rf	 4	 0.007500	 2.000000	 flanked_rf_freq_4_amplitude_0.0075_rep_9_l_K_2.0.png	 K	 l	 t	 n.a.	 7.268439e-01
5	 6	 201	 flanked	 rf	 3	 0.165000	 2.000000	 flanked_rf_freq_3_amplitude_0.165_rep_8_b_H_2.0.png	 H	 b	 b	 n.a.	 4.882491e-01
5	 6	 202	 flanked	 rf	 5	 0.010000	 2.000000	 flanked_rf_freq_5_amplitude_0.01_rep_8_r_H_2.0.png	 H	 r	 b	 n.a.	 6.299222e-01
5	 6	 203	 flanked	 rf	 4	 0.165000	 2.000000	 flanked_rf_freq_4_amplitude_0.165_rep_8_r_H_2.0.png	 H	 r	 r	 n.a.	 2.905790e-01
5	 6	 204	 flanked	 rf	 8	 0.268300	 2.000000	 flanked_rf_freq_8_amplitude_0.2683_rep_1_r_H_2.0.png	 H	 r	 r	 n.a.	 2.571869e-01
5	 6	 205	 flanked	 rf	 12	 0.268300	 2.000000	 flanked_rf_freq_12_amplitude_0.2683_rep_9_t_D_2.0.png	 D	 t	 t	 n.a.	 5.037588e-01
5	 6	 206	 flanked	 rf	 12	 0.010000	 2.000000	 flanked_rf_freq_12_amplitude_0.01_rep_3_l_K_2.0.png	 K	 l	 b	 n.a.	 4.770638e-01
5	 6	 207	 flanked	 rf	 8	 0.216700	 2.000000	 flanked_rf_freq_8_amplitude_0.2167_rep_4_l_N_2.0.png	 N	 l	 l	 n.a.	 2.600191e-01
5	 6	 208	 flanked	 rf	 8	 0.113300	 2.000000	 flanked_rf_freq_8_amplitude_0.1133_rep_7_r_D_2.0.png	 D	 r	 r	 n.a.	 2.878846e-01
5	 6	 209	 flanked	 rf	 12	 0.165000	 2.000000	 flanked_rf_freq_12_amplitude_0.165_rep_2_b_N_2.0.png	 N	 b	 b	 n.a.	 4.173668e-01
5	 6	 210	 flanked	 rf	 8	 0.061700	 2.000000	 flanked_rf_freq_8_amplitude_0.0617_rep_7_r_K_2.0.png	 K	 r	 r	 n.a.	 3.328751e-01
5	 6	 211	 flanked	 rf	 5	 0.010000	 2.000000	 flanked_rf_freq_5_amplitude_0.01_rep_2_b_N_2.0.png	 N	 b	 r	 n.a.	 4.350328e-01
5	 6	 212	 flanked	 rf	 8	 0.010000	 2.000000	 flanked_rf_freq_8_amplitude_0.01_rep_7_b_D_2.0.png	 D	 b	 r	 n.a.	 5.718402e-01
5	 6	 213	 flanked	 rf	 5	 0.268300	 2.000000	 flanked_rf_freq_5_amplitude_0.2683_rep_4_t_N_2.0.png	 N	 t	 t	 n.a.	 4.231562e-01
5	 6	 214	 flanked	 rf	 2	 0.061700	 2.000000	 flanked_rf_freq_2_amplitude_0.0617_rep_9_r_K_2.0.png	 K	 r	 r	 n.a.	 5.193788e-01
5	 6	 215	 flanked	 rf	 12	 0.007500	 2.000000	 flanked_rf_freq_12_amplitude_0.0075_rep_7_r_H_2.0.png	 H	 r	 t	 n.a.	 8.003726e-01
5	 6	 216	 flanked	 rf	 2	 0.010000	 2.000000	 flanked_rf_freq_2_amplitude_0.01_rep_1_b_N_2.0.png	 N	 b	 t	 n.a.	 5.528733e-01
5	 6	 217	 flanked	 rf	 4	 0.010000	 2.000000	 flanked_rf_freq_4_amplitude_0.01_rep_2_b_H_2.0.png	 H	 b	 l	 n.a.	 1.042060e+00
5	 6	 218	 flanked	 rf	 12	 0.268300	 2.000000	 flanked_rf_freq_12_amplitude_0.2683_rep_4_b_D_2.0.png	 D	 b	 b	 n.a.	 4.275900e-01
5	 6	 219	 flanked	 rf	 5	 0.216700	 2.000000	 flanked_rf_freq_5_amplitude_0.2167_rep_6_t_K_2.0.png	 K	 t	 t	 n.a.	 5.541170e-01
5	 6	 220	 flanked	 rf	 5	 0.165000	 2.000000	 flanked_rf_freq_5_amplitude_0.165_rep_2_t_D_2.0.png	 D	 t	 b	 n.a.	 5.656399e-01
5	 6	 221	 flanked	 rf	 3	 0.061700	 2.000000	 flanked_rf_freq_3_amplitude_0.0617_rep_1_b_H_2.0.png	 H	 b	 r	 n.a.	 6.256640e-01
5	 6	 222	 flanked	 rf	 3	 0.061700	 2.000000	 flanked_rf_freq_3_amplitude_0.0617_rep_8_t_H_2.0.png	 H	 t	 t	 n.a.	 7.971301e-01
5	 6	 223	 flanked	 rf	 4	 0.010000	 2.000000	 flanked_rf_freq_4_amplitude_0.01_rep_8_b_H_2.0.png	 H	 b	 b	 n.a.	 5.168368e-01
5	 6	 224	 flanked	 rf	 4	 0.113300	 2.000000	 flanked_rf_freq_4_amplitude_0.1133_rep_9_r_H_2.0.png	 H	 r	 r	 n.a.	 3.551150e-01
5	 6	 225	 flanked	 rf	 5	 0.216700	 2.000000	 flanked_rf_freq_5_amplitude_0.2167_rep_7_t_D_2.0.png	 D	 t	 t	 n.a.	 4.538184e-01
5	 6	 226	 flanked	 rf	 2	 0.113300	 2.000000	 flanked_rf_freq_2_amplitude_0.1133_rep_1_t_K_2.0.png	 K	 t	 l	 n.a.	 4.414377e-01
5	 6	 227	 flanked	 rf	 4	 0.216700	 2.000000	 flanked_rf_freq_4_amplitude_0.2167_rep_3_l_H_2.0.png	 H	 l	 l	 n.a.	 6.625656e-01
5	 6	 228	 flanked	 rf	 4	 0.165000	 2.000000	 flanked_rf_freq_4_amplitude_0.165_rep_3_r_H_2.0.png	 H	 r	 r	 n.a.	 3.166843e-01
5	 6	 229	 flanked	 rf	 8	 0.007500	 2.000000	 flanked_rf_freq_8_amplitude_0.0075_rep_8_t_D_2.0.png	 D	 t	 r	 n.a.	 5.401986e-01
5	 6	 230	 flanked	 rf	 3	 0.113300	 2.000000	 flanked_rf_freq_3_amplitude_0.1133_rep_8_r_N_2.0.png	 N	 r	 r	 n.a.	 1.101184e+00
5	 6	 231	 flanked	 rf	 5	 0.061700	 2.000000	 flanked_rf_freq_5_amplitude_0.0617_rep_2_l_K_2.0.png	 K	 l	 l	 n.a.	 4.560464e-01
5	 6	 232	 flanked	 rf	 2	 0.268300	 2.000000	 flanked_rf_freq_2_amplitude_0.2683_rep_3_r_N_2.0.png	 N	 r	 r	 n.a.	 3.645185e-01
5	 6	 233	 flanked	 rf	 8	 0.007500	 2.000000	 flanked_rf_freq_8_amplitude_0.0075_rep_2_t_H_2.0.png	 H	 t	 b	 n.a.	 3.684388e-01
5	 6	 234	 flanked	 rf	 12	 0.010000	 2.000000	 flanked_rf_freq_12_amplitude_0.01_rep_0_t_D_2.0.png	 D	 t	 r	 n.a.	 5.646258e-01
5	 6	 235	 flanked	 rf	 8	 0.165000	 2.000000	 flanked_rf_freq_8_amplitude_0.165_rep_9_l_D_2.0.png	 D	 l	 l	 n.a.	 2.827299e-01
5	 6	 236	 flanked	 rf	 8	 0.010000	 2.000000	 flanked_rf_freq_8_amplitude_0.01_rep_0_t_H_2.0.png	 H	 t	 t	 n.a.	 5.822455e-01
5	 6	 237	 flanked	 rf	 8	 0.010000	 2.000000	 flanked_rf_freq_8_amplitude_0.01_rep_2_b_D_2.0.png	 D	 b	 r	 n.a.	 3.952596e-01
5	 6	 238	 flanked	 rf	 8	 0.165000	 2.000000	 flanked_rf_freq_8_amplitude_0.165_rep_8_b_H_2.0.png	 H	 b	 b	 n.a.	 3.814671e-01
5	 6	 239	 flanked	 rf	 3	 0.010000	 2.000000	 flanked_rf_freq_3_amplitude_0.01_rep_8_b_H_2.0.png	 H	 b	 r	 n.a.	 4.284397e-01
5	 6	 240	 flanked	 rf	 12	 0.113300	 2.000000	 flanked_rf_freq_12_amplitude_0.1133_rep_6_b_D_2.0.png	 D	 b	 b	 n.a.	 4.316380e-01
5	 6	 241	 flanked	 rf	 3	 0.007500	 2.000000	 flanked_rf_freq_3_amplitude_0.0075_rep_0_t_K_2.0.png	 K	 t	 r	 n.a.	 4.505787e-01
5	 6	 242	 flanked	 rf	 5	 0.010000	 2.000000	 flanked_rf_freq_5_amplitude_0.01_rep_4_b_N_2.0.png	 N	 b	 t	 n.a.	 6.545457e-01
5	 6	 243	 flanked	 rf	 2	 0.165000	 2.000000	 flanked_rf_freq_2_amplitude_0.165_rep_5_b_H_2.0.png	 H	 b	 r	 n.a.	 3.599371e-01
5	 6	 244	 flanked	 rf	 3	 0.007500	 2.000000	 flanked_rf_freq_3_amplitude_0.0075_rep_2_r_D_2.0.png	 D	 r	 r	 n.a.	 5.823990e-01
5	 6	 245	 flanked	 rf	 4	 0.165000	 2.000000	 flanked_rf_freq_4_amplitude_0.165_rep_2_t_N_2.0.png	 N	 t	 b	 n.a.	 5.032464e-01
5	 6	 246	 flanked	 rf	 5	 0.268300	 2.000000	 flanked_rf_freq_5_amplitude_0.2683_rep_8_b_H_2.0.png	 H	 b	 b	 n.a.	 4.086727e-01
5	 6	 247	 flanked	 rf	 5	 0.216700	 2.000000	 flanked_rf_freq_5_amplitude_0.2167_rep_4_t_K_2.0.png	 K	 t	 t	 n.a.	 4.714053e-01
5	 6	 248	 flanked	 rf	 4	 0.010000	 2.000000	 flanked_rf_freq_4_amplitude_0.01_rep_0_l_D_2.0.png	 D	 l	 t	 n.a.	 6.514029e-01
5	 6	 249	 flanked	 rf	 5	 0.007500	 2.000000	 flanked_rf_freq_5_amplitude_0.0075_rep_9_r_K_2.0.png	 K	 r	 b	 n.a.	 4.870113e-01
5	 6	 250	 flanked	 rf	 4	 0.007500	 2.000000	 flanked_rf_freq_4_amplitude_0.0075_rep_6_t_K_2.0.png	 K	 t	 t	 n.a.	 6.058059e-01
5	 6	 251	 flanked	 rf	 4	 0.113300	 2.000000	 flanked_rf_freq_4_amplitude_0.1133_rep_3_r_K_2.0.png	 K	 r	 r	 n.a.	 2.923837e-01
5	 6	 252	 flanked	 rf	 3	 0.061700	 2.000000	 flanked_rf_freq_3_amplitude_0.0617_rep_4_r_N_2.0.png	 N	 r	 r	 n.a.	 8.953598e-01
5	 6	 253	 flanked	 rf	 12	 0.010000	 2.000000	 flanked_rf_freq_12_amplitude_0.01_rep_8_b_K_2.0.png	 K	 b	 b	 n.a.	 8.808809e-01
5	 6	 254	 flanked	 rf	 8	 0.007500	 2.000000	 flanked_rf_freq_8_amplitude_0.0075_rep_7_b_H_2.0.png	 H	 b	 t	 n.a.	 7.036527e-01
5	 6	 255	 flanked	 rf	 3	 0.216700	 2.000000	 flanked_rf_freq_3_amplitude_0.2167_rep_5_b_N_2.0.png	 N	 b	 t	 n.a.	 8.000806e-01
5	 6	 256	 flanked	 rf	 3	 0.165000	 2.000000	 flanked_rf_freq_3_amplitude_0.165_rep_9_l_K_2.0.png	 K	 l	 l	 n.a.	 4.706385e-01
5	 6	 257	 flanked	 rf	 4	 0.268300	 2.000000	 flanked_rf_freq_4_amplitude_0.2683_rep_7_b_D_2.0.png	 D	 b	 b	 n.a.	 4.711239e-01
5	 6	 258	 flanked	 rf	 4	 0.268300	 2.000000	 flanked_rf_freq_4_amplitude_0.2683_rep_4_b_H_2.0.png	 H	 b	 b	 n.a.	 4.010271e-01
5	 6	 259	 flanked	 rf	 5	 0.061700	 2.000000	 flanked_rf_freq_5_amplitude_0.0617_rep_9_l_K_2.0.png	 K	 l	 l	 n.a.	 7.560097e-01
5	 6	 260	 flanked	 rf	 5	 0.165000	 2.000000	 flanked_rf_freq_5_amplitude_0.165_rep_6_b_N_2.0.png	 N	 b	 r	 n.a.	 6.748621e-01
5	 6	 261	 flanked	 rf	 2	 0.216700	 2.000000	 flanked_rf_freq_2_amplitude_0.2167_rep_7_l_K_2.0.png	 K	 l	 l	 n.a.	 1.035244e+00
5	 6	 262	 flanked	 rf	 12	 0.007500	 2.000000	 flanked_rf_freq_12_amplitude_0.0075_rep_2_b_H_2.0.png	 H	 b	 r	 n.a.	 3.452825e-01
5	 6	 263	 flanked	 rf	 3	 0.268300	 2.000000	 flanked_rf_freq_3_amplitude_0.2683_rep_0_b_K_2.0.png	 K	 b	 b	 n.a.	 3.449601e-01
5	 6	 264	 flanked	 rf	 8	 0.165000	 2.000000	 flanked_rf_freq_8_amplitude_0.165_rep_2_t_N_2.0.png	 N	 t	 t	 n.a.	 4.880790e-01
5	 6	 265	 flanked	 rf	 2	 0.061700	 2.000000	 flanked_rf_freq_2_amplitude_0.0617_rep_5_t_K_2.0.png	 K	 t	 t	 n.a.	 4.664812e-01
5	 6	 266	 flanked	 rf	 4	 0.061700	 2.000000	 flanked_rf_freq_4_amplitude_0.0617_rep_4_b_D_2.0.png	 D	 b	 r	 n.a.	 1.021840e+00
5	 6	 267	 flanked	 rf	 12	 0.113300	 2.000000	 flanked_rf_freq_12_amplitude_0.1133_rep_2_l_H_2.0.png	 H	 l	 l	 n.a.	 2.569376e-01
5	 6	 268	 flanked	 rf	 2	 0.216700	 2.000000	 flanked_rf_freq_2_amplitude_0.2167_rep_4_t_N_2.0.png	 N	 t	 b	 n.a.	 4.552713e-01
5	 6	 269	 flanked	 rf	 12	 0.216700	 2.000000	 flanked_rf_freq_12_amplitude_0.2167_rep_1_l_N_2.0.png	 N	 l	 l	 n.a.	 2.791877e-01
5	 6	 270	 flanked	 rf	 4	 0.007500	 2.000000	 flanked_rf_freq_4_amplitude_0.0075_rep_4_l_N_2.0.png	 N	 l	 t	 n.a.	 4.318742e-01
5	 6	 271	 flanked	 rf	 8	 0.113300	 2.000000	 flanked_rf_freq_8_amplitude_0.1133_rep_3_l_H_2.0.png	 H	 l	 l	 n.a.	 3.431232e-01
5	 6	 272	 flanked	 rf	 4	 0.061700	 2.000000	 flanked_rf_freq_4_amplitude_0.0617_rep_3_r_K_2.0.png	 K	 r	 r	 n.a.	 3.179317e-01
5	 6	 273	 flanked	 rf	 12	 0.061700	 2.000000	 flanked_rf_freq_12_amplitude_0.0617_rep_4_l_N_2.0.png	 N	 l	 l	 n.a.	 3.690752e-01
5	 6	 274	 flanked	 rf	 12	 0.216700	 2.000000	 flanked_rf_freq_12_amplitude_0.2167_rep_9_b_H_2.0.png	 H	 b	 b	 n.a.	 4.008461e-01
5	 6	 275	 flanked	 rf	 3	 0.010000	 2.000000	 flanked_rf_freq_3_amplitude_0.01_rep_7_t_H_2.0.png	 H	 t	 r	 n.a.	 4.504238e-01
5	 6	 276	 flanked	 rf	 12	 0.061700	 2.000000	 flanked_rf_freq_12_amplitude_0.0617_rep_3_t_N_2.0.png	 N	 t	 b	 n.a.	 4.399358e-01
5	 6	 277	 flanked	 rf	 4	 0.268300	 2.000000	 flanked_rf_freq_4_amplitude_0.2683_rep_0_t_K_2.0.png	 K	 t	 t	 n.a.	 4.088365e-01
5	 6	 278	 flanked	 rf	 12	 0.010000	 2.000000	 flanked_rf_freq_12_amplitude_0.01_rep_4_b_N_2.0.png	 N	 b	 r	 n.a.	 1.003358e+00
5	 6	 279	 flanked	 rf	 4	 0.010000	 2.000000	 flanked_rf_freq_4_amplitude_0.01_rep_3_t_K_2.0.png	 K	 t	 t	 n.a.	 1.069424e+00
5	 6	 280	 flanked	 rf	 8	 0.216700	 2.000000	 flanked_rf_freq_8_amplitude_0.2167_rep_7_b_K_2.0.png	 K	 b	 b	 n.a.	 3.139497e-01
5	 6	 281	 flanked	 rf	 2	 0.165000	 2.000000	 flanked_rf_freq_2_amplitude_0.165_rep_4_r_N_2.0.png	 N	 r	 r	 n.a.	 4.230363e-01
5	 6	 282	 flanked	 rf	 3	 0.061700	 2.000000	 flanked_rf_freq_3_amplitude_0.0617_rep_6_r_H_2.0.png	 H	 r	 r	 n.a.	 3.740689e-01
5	 6	 283	 flanked	 rf	 3	 0.216700	 2.000000	 flanked_rf_freq_3_amplitude_0.2167_rep_2_r_D_2.0.png	 D	 r	 r	 n.a.	 2.592584e-01
5	 6	 284	 flanked	 rf	 5	 0.061700	 2.000000	 flanked_rf_freq_5_amplitude_0.0617_rep_6_b_D_2.0.png	 D	 b	 r	 n.a.	 5.759377e-01
5	 6	 285	 flanked	 rf	 8	 0.061700	 2.000000	 flanked_rf_freq_8_amplitude_0.0617_rep_0_r_N_2.0.png	 N	 r	 b	 n.a.	 3.875463e-01
5	 6	 286	 flanked	 rf	 3	 0.165000	 2.000000	 flanked_rf_freq_3_amplitude_0.165_rep_4_r_K_2.0.png	 K	 r	 r	 n.a.	 2.957662e-01
5	 6	 287	 flanked	 rf	 5	 0.007500	 2.000000	 flanked_rf_freq_5_amplitude_0.0075_rep_8_t_N_2.0.png	 N	 t	 b	 n.a.	 4.857877e-01
5	 6	 288	 flanked	 rf	 3	 0.113300	 2.000000	 flanked_rf_freq_3_amplitude_0.1133_rep_3_t_N_2.0.png	 N	 t	 r	 n.a.	 7.872022e-01
5	 6	 289	 flanked	 rf	 5	 0.007500	 2.000000	 flanked_rf_freq_5_amplitude_0.0075_rep_4_b_D_2.0.png	 D	 b	 t	 n.a.	 8.062778e-01
5	 6	 290	 flanked	 rf	 5	 0.268300	 2.000000	 flanked_rf_freq_5_amplitude_0.2683_rep_1_b_H_2.0.png	 H	 b	 b	 n.a.	 4.507763e-01
5	 6	 291	 flanked	 rf	 2	 0.165000	 2.000000	 flanked_rf_freq_2_amplitude_0.165_rep_2_b_D_2.0.png	 D	 b	 l	 n.a.	 7.192253e-01
5	 6	 292	 flanked	 rf	 12	 0.165000	 2.000000	 flanked_rf_freq_12_amplitude_0.165_rep_9_b_H_2.0.png	 H	 b	 b	 n.a.	 3.695735e-01
5	 6	 293	 flanked	 rf	 3	 0.216700	 2.000000	 flanked_rf_freq_3_amplitude_0.2167_rep_0_l_D_2.0.png	 D	 l	 l	 n.a.	 3.650908e-01
5	 6	 294	 flanked	 rf	 12	 0.165000	 2.000000	 flanked_rf_freq_12_amplitude_0.165_rep_5_l_K_2.0.png	 K	 l	 l	 n.a.	 3.046903e-01
5	 6	 295	 flanked	 rf	 3	 0.113300	 2.000000	 flanked_rf_freq_3_amplitude_0.1133_rep_5_t_K_2.0.png	 K	 t	 t	 n.a.	 6.437581e-01
5	 6	 296	 flanked	 rf	 3	 0.010000	 2.000000	 flanked_rf_freq_3_amplitude_0.01_rep_6_b_H_2.0.png	 H	 b	 l	 n.a.	 5.558298e-01
5	 6	 297	 flanked	 rf	 4	 0.113300	 2.000000	 flanked_rf_freq_4_amplitude_0.1133_rep_0_b_D_2.0.png	 D	 b	 b	 n.a.	 5.143103e-01
5	 6	 298	 flanked	 rf	 8	 0.165000	 2.000000	 flanked_rf_freq_8_amplitude_0.165_rep_4_l_H_2.0.png	 H	 l	 l	 n.a.	 3.573103e-01
5	 6	 299	 flanked	 rf	 5	 0.268300	 2.000000	 flanked_rf_freq_5_amplitude_0.2683_rep_7_r_K_2.0.png	 K	 r	 r	 n.a.	 3.850631e-01
5	 6	 300	 flanked	 rf	 2	 0.165000	 2.000000	 flanked_rf_freq_2_amplitude_0.165_rep_3_b_K_2.0.png	 K	 b	 l	 n.a.	 7.746775e-01
5	 6	 301	 flanked	 rf	 2	 0.010000	 2.000000	 flanked_rf_freq_2_amplitude_0.01_rep_2_r_N_2.0.png	 N	 r	 r	 n.a.	 6.226485e-01
5	 6	 302	 flanked	 rf	 4	 0.216700	 2.000000	 flanked_rf_freq_4_amplitude_0.2167_rep_5_t_D_2.0.png	 D	 t	 t	 n.a.	 4.918531e-01
5	 6	 303	 flanked	 rf	 5	 0.061700	 2.000000	 flanked_rf_freq_5_amplitude_0.0617_rep_3_b_N_2.0.png	 N	 b	 t	 n.a.	 7.398506e-01
5	 6	 304	 flanked	 rf	 8	 0.010000	 2.000000	 flanked_rf_freq_8_amplitude_0.01_rep_3_t_K_2.0.png	 K	 t	 t	 n.a.	 7.686438e-01
5	 6	 305	 flanked	 rf	 12	 0.010000	 2.000000	 flanked_rf_freq_12_amplitude_0.01_rep_7_b_N_2.0.png	 N	 b	 t	 n.a.	 6.232795e-01
5	 6	 306	 flanked	 rf	 2	 0.268300	 2.000000	 flanked_rf_freq_2_amplitude_0.2683_rep_4_r_N_2.0.png	 N	 r	 r	 n.a.	 3.264815e-01
5	 6	 307	 flanked	 rf	 3	 0.216700	 2.000000	 flanked_rf_freq_3_amplitude_0.2167_rep_1_r_D_2.0.png	 D	 r	 r	 n.a.	 4.338131e-01
5	 6	 308	 flanked	 rf	 4	 0.113300	 2.000000	 flanked_rf_freq_4_amplitude_0.1133_rep_1_r_H_2.0.png	 H	 r	 t	 n.a.	 6.859614e-01
5	 6	 309	 flanked	 rf	 4	 0.165000	 2.000000	 flanked_rf_freq_4_amplitude_0.165_rep_1_l_N_2.0.png	 N	 l	 t	 n.a.	 4.940586e-01
5	 6	 310	 flanked	 rf	 3	 0.216700	 2.000000	 flanked_rf_freq_3_amplitude_0.2167_rep_3_t_N_2.0.png	 N	 t	 t	 n.a.	 9.015331e-01
5	 6	 311	 flanked	 rf	 8	 0.268300	 2.000000	 flanked_rf_freq_8_amplitude_0.2683_rep_4_b_H_2.0.png	 H	 b	 b	 n.a.	 3.682760e-01
5	 6	 312	 flanked	 rf	 3	 0.010000	 2.000000	 flanked_rf_freq_3_amplitude_0.01_rep_0_t_N_2.0.png	 N	 t	 b	 n.a.	 9.211511e-01
5	 6	 313	 flanked	 rf	 5	 0.165000	 2.000000	 flanked_rf_freq_5_amplitude_0.165_rep_1_r_N_2.0.png	 N	 r	 r	 n.a.	 3.272238e-01
5	 6	 314	 flanked	 rf	 8	 0.165000	 2.000000	 flanked_rf_freq_8_amplitude_0.165_rep_6_l_H_2.0.png	 H	 l	 l	 n.a.	 2.877265e-01
5	 6	 315	 flanked	 rf	 12	 0.268300	 2.000000	 flanked_rf_freq_12_amplitude_0.2683_rep_0_t_N_2.0.png	 N	 t	 t	 n.a.	 4.896502e-01
5	 6	 316	 flanked	 rf	 12	 0.268300	 2.000000	 flanked_rf_freq_12_amplitude_0.2683_rep_6_l_K_2.0.png	 K	 l	 l	 n.a.	 2.718882e-01
5	 6	 317	 flanked	 rf	 4	 0.061700	 2.000000	 flanked_rf_freq_4_amplitude_0.0617_rep_0_r_H_2.0.png	 H	 r	 b	 n.a.	 4.657559e-01
5	 6	 318	 flanked	 rf	 3	 0.061700	 2.000000	 flanked_rf_freq_3_amplitude_0.0617_rep_5_b_N_2.0.png	 N	 b	 b	 n.a.	 5.556759e-01
5	 6	 319	 flanked	 rf	 5	 0.216700	 2.000000	 flanked_rf_freq_5_amplitude_0.2167_rep_0_t_K_2.0.png	 K	 t	 t	 n.a.	 5.539651e-01
5	 6	 320	 flanked	 rf	 4	 0.165000	 2.000000	 flanked_rf_freq_4_amplitude_0.165_rep_9_b_D_2.0.png	 D	 b	 b	 n.a.	 5.062722e-01
5	 6	 321	 flanked	 rf	 12	 0.216700	 2.000000	 flanked_rf_freq_12_amplitude_0.2167_rep_4_l_N_2.0.png	 N	 l	 l	 n.a.	 3.501920e-01
5	 6	 322	 flanked	 rf	 12	 0.268300	 2.000000	 flanked_rf_freq_12_amplitude_0.2683_rep_5_b_K_2.0.png	 K	 b	 b	 n.a.	 2.798211e-01
5	 6	 323	 flanked	 rf	 5	 0.268300	 2.000000	 flanked_rf_freq_5_amplitude_0.2683_rep_9_t_H_2.0.png	 H	 t	 t	 n.a.	 8.660455e-01
5	 6	 324	 flanked	 rf	 5	 0.113300	 2.000000	 flanked_rf_freq_5_amplitude_0.1133_rep_3_l_H_2.0.png	 H	 l	 b	 n.a.	 4.863467e-01
5	 6	 325	 flanked	 rf	 3	 0.061700	 2.000000	 flanked_rf_freq_3_amplitude_0.0617_rep_2_t_K_2.0.png	 K	 t	 t	 n.a.	 7.710129e-01
5	 6	 326	 flanked	 rf	 12	 0.010000	 2.000000	 flanked_rf_freq_12_amplitude_0.01_rep_1_l_D_2.0.png	 D	 l	 r	 n.a.	 6.663528e-01
5	 6	 327	 flanked	 rf	 3	 0.061700	 2.000000	 flanked_rf_freq_3_amplitude_0.0617_rep_3_b_H_2.0.png	 H	 b	 r	 n.a.	 7.943276e-01
5	 6	 328	 flanked	 rf	 2	 0.165000	 2.000000	 flanked_rf_freq_2_amplitude_0.165_rep_0_t_N_2.0.png	 N	 t	 t	 n.a.	 6.510970e-01
5	 6	 329	 flanked	 rf	 5	 0.216700	 2.000000	 flanked_rf_freq_5_amplitude_0.2167_rep_3_r_N_2.0.png	 N	 r	 r	 n.a.	 3.293261e-01
5	 6	 330	 flanked	 rf	 2	 0.165000	 2.000000	 flanked_rf_freq_2_amplitude_0.165_rep_7_b_H_2.0.png	 H	 b	 l	 n.a.	 1.082089e+00
5	 6	 331	 flanked	 rf	 8	 0.268300	 2.000000	 flanked_rf_freq_8_amplitude_0.2683_rep_6_l_N_2.0.png	 N	 l	 l	 n.a.	 2.838680e-01
5	 6	 332	 flanked	 rf	 5	 0.113300	 2.000000	 flanked_rf_freq_5_amplitude_0.1133_rep_6_l_D_2.0.png	 D	 l	 l	 n.a.	 5.671726e-01
5	 6	 333	 flanked	 rf	 8	 0.113300	 2.000000	 flanked_rf_freq_8_amplitude_0.1133_rep_6_t_H_2.0.png	 H	 t	 t	 n.a.	 6.485958e-01
5	 6	 334	 flanked	 rf	 2	 0.010000	 2.000000	 flanked_rf_freq_2_amplitude_0.01_rep_4_b_K_2.0.png	 K	 b	 b	 n.a.	 3.890781e-01
5	 6	 335	 flanked	 rf	 4	 0.165000	 2.000000	 flanked_rf_freq_4_amplitude_0.165_rep_6_r_K_2.0.png	 K	 r	 r	 n.a.	 4.718567e-01
5	 6	 336	 flanked	 rf	 5	 0.061700	 2.000000	 flanked_rf_freq_5_amplitude_0.0617_rep_0_b_H_2.0.png	 H	 b	 b	 n.a.	 5.174352e-01
5	 6	 337	 flanked	 rf	 4	 0.007500	 2.000000	 flanked_rf_freq_4_amplitude_0.0075_rep_7_l_H_2.0.png	 H	 l	 r	 n.a.	 6.165288e-01
5	 6	 338	 flanked	 rf	 8	 0.010000	 2.000000	 flanked_rf_freq_8_amplitude_0.01_rep_5_b_N_2.0.png	 N	 b	 r	 n.a.	 5.045606e-01
5	 6	 339	 flanked	 rf	 5	 0.113300	 2.000000	 flanked_rf_freq_5_amplitude_0.1133_rep_9_r_N_2.0.png	 N	 r	 r	 n.a.	 3.695135e-01
5	 6	 340	 flanked	 rf	 12	 0.061700	 2.000000	 flanked_rf_freq_12_amplitude_0.0617_rep_6_t_N_2.0.png	 N	 t	 t	 n.a.	 3.910751e-01
5	 6	 341	 flanked	 rf	 5	 0.010000	 2.000000	 flanked_rf_freq_5_amplitude_0.01_rep_7_r_H_2.0.png	 H	 r	 r	 n.a.	 7.901372e-01
5	 6	 342	 flanked	 rf	 12	 0.268300	 2.000000	 flanked_rf_freq_12_amplitude_0.2683_rep_1_b_H_2.0.png	 H	 b	 b	 n.a.	 3.432655e-01
5	 6	 343	 flanked	 rf	 5	 0.165000	 2.000000	 flanked_rf_freq_5_amplitude_0.165_rep_3_b_D_2.0.png	 D	 b	 t	 n.a.	 4.605439e-01
5	 6	 344	 flanked	 rf	 4	 0.113300	 2.000000	 flanked_rf_freq_4_amplitude_0.1133_rep_4_t_H_2.0.png	 H	 t	 r	 n.a.	 4.853040e-01
5	 6	 345	 flanked	 rf	 8	 0.113300	 2.000000	 flanked_rf_freq_8_amplitude_0.1133_rep_8_r_K_2.0.png	 K	 r	 r	 n.a.	 3.161166e-01
5	 6	 346	 flanked	 rf	 3	 0.007500	 2.000000	 flanked_rf_freq_3_amplitude_0.0075_rep_9_b_K_2.0.png	 K	 b	 b	 n.a.	 4.219010e-01
5	 6	 347	 flanked	 rf	 12	 0.216700	 2.000000	 flanked_rf_freq_12_amplitude_0.2167_rep_8_t_N_2.0.png	 N	 t	 t	 n.a.	 5.156464e-01
5	 6	 348	 flanked	 rf	 5	 0.007500	 2.000000	 flanked_rf_freq_5_amplitude_0.0075_rep_3_r_N_2.0.png	 N	 r	 r	 n.a.	 9.471668e-01
5	 6	 349	 flanked	 rf	 4	 0.268300	 2.000000	 flanked_rf_freq_4_amplitude_0.2683_rep_9_b_D_2.0.png	 D	 b	 t	 n.a.	 6.831818e-01
5	 6	 350	 flanked	 rf	 4	 0.165000	 2.000000	 flanked_rf_freq_4_amplitude_0.165_rep_4_l_H_2.0.png	 H	 l	 r	 n.a.	 3.330933e-01
5	 6	 351	 flanked	 rf	 12	 0.268300	 2.000000	 flanked_rf_freq_12_amplitude_0.2683_rep_7_l_H_2.0.png	 H	 l	 l	 n.a.	 2.730929e-01
5	 6	 352	 flanked	 rf	 4	 0.010000	 2.000000	 flanked_rf_freq_4_amplitude_0.01_rep_5_l_H_2.0.png	 H	 l	 r	 n.a.	 5.267584e-01
5	 6	 353	 flanked	 rf	 3	 0.165000	 2.000000	 flanked_rf_freq_3_amplitude_0.165_rep_5_r_H_2.0.png	 H	 r	 r	 n.a.	 3.533106e-01
5	 6	 354	 flanked	 rf	 4	 0.268300	 2.000000	 flanked_rf_freq_4_amplitude_0.2683_rep_3_l_N_2.0.png	 N	 l	 l	 n.a.	 2.631643e-01
5	 6	 355	 flanked	 rf	 12	 0.007500	 2.000000	 flanked_rf_freq_12_amplitude_0.0075_rep_4_r_K_2.0.png	 K	 r	 r	 n.a.	 4.914705e-01
5	 6	 356	 flanked	 rf	 8	 0.113300	 2.000000	 flanked_rf_freq_8_amplitude_0.1133_rep_2_r_N_2.0.png	 N	 r	 r	 n.a.	 6.219812e-01
5	 6	 357	 flanked	 rf	 4	 0.010000	 2.000000	 flanked_rf_freq_4_amplitude_0.01_rep_7_l_K_2.0.png	 K	 l	 b	 n.a.	 3.466288e-01
5	 6	 358	 flanked	 rf	 4	 0.216700	 2.000000	 flanked_rf_freq_4_amplitude_0.2167_rep_8_b_H_2.0.png	 H	 b	 b	 n.a.	 6.927440e-01
5	 6	 359	 flanked	 rf	 2	 0.216700	 2.000000	 flanked_rf_freq_2_amplitude_0.2167_rep_9_t_N_2.0.png	 N	 t	 r	 n.a.	 5.128057e-01
5	 6	 360	 flanked	 rf	 5	 0.216700	 2.000000	 flanked_rf_freq_5_amplitude_0.2167_rep_9_b_D_2.0.png	 D	 b	 b	 n.a.	 3.402535e-01
5	 6	 361	 flanked	 rf	 2	 0.216700	 2.000000	 flanked_rf_freq_2_amplitude_0.2167_rep_1_r_K_2.0.png	 K	 r	 r	 n.a.	 5.359330e-01
5	 6	 362	 flanked	 rf	 12	 0.165000	 2.000000	 flanked_rf_freq_12_amplitude_0.165_rep_3_l_N_2.0.png	 N	 l	 l	 n.a.	 3.348157e-01
5	 6	 363	 flanked	 rf	 12	 0.007500	 2.000000	 flanked_rf_freq_12_amplitude_0.0075_rep_5_l_D_2.0.png	 D	 l	 t	 n.a.	 4.284326e-01
5	 6	 364	 flanked	 rf	 4	 0.061700	 2.000000	 flanked_rf_freq_4_amplitude_0.0617_rep_8_l_D_2.0.png	 D	 l	 t	 n.a.	 9.389821e-01
5	 6	 365	 flanked	 rf	 4	 0.165000	 2.000000	 flanked_rf_freq_4_amplitude_0.165_rep_5_b_K_2.0.png	 K	 b	 b	 n.a.	 4.476575e-01
5	 6	 366	 flanked	 rf	 5	 0.061700	 2.000000	 flanked_rf_freq_5_amplitude_0.0617_rep_4_l_D_2.0.png	 D	 l	 b	 n.a.	 8.009182e-01
5	 6	 367	 flanked	 rf	 8	 0.113300	 2.000000	 flanked_rf_freq_8_amplitude_0.1133_rep_5_b_H_2.0.png	 H	 b	 r	 n.a.	 7.428044e-01
5	 6	 368	 flanked	 rf	 8	 0.061700	 2.000000	 flanked_rf_freq_8_amplitude_0.0617_rep_6_b_N_2.0.png	 N	 b	 b	 n.a.	 5.345308e-01
5	 6	 369	 flanked	 rf	 12	 0.113300	 2.000000	 flanked_rf_freq_12_amplitude_0.1133_rep_5_r_D_2.0.png	 D	 r	 r	 n.a.	 3.449685e-01
5	 6	 370	 flanked	 rf	 12	 0.061700	 2.000000	 flanked_rf_freq_12_amplitude_0.0617_rep_0_b_D_2.0.png	 D	 b	 t	 n.a.	 5.193701e-01
5	 6	 371	 flanked	 rf	 2	 0.216700	 2.000000	 flanked_rf_freq_2_amplitude_0.2167_rep_0_t_N_2.0.png	 N	 t	 t	 n.a.	 4.917211e-01
5	 6	 372	 flanked	 rf	 8	 0.113300	 2.000000	 flanked_rf_freq_8_amplitude_0.1133_rep_9_r_H_2.0.png	 H	 r	 r	 n.a.	 3.705192e-01
5	 6	 373	 flanked	 rf	 12	 0.216700	 2.000000	 flanked_rf_freq_12_amplitude_0.2167_rep_2_b_N_2.0.png	 N	 b	 b	 n.a.	 3.878177e-01
5	 6	 374	 flanked	 rf	 2	 0.061700	 2.000000	 flanked_rf_freq_2_amplitude_0.0617_rep_6_t_H_2.0.png	 H	 t	 t	 n.a.	 6.664838e-01
5	 6	 375	 flanked	 rf	 8	 0.007500	 2.000000	 flanked_rf_freq_8_amplitude_0.0075_rep_9_b_H_2.0.png	 H	 b	 t	 n.a.	 7.139669e-01
5	 6	 376	 flanked	 rf	 8	 0.165000	 2.000000	 flanked_rf_freq_8_amplitude_0.165_rep_3_l_K_2.0.png	 K	 l	 l	 n.a.	 3.237359e-01
5	 6	 377	 flanked	 rf	 2	 0.268300	 2.000000	 flanked_rf_freq_2_amplitude_0.2683_rep_1_r_H_2.0.png	 H	 r	 r	 n.a.	 3.173564e-01
5	 6	 378	 flanked	 rf	 3	 0.165000	 2.000000	 flanked_rf_freq_3_amplitude_0.165_rep_1_l_N_2.0.png	 N	 l	 b	 n.a.	 6.829905e-01
5	 6	 379	 flanked	 rf	 5	 0.010000	 2.000000	 flanked_rf_freq_5_amplitude_0.01_rep_3_t_D_2.0.png	 D	 t	 r	 n.a.	 7.142686e-01
5	 6	 380	 flanked	 rf	 2	 0.216700	 2.000000	 flanked_rf_freq_2_amplitude_0.2167_rep_6_l_K_2.0.png	 K	 l	 l	 n.a.	 7.894224e-01
5	 6	 381	 flanked	 rf	 12	 0.216700	 2.000000	 flanked_rf_freq_12_amplitude_0.2167_rep_0_t_K_2.0.png	 K	 t	 t	 n.a.	 4.081540e-01
5	 6	 382	 flanked	 rf	 5	 0.165000	 2.000000	 flanked_rf_freq_5_amplitude_0.165_rep_7_b_N_2.0.png	 N	 b	 r	 n.a.	 6.379632e-01
5	 6	 383	 flanked	 rf	 2	 0.216700	 2.000000	 flanked_rf_freq_2_amplitude_0.2167_rep_5_l_H_2.0.png	 H	 l	 l	 n.a.	 8.014982e-01
5	 6	 384	 flanked	 rf	 4	 0.061700	 2.000000	 flanked_rf_freq_4_amplitude_0.0617_rep_9_t_N_2.0.png	 N	 t	 b	 n.a.	 7.064025e-01
5	 6	 385	 flanked	 rf	 4	 0.216700	 2.000000	 flanked_rf_freq_4_amplitude_0.2167_rep_9_l_H_2.0.png	 H	 l	 l	 n.a.	 3.391090e-01
5	 6	 386	 flanked	 rf	 8	 0.216700	 2.000000	 flanked_rf_freq_8_amplitude_0.2167_rep_6_r_K_2.0.png	 K	 r	 r	 n.a.	 2.726722e-01
5	 6	 387	 flanked	 rf	 12	 0.010000	 2.000000	 flanked_rf_freq_12_amplitude_0.01_rep_5_t_H_2.0.png	 H	 t	 t	 n.a.	 6.242346e-01
5	 6	 388	 flanked	 rf	 3	 0.268300	 2.000000	 flanked_rf_freq_3_amplitude_0.2683_rep_5_b_K_2.0.png	 K	 b	 b	 n.a.	 4.318417e-01
5	 6	 389	 flanked	 rf	 5	 0.268300	 2.000000	 flanked_rf_freq_5_amplitude_0.2683_rep_3_l_K_2.0.png	 K	 l	 l	 n.a.	 3.041875e-01
5	 6	 390	 flanked	 rf	 3	 0.007500	 2.000000	 flanked_rf_freq_3_amplitude_0.0075_rep_8_t_H_2.0.png	 H	 t	 b	 n.a.	 4.369770e-01
5	 6	 391	 flanked	 rf	 2	 0.061700	 2.000000	 flanked_rf_freq_2_amplitude_0.0617_rep_7_l_N_2.0.png	 N	 l	 t	 n.a.	 6.221802e-01
5	 6	 392	 flanked	 rf	 3	 0.165000	 2.000000	 flanked_rf_freq_3_amplitude_0.165_rep_0_t_H_2.0.png	 H	 t	 l	 n.a.	 9.039362e-01
5	 6	 393	 flanked	 rf	 5	 0.216700	 2.000000	 flanked_rf_freq_5_amplitude_0.2167_rep_2_r_K_2.0.png	 K	 r	 r	 n.a.	 2.959918e-01
5	 6	 394	 flanked	 rf	 4	 0.268300	 2.000000	 flanked_rf_freq_4_amplitude_0.2683_rep_5_r_K_2.0.png	 K	 r	 r	 n.a.	 3.072527e-01
5	 6	 395	 flanked	 rf	 12	 0.268300	 2.000000	 flanked_rf_freq_12_amplitude_0.2683_rep_3_l_K_2.0.png	 K	 l	 l	 n.a.	 2.943467e-01
5	 6	 396	 flanked	 rf	 8	 0.165000	 2.000000	 flanked_rf_freq_8_amplitude_0.165_rep_7_t_D_2.0.png	 D	 t	 t	 n.a.	 4.613114e-01
5	 6	 397	 flanked	 rf	 2	 0.113300	 2.000000	 flanked_rf_freq_2_amplitude_0.1133_rep_7_r_N_2.0.png	 N	 r	 r	 n.a.	 8.025809e-01
5	 6	 398	 flanked	 rf	 12	 0.165000	 2.000000	 flanked_rf_freq_12_amplitude_0.165_rep_0_l_H_2.0.png	 H	 l	 l	 n.a.	 3.034927e-01
5	 6	 399	 flanked	 rf	 3	 0.007500	 2.000000	 flanked_rf_freq_3_amplitude_0.0075_rep_7_r_D_2.0.png	 D	 r	 t	 n.a.	 5.874189e-01
5	 6	 400	 flanked	 rf	 4	 0.061700	 2.000000	 flanked_rf_freq_4_amplitude_0.0617_rep_2_t_N_2.0.png	 N	 t	 b	 n.a.	 4.115072e-01
5	 6	 401	 flanked	 rf	 2	 0.113300	 2.000000	 flanked_rf_freq_2_amplitude_0.1133_rep_9_l_H_2.0.png	 H	 l	 t	 n.a.	 4.502459e-01
5	 6	 402	 flanked	 rf	 3	 0.268300	 2.000000	 flanked_rf_freq_3_amplitude_0.2683_rep_1_r_N_2.0.png	 N	 r	 r	 n.a.	 2.911471e-01
5	 6	 403	 flanked	 rf	 5	 0.268300	 2.000000	 flanked_rf_freq_5_amplitude_0.2683_rep_0_b_N_2.0.png	 N	 b	 b	 n.a.	 4.156862e-01
5	 6	 404	 flanked	 rf	 8	 0.007500	 2.000000	 flanked_rf_freq_8_amplitude_0.0075_rep_1_b_N_2.0.png	 N	 b	 t	 n.a.	 5.436087e-01
5	 6	 405	 flanked	 rf	 12	 0.007500	 2.000000	 flanked_rf_freq_12_amplitude_0.0075_rep_6_b_H_2.0.png	 H	 b	 b	 n.a.	 8.831613e-01
5	 6	 406	 flanked	 rf	 8	 0.007500	 2.000000	 flanked_rf_freq_8_amplitude_0.0075_rep_3_r_K_2.0.png	 K	 r	 r	 n.a.	 1.092645e+00
5	 6	 407	 flanked	 rf	 8	 0.113300	 2.000000	 flanked_rf_freq_8_amplitude_0.1133_rep_0_l_D_2.0.png	 D	 l	 l	 n.a.	 3.663464e-01
5	 6	 408	 flanked	 rf	 4	 0.010000	 2.000000	 flanked_rf_freq_4_amplitude_0.01_rep_6_r_H_2.0.png	 H	 r	 b	 n.a.	 4.449669e-01
5	 6	 409	 flanked	 rf	 3	 0.165000	 2.000000	 flanked_rf_freq_3_amplitude_0.165_rep_6_l_D_2.0.png	 D	 l	 l	 n.a.	 3.943363e-01
5	 6	 410	 flanked	 rf	 4	 0.216700	 2.000000	 flanked_rf_freq_4_amplitude_0.2167_rep_4_r_D_2.0.png	 D	 r	 r	 n.a.	 3.621578e-01
5	 6	 411	 flanked	 rf	 5	 0.061700	 2.000000	 flanked_rf_freq_5_amplitude_0.0617_rep_7_t_D_2.0.png	 D	 t	 r	 n.a.	 4.263143e-01
5	 6	 412	 flanked	 rf	 12	 0.165000	 2.000000	 flanked_rf_freq_12_amplitude_0.165_rep_6_l_H_2.0.png	 H	 l	 l	 n.a.	 2.524991e-01
5	 6	 413	 flanked	 rf	 3	 0.216700	 2.000000	 flanked_rf_freq_3_amplitude_0.2167_rep_8_t_K_2.0.png	 K	 t	 t	 n.a.	 5.812649e-01
5	 6	 414	 flanked	 rf	 12	 0.061700	 2.000000	 flanked_rf_freq_12_amplitude_0.0617_rep_8_t_H_2.0.png	 H	 t	 r	 n.a.	 5.467351e-01
5	 6	 415	 flanked	 rf	 4	 0.113300	 2.000000	 flanked_rf_freq_4_amplitude_0.1133_rep_6_l_D_2.0.png	 D	 l	 r	 n.a.	 3.724601e-01
5	 6	 416	 flanked	 rf	 5	 0.113300	 2.000000	 flanked_rf_freq_5_amplitude_0.1133_rep_8_l_D_2.0.png	 D	 l	 l	 n.a.	 3.516437e-01
5	 6	 417	 flanked	 rf	 5	 0.216700	 2.000000	 flanked_rf_freq_5_amplitude_0.2167_rep_8_b_N_2.0.png	 N	 b	 b	 n.a.	 4.842768e-01
5	 6	 418	 flanked	 rf	 5	 0.113300	 2.000000	 flanked_rf_freq_5_amplitude_0.1133_rep_4_l_K_2.0.png	 K	 l	 b	 n.a.	 6.240794e-01
5	 6	 419	 flanked	 rf	 8	 0.007500	 2.000000	 flanked_rf_freq_8_amplitude_0.0075_rep_0_r_D_2.0.png	 D	 r	 b	 n.a.	 3.390058e-01
5	 6	 420	 flanked	 rf	 12	 0.061700	 2.000000	 flanked_rf_freq_12_amplitude_0.0617_rep_7_b_N_2.0.png	 N	 b	 r	 n.a.	 8.474930e-01
