subject	 session	 trial	 flanked	 distortion	 freq	 amplitude	 spacing	 im_name	 targ_letter	 targ_pos	 response	 eyemovement	 RT
2	 2	 1	 flanked	 bex	 4	 3.000000	 2.000000	 flanked_bex_freq_4_amplitude_3_rep_3_r_D_2.0.png	 D	 r	 t	 n.a.	 6.835983e-01
2	 2	 2	 flanked	 bex	 2	 3.000000	 2.000000	 flanked_bex_freq_2_amplitude_3_rep_8_b_D_2.0.png	 D	 b	 b	 n.a.	 3.135365e-01
2	 2	 3	 flanked	 bex	 32	 1.500000	 2.000000	 flanked_bex_freq_32_amplitude_1.5_rep_7_t_H_2.0.png	 H	 t	 l	 n.a.	 3.163388e-01
2	 2	 4	 flanked	 bex	 2	 3.000000	 2.000000	 flanked_bex_freq_2_amplitude_3_rep_6_b_N_2.0.png	 N	 b	 r	 n.a.	 2.061778e-01
2	 2	 5	 flanked	 bex	 2	 0.500000	 2.000000	 flanked_bex_freq_2_amplitude_0.5_rep_4_b_H_2.0.png	 H	 b	 b	 n.a.	 5.428402e-01
2	 2	 6	 flanked	 bex	 4	 1.000000	 2.000000	 flanked_bex_freq_4_amplitude_1_rep_0_b_D_2.0.png	 D	 b	 l	 n.a.	 5.666427e-01
2	 2	 7	 flanked	 bex	 32	 2.000000	 2.000000	 flanked_bex_freq_32_amplitude_2_rep_2_b_N_2.0.png	 N	 b	 t	 n.a.	 4.797630e-01
2	 2	 8	 flanked	 bex	 32	 1.500000	 2.000000	 flanked_bex_freq_32_amplitude_1.5_rep_4_b_H_2.0.png	 H	 b	 l	 n.a.	 4.201273e-01
2	 2	 9	 flanked	 bex	 6	 0.500000	 2.000000	 flanked_bex_freq_6_amplitude_0.5_rep_6_r_K_2.0.png	 K	 r	 r	 n.a.	 3.302480e-01
2	 2	 10	 flanked	 bex	 6	 2.500000	 2.000000	 flanked_bex_freq_6_amplitude_2.5_rep_4_t_K_2.0.png	 K	 t	 l	 n.a.	 6.271973e-01
2	 2	 11	 flanked	 bex	 16	 3.000000	 2.000000	 flanked_bex_freq_16_amplitude_3_rep_3_r_N_2.0.png	 N	 r	 t	 n.a.	 6.480483e-01
2	 2	 12	 flanked	 bex	 6	 1.000000	 2.000000	 flanked_bex_freq_6_amplitude_1_rep_2_l_H_2.0.png	 H	 l	 b	 n.a.	 4.468413e-01
2	 2	 13	 flanked	 bex	 4	 0.500000	 2.000000	 flanked_bex_freq_4_amplitude_0.5_rep_5_r_K_2.0.png	 K	 r	 l	 n.a.	 1.886820e-01
2	 2	 14	 flanked	 bex	 32	 1.500000	 2.000000	 flanked_bex_freq_32_amplitude_1.5_rep_8_l_D_2.0.png	 D	 l	 b	 n.a.	 4.561269e-01
2	 2	 15	 flanked	 bex	 8	 3.000000	 2.000000	 flanked_bex_freq_8_amplitude_3_rep_4_r_D_2.0.png	 D	 r	 r	 n.a.	 3.025952e-01
2	 2	 16	 flanked	 bex	 4	 2.000000	 2.000000	 flanked_bex_freq_4_amplitude_2_rep_1_t_D_2.0.png	 D	 t	 l	 n.a.	 5.127416e-01
2	 2	 17	 flanked	 bex	 16	 1.500000	 2.000000	 flanked_bex_freq_16_amplitude_1.5_rep_0_b_K_2.0.png	 K	 b	 t	 n.a.	 4.879296e-01
2	 2	 18	 flanked	 bex	 4	 2.500000	 2.000000	 flanked_bex_freq_4_amplitude_2.5_rep_0_t_K_2.0.png	 K	 t	 b	 n.a.	 3.892429e-01
2	 2	 19	 flanked	 bex	 32	 2.000000	 2.000000	 flanked_bex_freq_32_amplitude_2_rep_8_l_N_2.0.png	 N	 l	 l	 n.a.	 6.892913e-01
2	 2	 20	 flanked	 bex	 32	 2.000000	 2.000000	 flanked_bex_freq_32_amplitude_2_rep_9_l_N_2.0.png	 N	 l	 t	 n.a.	 7.562512e-01
2	 2	 21	 flanked	 bex	 16	 2.500000	 2.000000	 flanked_bex_freq_16_amplitude_2.5_rep_4_t_H_2.0.png	 H	 t	 b	 n.a.	 3.406214e-01
2	 2	 22	 flanked	 bex	 8	 3.000000	 2.000000	 flanked_bex_freq_8_amplitude_3_rep_5_t_H_2.0.png	 H	 t	 l	 n.a.	 6.275251e-01
2	 2	 23	 flanked	 bex	 6	 1.000000	 2.000000	 flanked_bex_freq_6_amplitude_1_rep_6_b_K_2.0.png	 K	 b	 b	 n.a.	 3.925601e-01
2	 2	 24	 flanked	 bex	 6	 1.500000	 2.000000	 flanked_bex_freq_6_amplitude_1.5_rep_6_b_N_2.0.png	 N	 b	 b	 n.a.	 4.066983e-01
2	 2	 25	 flanked	 bex	 8	 0.500000	 2.000000	 flanked_bex_freq_8_amplitude_0.5_rep_9_t_D_2.0.png	 D	 t	 l	 n.a.	 5.482529e-01
2	 2	 26	 flanked	 bex	 8	 2.000000	 2.000000	 flanked_bex_freq_8_amplitude_2_rep_5_t_D_2.0.png	 D	 t	 l	 n.a.	 5.651524e-01
2	 2	 27	 flanked	 bex	 6	 3.000000	 2.000000	 flanked_bex_freq_6_amplitude_3_rep_0_b_K_2.0.png	 K	 b	 b	 n.a.	 3.754045e-01
2	 2	 28	 flanked	 bex	 4	 0.500000	 2.000000	 flanked_bex_freq_4_amplitude_0.5_rep_2_r_N_2.0.png	 N	 r	 t	 n.a.	 5.985519e-01
2	 2	 29	 flanked	 bex	 32	 1.500000	 2.000000	 flanked_bex_freq_32_amplitude_1.5_rep_0_b_H_2.0.png	 H	 b	 l	 n.a.	 5.374968e-01
2	 2	 30	 flanked	 bex	 16	 1.000000	 2.000000	 flanked_bex_freq_16_amplitude_1_rep_4_r_H_2.0.png	 H	 r	 b	 n.a.	 5.924766e-01
2	 2	 31	 flanked	 bex	 2	 3.000000	 2.000000	 flanked_bex_freq_2_amplitude_3_rep_4_r_D_2.0.png	 D	 r	 r	 n.a.	 2.902927e-01
2	 2	 32	 flanked	 bex	 8	 5.000000	 2.000000	 flanked_bex_freq_8_amplitude_5_rep_7_b_H_2.0.png	 H	 b	 b	 n.a.	 2.912751e-01
2	 2	 33	 flanked	 bex	 2	 1.000000	 2.000000	 flanked_bex_freq_2_amplitude_1_rep_5_r_N_2.0.png	 N	 r	 l	 n.a.	 4.949337e-01
2	 2	 34	 flanked	 bex	 2	 2.500000	 2.000000	 flanked_bex_freq_2_amplitude_2.5_rep_4_b_N_2.0.png	 N	 b	 l	 n.a.	 5.301948e-01
2	 2	 35	 flanked	 bex	 8	 2.000000	 2.000000	 flanked_bex_freq_8_amplitude_2_rep_1_l_K_2.0.png	 K	 l	 l	 n.a.	 3.808927e-01
2	 2	 36	 flanked	 bex	 8	 0.500000	 2.000000	 flanked_bex_freq_8_amplitude_0.5_rep_6_t_N_2.0.png	 N	 t	 r	 n.a.	 8.135216e-01
2	 2	 37	 flanked	 bex	 6	 5.000000	 2.000000	 flanked_bex_freq_6_amplitude_5_rep_5_t_K_2.0.png	 K	 t	 t	 n.a.	 4.885191e-01
2	 2	 38	 flanked	 bex	 32	 2.500000	 2.000000	 flanked_bex_freq_32_amplitude_2.5_rep_0_l_D_2.0.png	 D	 l	 b	 n.a.	 3.373052e-01
2	 2	 39	 flanked	 bex	 6	 2.500000	 2.000000	 flanked_bex_freq_6_amplitude_2.5_rep_2_r_D_2.0.png	 D	 r	 r	 n.a.	 3.084946e-01
2	 2	 40	 flanked	 bex	 4	 5.000000	 2.000000	 flanked_bex_freq_4_amplitude_5_rep_9_r_N_2.0.png	 N	 r	 r	 n.a.	 3.044884e-01
2	 2	 41	 flanked	 bex	 32	 1.500000	 2.000000	 flanked_bex_freq_32_amplitude_1.5_rep_2_l_K_2.0.png	 K	 l	 b	 n.a.	 4.183182e-01
2	 2	 42	 flanked	 bex	 2	 1.000000	 2.000000	 flanked_bex_freq_2_amplitude_1_rep_1_b_D_2.0.png	 D	 b	 l	 n.a.	 2.972475e-01
2	 2	 43	 flanked	 bex	 2	 0.500000	 2.000000	 flanked_bex_freq_2_amplitude_0.5_rep_0_b_H_2.0.png	 H	 b	 t	 n.a.	 4.575224e-01
2	 2	 44	 flanked	 bex	 8	 1.500000	 2.000000	 flanked_bex_freq_8_amplitude_1.5_rep_0_r_H_2.0.png	 H	 r	 r	 n.a.	 4.013274e-01
2	 2	 45	 flanked	 bex	 8	 1.000000	 2.000000	 flanked_bex_freq_8_amplitude_1_rep_9_b_D_2.0.png	 D	 b	 b	 n.a.	 5.333377e-01
2	 2	 46	 flanked	 bex	 2	 2.000000	 2.000000	 flanked_bex_freq_2_amplitude_2_rep_4_b_N_2.0.png	 N	 b	 l	 n.a.	 4.579232e-01
2	 2	 47	 flanked	 bex	 16	 2.500000	 2.000000	 flanked_bex_freq_16_amplitude_2.5_rep_3_l_N_2.0.png	 N	 l	 t	 n.a.	 5.128145e-01
2	 2	 48	 flanked	 bex	 6	 1.500000	 2.000000	 flanked_bex_freq_6_amplitude_1.5_rep_5_b_K_2.0.png	 K	 b	 b	 n.a.	 7.427323e-01
2	 2	 49	 flanked	 bex	 2	 2.500000	 2.000000	 flanked_bex_freq_2_amplitude_2.5_rep_9_r_N_2.0.png	 N	 r	 b	 n.a.	 9.249779e-01
2	 2	 50	 flanked	 bex	 4	 5.000000	 2.000000	 flanked_bex_freq_4_amplitude_5_rep_6_b_N_2.0.png	 N	 b	 b	 n.a.	 4.359563e-01
2	 2	 51	 flanked	 bex	 32	 5.000000	 2.000000	 flanked_bex_freq_32_amplitude_5_rep_8_l_K_2.0.png	 K	 l	 l	 n.a.	 3.584499e-01
2	 2	 52	 flanked	 bex	 32	 2.000000	 2.000000	 flanked_bex_freq_32_amplitude_2_rep_1_b_H_2.0.png	 H	 b	 t	 n.a.	 7.614476e-01
2	 2	 53	 flanked	 bex	 6	 2.500000	 2.000000	 flanked_bex_freq_6_amplitude_2.5_rep_0_r_N_2.0.png	 N	 r	 r	 n.a.	 3.665111e-01
2	 2	 54	 flanked	 bex	 8	 2.500000	 2.000000	 flanked_bex_freq_8_amplitude_2.5_rep_6_t_H_2.0.png	 H	 t	 b	 n.a.	 3.651642e-01
2	 2	 55	 flanked	 bex	 2	 5.000000	 2.000000	 flanked_bex_freq_2_amplitude_5_rep_3_l_H_2.0.png	 H	 l	 l	 n.a.	 4.190534e-01
2	 2	 56	 flanked	 bex	 2	 2.500000	 2.000000	 flanked_bex_freq_2_amplitude_2.5_rep_2_l_K_2.0.png	 K	 l	 l	 n.a.	 5.600194e-01
2	 2	 57	 flanked	 bex	 2	 5.000000	 2.000000	 flanked_bex_freq_2_amplitude_5_rep_0_t_N_2.0.png	 N	 t	 t	 n.a.	 7.543359e-01
2	 2	 58	 flanked	 bex	 16	 3.000000	 2.000000	 flanked_bex_freq_16_amplitude_3_rep_5_r_K_2.0.png	 K	 r	 r	 n.a.	 3.252289e-01
2	 2	 59	 flanked	 bex	 2	 0.500000	 2.000000	 flanked_bex_freq_2_amplitude_0.5_rep_2_b_K_2.0.png	 K	 b	 b	 n.a.	 3.155518e-01
2	 2	 60	 flanked	 bex	 8	 3.000000	 2.000000	 flanked_bex_freq_8_amplitude_3_rep_0_b_K_2.0.png	 K	 b	 b	 n.a.	 3.385351e-01
2	 2	 61	 flanked	 bex	 6	 0.500000	 2.000000	 flanked_bex_freq_6_amplitude_0.5_rep_0_r_N_2.0.png	 N	 r	 t	 n.a.	 5.700421e-01
2	 2	 62	 flanked	 bex	 6	 2.000000	 2.000000	 flanked_bex_freq_6_amplitude_2_rep_7_t_N_2.0.png	 N	 t	 l	 n.a.	 3.855421e-01
2	 2	 63	 flanked	 bex	 4	 2.500000	 2.000000	 flanked_bex_freq_4_amplitude_2.5_rep_5_r_H_2.0.png	 H	 r	 r	 n.a.	 3.104679e-01
2	 2	 64	 flanked	 bex	 32	 3.000000	 2.000000	 flanked_bex_freq_32_amplitude_3_rep_5_l_K_2.0.png	 K	 l	 l	 n.a.	 4.392870e-01
2	 2	 65	 flanked	 bex	 16	 5.000000	 2.000000	 flanked_bex_freq_16_amplitude_5_rep_0_t_D_2.0.png	 D	 t	 t	 n.a.	 5.301884e-01
2	 2	 66	 flanked	 bex	 8	 2.500000	 2.000000	 flanked_bex_freq_8_amplitude_2.5_rep_9_b_K_2.0.png	 K	 b	 b	 n.a.	 3.528871e-01
2	 2	 67	 flanked	 bex	 2	 1.000000	 2.000000	 flanked_bex_freq_2_amplitude_1_rep_8_l_K_2.0.png	 K	 l	 l	 n.a.	 4.290054e-01
2	 2	 68	 flanked	 bex	 6	 5.000000	 2.000000	 flanked_bex_freq_6_amplitude_5_rep_4_b_D_2.0.png	 D	 b	 b	 n.a.	 2.741648e-01
2	 2	 69	 flanked	 bex	 4	 0.500000	 2.000000	 flanked_bex_freq_4_amplitude_0.5_rep_4_b_N_2.0.png	 N	 b	 l	 n.a.	 5.973461e-01
2	 2	 70	 flanked	 bex	 2	 5.000000	 2.000000	 flanked_bex_freq_2_amplitude_5_rep_2_t_N_2.0.png	 N	 t	 t	 n.a.	 4.793165e-01
2	 2	 71	 flanked	 bex	 4	 3.000000	 2.000000	 flanked_bex_freq_4_amplitude_3_rep_0_l_K_2.0.png	 K	 l	 t	 n.a.	 6.357493e-01
2	 2	 72	 flanked	 bex	 32	 5.000000	 2.000000	 flanked_bex_freq_32_amplitude_5_rep_1_r_H_2.0.png	 H	 r	 l	 n.a.	 5.064376e-01
2	 2	 73	 flanked	 bex	 16	 5.000000	 2.000000	 flanked_bex_freq_16_amplitude_5_rep_8_t_N_2.0.png	 N	 t	 b	 n.a.	 3.562031e-01
2	 2	 74	 flanked	 bex	 4	 2.000000	 2.000000	 flanked_bex_freq_4_amplitude_2_rep_4_l_N_2.0.png	 N	 l	 l	 n.a.	 5.341940e-01
2	 2	 75	 flanked	 bex	 32	 1.500000	 2.000000	 flanked_bex_freq_32_amplitude_1.5_rep_1_r_K_2.0.png	 K	 r	 t	 n.a.	 4.290415e-01
2	 2	 76	 flanked	 bex	 16	 1.500000	 2.000000	 flanked_bex_freq_16_amplitude_1.5_rep_4_r_K_2.0.png	 K	 r	 r	 n.a.	 5.114884e-01
2	 2	 77	 flanked	 bex	 6	 2.000000	 2.000000	 flanked_bex_freq_6_amplitude_2_rep_1_t_K_2.0.png	 K	 t	 b	 n.a.	 4.570021e-01
2	 2	 78	 flanked	 bex	 16	 0.500000	 2.000000	 flanked_bex_freq_16_amplitude_0.5_rep_4_r_K_2.0.png	 K	 r	 b	 n.a.	 5.926217e-01
2	 2	 79	 flanked	 bex	 4	 2.000000	 2.000000	 flanked_bex_freq_4_amplitude_2_rep_6_l_D_2.0.png	 D	 l	 l	 n.a.	 3.216332e-01
2	 2	 80	 flanked	 bex	 4	 3.000000	 2.000000	 flanked_bex_freq_4_amplitude_3_rep_2_t_N_2.0.png	 N	 t	 l	 n.a.	 4.451261e-01
2	 2	 81	 flanked	 bex	 2	 3.000000	 2.000000	 flanked_bex_freq_2_amplitude_3_rep_9_r_N_2.0.png	 N	 r	 t	 n.a.	 5.584311e-01
2	 2	 82	 flanked	 bex	 8	 2.000000	 2.000000	 flanked_bex_freq_8_amplitude_2_rep_9_l_D_2.0.png	 D	 l	 l	 n.a.	 3.588629e-01
2	 2	 83	 flanked	 bex	 6	 2.000000	 2.000000	 flanked_bex_freq_6_amplitude_2_rep_2_l_D_2.0.png	 D	 l	 l	 n.a.	 3.701907e-01
2	 2	 84	 flanked	 bex	 16	 1.000000	 2.000000	 flanked_bex_freq_16_amplitude_1_rep_7_t_H_2.0.png	 H	 t	 l	 n.a.	 5.034056e-01
2	 2	 85	 flanked	 bex	 16	 5.000000	 2.000000	 flanked_bex_freq_16_amplitude_5_rep_3_b_N_2.0.png	 N	 b	 b	 n.a.	 4.019068e-01
2	 2	 86	 flanked	 bex	 16	 0.500000	 2.000000	 flanked_bex_freq_16_amplitude_0.5_rep_6_t_N_2.0.png	 N	 t	 b	 n.a.	 3.774697e-01
2	 2	 87	 flanked	 bex	 6	 0.500000	 2.000000	 flanked_bex_freq_6_amplitude_0.5_rep_1_t_D_2.0.png	 D	 t	 t	 n.a.	 6.058644e-01
2	 2	 88	 flanked	 bex	 16	 5.000000	 2.000000	 flanked_bex_freq_16_amplitude_5_rep_2_l_D_2.0.png	 D	 l	 l	 n.a.	 3.748867e-01
2	 2	 89	 flanked	 bex	 8	 2.500000	 2.000000	 flanked_bex_freq_8_amplitude_2.5_rep_4_b_D_2.0.png	 D	 b	 l	 n.a.	 4.680209e-01
2	 2	 90	 flanked	 bex	 32	 1.500000	 2.000000	 flanked_bex_freq_32_amplitude_1.5_rep_9_l_K_2.0.png	 K	 l	 r	 n.a.	 4.903396e-01
2	 2	 91	 flanked	 bex	 4	 1.000000	 2.000000	 flanked_bex_freq_4_amplitude_1_rep_5_r_K_2.0.png	 K	 r	 t	 n.a.	 5.103417e-01
2	 2	 92	 flanked	 bex	 32	 2.500000	 2.000000	 flanked_bex_freq_32_amplitude_2.5_rep_7_l_H_2.0.png	 H	 l	 l	 n.a.	 4.381864e-01
2	 2	 93	 flanked	 bex	 2	 3.000000	 2.000000	 flanked_bex_freq_2_amplitude_3_rep_7_r_H_2.0.png	 H	 r	 r	 n.a.	 3.569243e-01
2	 2	 94	 flanked	 bex	 2	 5.000000	 2.000000	 flanked_bex_freq_2_amplitude_5_rep_7_r_D_2.0.png	 D	 r	 r	 n.a.	 3.303482e-01
2	 2	 95	 flanked	 bex	 6	 3.000000	 2.000000	 flanked_bex_freq_6_amplitude_3_rep_3_l_H_2.0.png	 H	 l	 l	 n.a.	 3.587569e-01
2	 2	 96	 flanked	 bex	 32	 2.500000	 2.000000	 flanked_bex_freq_32_amplitude_2.5_rep_8_b_H_2.0.png	 H	 b	 r	 n.a.	 4.089249e-01
2	 2	 97	 flanked	 bex	 4	 1.000000	 2.000000	 flanked_bex_freq_4_amplitude_1_rep_7_l_D_2.0.png	 D	 l	 l	 n.a.	 4.455774e-01
2	 2	 98	 flanked	 bex	 8	 0.500000	 2.000000	 flanked_bex_freq_8_amplitude_0.5_rep_1_l_H_2.0.png	 H	 l	 b	 n.a.	 3.593643e-01
2	 2	 99	 flanked	 bex	 16	 2.000000	 2.000000	 flanked_bex_freq_16_amplitude_2_rep_4_l_K_2.0.png	 K	 l	 l	 n.a.	 5.459380e-01
2	 2	 100	 flanked	 bex	 32	 5.000000	 2.000000	 flanked_bex_freq_32_amplitude_5_rep_9_l_D_2.0.png	 D	 l	 l	 n.a.	 4.462714e-01
2	 2	 101	 flanked	 bex	 6	 2.500000	 2.000000	 flanked_bex_freq_6_amplitude_2.5_rep_7_b_N_2.0.png	 N	 b	 b	 n.a.	 4.262073e-01
2	 2	 102	 flanked	 bex	 6	 5.000000	 2.000000	 flanked_bex_freq_6_amplitude_5_rep_0_b_N_2.0.png	 N	 b	 b	 n.a.	 2.826909e-01
2	 2	 103	 flanked	 bex	 2	 2.000000	 2.000000	 flanked_bex_freq_2_amplitude_2_rep_0_t_N_2.0.png	 N	 t	 l	 n.a.	 5.576909e-01
2	 2	 104	 flanked	 bex	 32	 2.500000	 2.000000	 flanked_bex_freq_32_amplitude_2.5_rep_2_b_H_2.0.png	 H	 b	 b	 n.a.	 4.338433e-01
2	 2	 105	 flanked	 bex	 4	 2.500000	 2.000000	 flanked_bex_freq_4_amplitude_2.5_rep_3_t_D_2.0.png	 D	 t	 b	 n.a.	 4.681619e-01
2	 2	 106	 flanked	 bex	 4	 2.500000	 2.000000	 flanked_bex_freq_4_amplitude_2.5_rep_4_l_H_2.0.png	 H	 l	 l	 n.a.	 3.420462e-01
2	 2	 107	 flanked	 bex	 2	 3.000000	 2.000000	 flanked_bex_freq_2_amplitude_3_rep_2_l_K_2.0.png	 K	 l	 t	 n.a.	 5.574109e-01
2	 2	 108	 flanked	 bex	 6	 5.000000	 2.000000	 flanked_bex_freq_6_amplitude_5_rep_6_b_K_2.0.png	 K	 b	 b	 n.a.	 3.084976e-01
2	 2	 109	 flanked	 bex	 8	 2.000000	 2.000000	 flanked_bex_freq_8_amplitude_2_rep_0_t_D_2.0.png	 D	 t	 b	 n.a.	 3.308001e-01
2	 2	 110	 flanked	 bex	 6	 0.500000	 2.000000	 flanked_bex_freq_6_amplitude_0.5_rep_5_r_D_2.0.png	 D	 r	 b	 n.a.	 4.096107e-01
2	 2	 111	 flanked	 bex	 16	 3.000000	 2.000000	 flanked_bex_freq_16_amplitude_3_rep_7_r_H_2.0.png	 H	 r	 r	 n.a.	 5.462954e-01
2	 2	 112	 flanked	 bex	 2	 2.500000	 2.000000	 flanked_bex_freq_2_amplitude_2.5_rep_6_t_K_2.0.png	 K	 t	 t	 n.a.	 6.474838e-01
2	 2	 113	 flanked	 bex	 2	 2.500000	 2.000000	 flanked_bex_freq_2_amplitude_2.5_rep_3_b_K_2.0.png	 K	 b	 b	 n.a.	 3.698419e-01
2	 2	 114	 flanked	 bex	 16	 0.500000	 2.000000	 flanked_bex_freq_16_amplitude_0.5_rep_1_l_D_2.0.png	 D	 l	 l	 n.a.	 8.404708e-01
2	 2	 115	 flanked	 bex	 4	 0.500000	 2.000000	 flanked_bex_freq_4_amplitude_0.5_rep_1_r_H_2.0.png	 H	 r	 t	 n.a.	 9.207642e-01
2	 2	 116	 flanked	 bex	 2	 5.000000	 2.000000	 flanked_bex_freq_2_amplitude_5_rep_1_r_N_2.0.png	 N	 r	 r	 n.a.	 4.237134e-01
2	 2	 117	 flanked	 bex	 8	 1.500000	 2.000000	 flanked_bex_freq_8_amplitude_1.5_rep_1_b_H_2.0.png	 H	 b	 l	 n.a.	 3.773697e-01
2	 2	 118	 flanked	 bex	 2	 1.000000	 2.000000	 flanked_bex_freq_2_amplitude_1_rep_0_t_K_2.0.png	 K	 t	 b	 n.a.	 2.693388e-01
2	 2	 119	 flanked	 bex	 6	 2.000000	 2.000000	 flanked_bex_freq_6_amplitude_2_rep_6_b_D_2.0.png	 D	 b	 t	 n.a.	 4.296830e-01
2	 2	 120	 flanked	 bex	 4	 2.500000	 2.000000	 flanked_bex_freq_4_amplitude_2.5_rep_2_t_N_2.0.png	 N	 t	 l	 n.a.	 5.105947e-01
2	 2	 121	 flanked	 bex	 16	 5.000000	 2.000000	 flanked_bex_freq_16_amplitude_5_rep_1_t_K_2.0.png	 K	 t	 b	 n.a.	 4.557714e-01
2	 2	 122	 flanked	 bex	 6	 3.000000	 2.000000	 flanked_bex_freq_6_amplitude_3_rep_8_b_D_2.0.png	 D	 b	 b	 n.a.	 4.376132e-01
2	 2	 123	 flanked	 bex	 6	 0.500000	 2.000000	 flanked_bex_freq_6_amplitude_0.5_rep_8_t_K_2.0.png	 K	 t	 l	 n.a.	 7.777862e-01
2	 2	 124	 flanked	 bex	 6	 1.500000	 2.000000	 flanked_bex_freq_6_amplitude_1.5_rep_8_b_K_2.0.png	 K	 b	 b	 n.a.	 3.714989e-01
2	 2	 125	 flanked	 bex	 8	 2.000000	 2.000000	 flanked_bex_freq_8_amplitude_2_rep_7_l_D_2.0.png	 D	 l	 l	 n.a.	 4.122694e-01
2	 2	 126	 flanked	 bex	 4	 3.000000	 2.000000	 flanked_bex_freq_4_amplitude_3_rep_9_r_H_2.0.png	 H	 r	 r	 n.a.	 3.309444e-01
2	 2	 127	 flanked	 bex	 8	 1.500000	 2.000000	 flanked_bex_freq_8_amplitude_1.5_rep_6_r_N_2.0.png	 N	 r	 r	 n.a.	 3.675208e-01
2	 2	 128	 flanked	 bex	 2	 2.500000	 2.000000	 flanked_bex_freq_2_amplitude_2.5_rep_7_l_K_2.0.png	 K	 l	 b	 n.a.	 3.834467e-01
2	 2	 129	 flanked	 bex	 2	 2.000000	 2.000000	 flanked_bex_freq_2_amplitude_2_rep_6_t_N_2.0.png	 N	 t	 l	 n.a.	 4.517789e-01
2	 2	 130	 flanked	 bex	 16	 2.500000	 2.000000	 flanked_bex_freq_16_amplitude_2.5_rep_5_t_K_2.0.png	 K	 t	 t	 n.a.	 4.691877e-01
2	 2	 131	 flanked	 bex	 16	 0.500000	 2.000000	 flanked_bex_freq_16_amplitude_0.5_rep_0_t_N_2.0.png	 N	 t	 b	 n.a.	 4.739660e-01
2	 2	 132	 flanked	 bex	 32	 1.000000	 2.000000	 flanked_bex_freq_32_amplitude_1_rep_9_t_K_2.0.png	 K	 t	 r	 n.a.	 4.653991e-01
2	 2	 133	 flanked	 bex	 8	 1.500000	 2.000000	 flanked_bex_freq_8_amplitude_1.5_rep_5_l_N_2.0.png	 N	 l	 b	 n.a.	 3.484844e-01
2	 2	 134	 flanked	 bex	 4	 3.000000	 2.000000	 flanked_bex_freq_4_amplitude_3_rep_4_t_D_2.0.png	 D	 t	 t	 n.a.	 5.010108e-01
2	 2	 135	 flanked	 bex	 8	 1.000000	 2.000000	 flanked_bex_freq_8_amplitude_1_rep_6_r_D_2.0.png	 D	 r	 b	 n.a.	 3.993646e-01
2	 2	 136	 flanked	 bex	 4	 1.500000	 2.000000	 flanked_bex_freq_4_amplitude_1.5_rep_2_b_K_2.0.png	 K	 b	 b	 n.a.	 3.571845e-01
2	 2	 137	 flanked	 bex	 8	 2.500000	 2.000000	 flanked_bex_freq_8_amplitude_2.5_rep_5_r_K_2.0.png	 K	 r	 r	 n.a.	 3.379240e-01
2	 2	 138	 flanked	 bex	 8	 0.500000	 2.000000	 flanked_bex_freq_8_amplitude_0.5_rep_7_t_K_2.0.png	 K	 t	 t	 n.a.	 6.216481e-01
2	 2	 139	 flanked	 bex	 4	 2.000000	 2.000000	 flanked_bex_freq_4_amplitude_2_rep_7_t_D_2.0.png	 D	 t	 l	 n.a.	 5.459891e-01
2	 2	 140	 flanked	 bex	 16	 5.000000	 2.000000	 flanked_bex_freq_16_amplitude_5_rep_4_b_N_2.0.png	 N	 b	 b	 n.a.	 3.172094e-01
2	 2	 141	 flanked	 bex	 32	 5.000000	 2.000000	 flanked_bex_freq_32_amplitude_5_rep_4_l_K_2.0.png	 K	 l	 l	 n.a.	 4.886690e-01
2	 2	 142	 flanked	 bex	 8	 5.000000	 2.000000	 flanked_bex_freq_8_amplitude_5_rep_4_t_K_2.0.png	 K	 t	 b	 n.a.	 4.517575e-01
2	 2	 143	 flanked	 bex	 4	 1.500000	 2.000000	 flanked_bex_freq_4_amplitude_1.5_rep_7_b_H_2.0.png	 H	 b	 b	 n.a.	 3.968820e-01
2	 2	 144	 flanked	 bex	 32	 1.000000	 2.000000	 flanked_bex_freq_32_amplitude_1_rep_0_r_D_2.0.png	 D	 r	 l	 n.a.	 6.079596e-01
2	 2	 145	 flanked	 bex	 4	 2.000000	 2.000000	 flanked_bex_freq_4_amplitude_2_rep_5_t_D_2.0.png	 D	 t	 b	 n.a.	 4.268648e-01
2	 2	 146	 flanked	 bex	 6	 2.000000	 2.000000	 flanked_bex_freq_6_amplitude_2_rep_3_r_K_2.0.png	 K	 r	 r	 n.a.	 2.425257e-01
2	 2	 147	 flanked	 bex	 4	 5.000000	 2.000000	 flanked_bex_freq_4_amplitude_5_rep_8_l_N_2.0.png	 N	 l	 l	 n.a.	 3.583296e-01
2	 2	 148	 flanked	 bex	 32	 3.000000	 2.000000	 flanked_bex_freq_32_amplitude_3_rep_1_t_K_2.0.png	 K	 t	 t	 n.a.	 6.076595e-01
2	 2	 149	 flanked	 bex	 32	 2.000000	 2.000000	 flanked_bex_freq_32_amplitude_2_rep_4_r_K_2.0.png	 K	 r	 b	 n.a.	 3.545637e-01
2	 2	 150	 flanked	 bex	 16	 1.000000	 2.000000	 flanked_bex_freq_16_amplitude_1_rep_3_l_K_2.0.png	 K	 l	 l	 n.a.	 3.703284e-01
2	 2	 151	 flanked	 bex	 4	 3.000000	 2.000000	 flanked_bex_freq_4_amplitude_3_rep_1_l_H_2.0.png	 H	 l	 l	 n.a.	 4.036433e-01
2	 2	 152	 flanked	 bex	 2	 2.500000	 2.000000	 flanked_bex_freq_2_amplitude_2.5_rep_1_t_H_2.0.png	 H	 t	 b	 n.a.	 7.838481e-01
2	 2	 153	 flanked	 bex	 8	 5.000000	 2.000000	 flanked_bex_freq_8_amplitude_5_rep_0_r_D_2.0.png	 D	 r	 r	 n.a.	 2.803532e-01
2	 2	 154	 flanked	 bex	 2	 1.500000	 2.000000	 flanked_bex_freq_2_amplitude_1.5_rep_9_t_D_2.0.png	 D	 t	 b	 n.a.	 4.560021e-01
2	 2	 155	 flanked	 bex	 16	 3.000000	 2.000000	 flanked_bex_freq_16_amplitude_3_rep_8_b_H_2.0.png	 H	 b	 l	 n.a.	 4.369727e-01
2	 2	 156	 flanked	 bex	 4	 1.000000	 2.000000	 flanked_bex_freq_4_amplitude_1_rep_8_t_H_2.0.png	 H	 t	 b	 n.a.	 4.585323e-01
2	 2	 157	 flanked	 bex	 6	 1.500000	 2.000000	 flanked_bex_freq_6_amplitude_1.5_rep_3_t_N_2.0.png	 N	 t	 l	 n.a.	 4.561763e-01
2	 2	 158	 flanked	 bex	 6	 2.000000	 2.000000	 flanked_bex_freq_6_amplitude_2_rep_9_t_H_2.0.png	 H	 t	 b	 n.a.	 4.426926e-01
2	 2	 159	 flanked	 bex	 2	 5.000000	 2.000000	 flanked_bex_freq_2_amplitude_5_rep_9_l_N_2.0.png	 N	 l	 l	 n.a.	 4.714441e-01
2	 2	 160	 flanked	 bex	 32	 0.500000	 2.000000	 flanked_bex_freq_32_amplitude_0.5_rep_3_t_N_2.0.png	 N	 t	 b	 n.a.	 7.551359e-01
2	 2	 161	 flanked	 bex	 32	 1.000000	 2.000000	 flanked_bex_freq_32_amplitude_1_rep_4_r_N_2.0.png	 N	 r	 t	 n.a.	 4.249955e-01
2	 2	 162	 flanked	 bex	 8	 3.000000	 2.000000	 flanked_bex_freq_8_amplitude_3_rep_8_t_N_2.0.png	 N	 t	 b	 n.a.	 5.327727e-01
2	 2	 163	 flanked	 bex	 2	 2.500000	 2.000000	 flanked_bex_freq_2_amplitude_2.5_rep_0_r_K_2.0.png	 K	 r	 b	 n.a.	 4.808859e-01
2	 2	 164	 flanked	 bex	 6	 2.000000	 2.000000	 flanked_bex_freq_6_amplitude_2_rep_5_t_D_2.0.png	 D	 t	 l	 n.a.	 3.483364e-01
2	 2	 165	 flanked	 bex	 6	 1.000000	 2.000000	 flanked_bex_freq_6_amplitude_1_rep_1_b_K_2.0.png	 K	 b	 b	 n.a.	 4.247477e-01
2	 2	 166	 flanked	 bex	 32	 5.000000	 2.000000	 flanked_bex_freq_32_amplitude_5_rep_0_b_N_2.0.png	 N	 b	 r	 n.a.	 2.669478e-01
2	 2	 167	 flanked	 bex	 8	 2.500000	 2.000000	 flanked_bex_freq_8_amplitude_2.5_rep_1_l_D_2.0.png	 D	 l	 l	 n.a.	 3.177263e-01
2	 2	 168	 flanked	 bex	 2	 3.000000	 2.000000	 flanked_bex_freq_2_amplitude_3_rep_5_r_D_2.0.png	 D	 r	 r	 n.a.	 2.937749e-01
2	 2	 169	 flanked	 bex	 16	 2.000000	 2.000000	 flanked_bex_freq_16_amplitude_2_rep_5_b_N_2.0.png	 N	 b	 r	 n.a.	 3.919962e-01
2	 2	 170	 flanked	 bex	 6	 2.000000	 2.000000	 flanked_bex_freq_6_amplitude_2_rep_8_r_D_2.0.png	 D	 r	 b	 n.a.	 3.280857e-01
2	 2	 171	 flanked	 bex	 2	 2.000000	 2.000000	 flanked_bex_freq_2_amplitude_2_rep_7_t_H_2.0.png	 H	 t	 b	 n.a.	 3.368430e-01
2	 2	 172	 flanked	 bex	 4	 1.500000	 2.000000	 flanked_bex_freq_4_amplitude_1.5_rep_1_l_N_2.0.png	 N	 l	 l	 n.a.	 5.100787e-01
2	 2	 173	 flanked	 bex	 16	 2.000000	 2.000000	 flanked_bex_freq_16_amplitude_2_rep_1_b_K_2.0.png	 K	 b	 b	 n.a.	 3.897696e-01
2	 2	 174	 flanked	 bex	 2	 2.000000	 2.000000	 flanked_bex_freq_2_amplitude_2_rep_9_l_H_2.0.png	 H	 l	 l	 n.a.	 4.404280e-01
2	 2	 175	 flanked	 bex	 8	 0.500000	 2.000000	 flanked_bex_freq_8_amplitude_0.5_rep_4_l_D_2.0.png	 D	 l	 b	 n.a.	 9.589168e-01
2	 2	 176	 flanked	 bex	 4	 2.000000	 2.000000	 flanked_bex_freq_4_amplitude_2_rep_8_t_H_2.0.png	 H	 t	 t	 n.a.	 9.092585e-01
2	 2	 177	 flanked	 bex	 16	 5.000000	 2.000000	 flanked_bex_freq_16_amplitude_5_rep_7_t_H_2.0.png	 H	 t	 r	 n.a.	 5.822151e-01
2	 2	 178	 flanked	 bex	 2	 2.000000	 2.000000	 flanked_bex_freq_2_amplitude_2_rep_3_l_H_2.0.png	 H	 l	 l	 n.a.	 4.908439e-01
2	 2	 179	 flanked	 bex	 32	 0.500000	 2.000000	 flanked_bex_freq_32_amplitude_0.5_rep_0_b_K_2.0.png	 K	 b	 b	 n.a.	 3.374496e-01
2	 2	 180	 flanked	 bex	 8	 5.000000	 2.000000	 flanked_bex_freq_8_amplitude_5_rep_9_t_H_2.0.png	 H	 t	 t	 n.a.	 3.873551e-01
2	 2	 181	 flanked	 bex	 16	 0.500000	 2.000000	 flanked_bex_freq_16_amplitude_0.5_rep_9_b_N_2.0.png	 N	 b	 l	 n.a.	 5.845271e-01
2	 2	 182	 flanked	 bex	 2	 2.500000	 2.000000	 flanked_bex_freq_2_amplitude_2.5_rep_8_r_H_2.0.png	 H	 r	 b	 n.a.	 3.496108e-01
2	 2	 183	 flanked	 bex	 32	 0.500000	 2.000000	 flanked_bex_freq_32_amplitude_0.5_rep_9_b_D_2.0.png	 D	 b	 b	 n.a.	 5.445279e-01
2	 2	 184	 flanked	 bex	 2	 2.500000	 2.000000	 flanked_bex_freq_2_amplitude_2.5_rep_5_t_N_2.0.png	 N	 t	 t	 n.a.	 7.635538e-01
2	 2	 185	 flanked	 bex	 4	 0.500000	 2.000000	 flanked_bex_freq_4_amplitude_0.5_rep_7_t_K_2.0.png	 K	 t	 b	 n.a.	 6.891138e-01
2	 2	 186	 flanked	 bex	 6	 0.500000	 2.000000	 flanked_bex_freq_6_amplitude_0.5_rep_3_t_K_2.0.png	 K	 t	 l	 n.a.	 4.880660e-01
2	 2	 187	 flanked	 bex	 16	 3.000000	 2.000000	 flanked_bex_freq_16_amplitude_3_rep_0_b_N_2.0.png	 N	 b	 b	 n.a.	 3.347688e-01
2	 2	 188	 flanked	 bex	 16	 1.000000	 2.000000	 flanked_bex_freq_16_amplitude_1_rep_8_l_K_2.0.png	 K	 l	 l	 n.a.	 4.946378e-01
2	 2	 189	 flanked	 bex	 32	 3.000000	 2.000000	 flanked_bex_freq_32_amplitude_3_rep_8_b_K_2.0.png	 K	 b	 b	 n.a.	 4.385385e-01
2	 2	 190	 flanked	 bex	 6	 2.500000	 2.000000	 flanked_bex_freq_6_amplitude_2.5_rep_1_l_H_2.0.png	 H	 l	 l	 n.a.	 3.324466e-01
2	 2	 191	 flanked	 bex	 4	 0.500000	 2.000000	 flanked_bex_freq_4_amplitude_0.5_rep_3_l_K_2.0.png	 K	 l	 b	 n.a.	 4.355442e-01
2	 2	 192	 flanked	 bex	 32	 2.000000	 2.000000	 flanked_bex_freq_32_amplitude_2_rep_7_b_K_2.0.png	 K	 b	 l	 n.a.	 4.888566e-01
2	 2	 193	 flanked	 bex	 32	 2.000000	 2.000000	 flanked_bex_freq_32_amplitude_2_rep_6_l_D_2.0.png	 D	 l	 t	 n.a.	 5.737297e-01
2	 2	 194	 flanked	 bex	 4	 3.000000	 2.000000	 flanked_bex_freq_4_amplitude_3_rep_8_b_N_2.0.png	 N	 b	 b	 n.a.	 3.968704e-01
2	 2	 195	 flanked	 bex	 2	 1.500000	 2.000000	 flanked_bex_freq_2_amplitude_1.5_rep_1_b_K_2.0.png	 K	 b	 b	 n.a.	 4.134590e-01
2	 2	 196	 flanked	 bex	 4	 1.500000	 2.000000	 flanked_bex_freq_4_amplitude_1.5_rep_9_b_K_2.0.png	 K	 b	 t	 n.a.	 6.207283e-01
2	 2	 197	 flanked	 bex	 8	 2.500000	 2.000000	 flanked_bex_freq_8_amplitude_2.5_rep_0_l_N_2.0.png	 N	 l	 l	 n.a.	 4.106852e-01
2	 2	 198	 flanked	 bex	 2	 2.000000	 2.000000	 flanked_bex_freq_2_amplitude_2_rep_5_t_D_2.0.png	 D	 t	 b	 n.a.	 3.608115e-01
2	 2	 199	 flanked	 bex	 6	 2.500000	 2.000000	 flanked_bex_freq_6_amplitude_2.5_rep_8_l_D_2.0.png	 D	 l	 l	 n.a.	 4.140473e-01
2	 2	 200	 flanked	 bex	 6	 1.000000	 2.000000	 flanked_bex_freq_6_amplitude_1_rep_7_l_D_2.0.png	 D	 l	 b	 n.a.	 4.099682e-01
2	 2	 201	 flanked	 bex	 8	 3.000000	 2.000000	 flanked_bex_freq_8_amplitude_3_rep_7_l_K_2.0.png	 K	 l	 l	 n.a.	 3.993010e-01
2	 2	 202	 flanked	 bex	 2	 1.500000	 2.000000	 flanked_bex_freq_2_amplitude_1.5_rep_4_r_N_2.0.png	 N	 r	 b	 n.a.	 5.719360e-01
2	 2	 203	 flanked	 bex	 8	 1.000000	 2.000000	 flanked_bex_freq_8_amplitude_1_rep_7_t_D_2.0.png	 D	 t	 b	 n.a.	 4.305289e-01
2	 2	 204	 flanked	 bex	 32	 2.000000	 2.000000	 flanked_bex_freq_32_amplitude_2_rep_0_t_K_2.0.png	 K	 t	 t	 n.a.	 5.581284e-01
2	 2	 205	 flanked	 bex	 32	 3.000000	 2.000000	 flanked_bex_freq_32_amplitude_3_rep_2_r_N_2.0.png	 N	 r	 b	 n.a.	 3.853063e-01
2	 2	 206	 flanked	 bex	 32	 1.500000	 2.000000	 flanked_bex_freq_32_amplitude_1.5_rep_3_r_D_2.0.png	 D	 r	 l	 n.a.	 6.430183e-01
2	 2	 207	 flanked	 bex	 32	 0.500000	 2.000000	 flanked_bex_freq_32_amplitude_0.5_rep_6_r_K_2.0.png	 K	 r	 r	 n.a.	 7.330953e-01
2	 2	 208	 flanked	 bex	 16	 5.000000	 2.000000	 flanked_bex_freq_16_amplitude_5_rep_6_l_N_2.0.png	 N	 l	 l	 n.a.	 6.442571e-01
2	 2	 209	 flanked	 bex	 8	 3.000000	 2.000000	 flanked_bex_freq_8_amplitude_3_rep_1_b_K_2.0.png	 K	 b	 b	 n.a.	 4.363310e-01
2	 2	 210	 flanked	 bex	 16	 3.000000	 2.000000	 flanked_bex_freq_16_amplitude_3_rep_6_b_N_2.0.png	 N	 b	 b	 n.a.	 5.200033e-01
2	 2	 211	 flanked	 bex	 16	 2.000000	 2.000000	 flanked_bex_freq_16_amplitude_2_rep_3_b_H_2.0.png	 H	 b	 t	 n.a.	 6.424859e-01
2	 2	 212	 flanked	 bex	 2	 5.000000	 2.000000	 flanked_bex_freq_2_amplitude_5_rep_8_b_K_2.0.png	 K	 b	 b	 n.a.	 2.926539e-01
2	 2	 213	 flanked	 bex	 32	 2.500000	 2.000000	 flanked_bex_freq_32_amplitude_2.5_rep_6_r_K_2.0.png	 K	 r	 b	 n.a.	 3.645632e-01
2	 2	 214	 flanked	 bex	 2	 3.000000	 2.000000	 flanked_bex_freq_2_amplitude_3_rep_0_l_H_2.0.png	 H	 l	 l	 n.a.	 4.004982e-01
2	 2	 215	 flanked	 bex	 6	 3.000000	 2.000000	 flanked_bex_freq_6_amplitude_3_rep_1_b_N_2.0.png	 N	 b	 t	 n.a.	 6.237858e-01
2	 2	 216	 flanked	 bex	 16	 1.500000	 2.000000	 flanked_bex_freq_16_amplitude_1.5_rep_5_t_H_2.0.png	 H	 t	 b	 n.a.	 4.109406e-01
2	 2	 217	 flanked	 bex	 16	 1.000000	 2.000000	 flanked_bex_freq_16_amplitude_1_rep_1_l_K_2.0.png	 K	 l	 l	 n.a.	 3.222308e-01
2	 2	 218	 flanked	 bex	 4	 5.000000	 2.000000	 flanked_bex_freq_4_amplitude_5_rep_0_t_D_2.0.png	 D	 t	 t	 n.a.	 5.610249e-01
2	 2	 219	 flanked	 bex	 4	 5.000000	 2.000000	 flanked_bex_freq_4_amplitude_5_rep_7_r_H_2.0.png	 H	 r	 r	 n.a.	 3.305230e-01
2	 2	 220	 flanked	 bex	 2	 0.500000	 2.000000	 flanked_bex_freq_2_amplitude_0.5_rep_9_r_K_2.0.png	 K	 r	 t	 n.a.	 9.536231e-01
2	 2	 221	 flanked	 bex	 6	 3.000000	 2.000000	 flanked_bex_freq_6_amplitude_3_rep_7_t_K_2.0.png	 K	 t	 b	 n.a.	 4.935160e-01
2	 2	 222	 flanked	 bex	 2	 1.000000	 2.000000	 flanked_bex_freq_2_amplitude_1_rep_2_l_N_2.0.png	 N	 l	 t	 n.a.	 8.660993e-01
2	 2	 223	 flanked	 bex	 8	 0.500000	 2.000000	 flanked_bex_freq_8_amplitude_0.5_rep_8_l_D_2.0.png	 D	 l	 b	 n.a.	 3.276926e-01
2	 2	 224	 flanked	 bex	 2	 1.000000	 2.000000	 flanked_bex_freq_2_amplitude_1_rep_7_b_N_2.0.png	 N	 b	 l	 n.a.	 3.607516e-01
2	 2	 225	 flanked	 bex	 2	 0.500000	 2.000000	 flanked_bex_freq_2_amplitude_0.5_rep_1_l_D_2.0.png	 D	 l	 r	 n.a.	 5.203137e-01
2	 2	 226	 flanked	 bex	 16	 1.500000	 2.000000	 flanked_bex_freq_16_amplitude_1.5_rep_6_b_K_2.0.png	 K	 b	 l	 n.a.	 3.365583e-01
2	 2	 227	 flanked	 bex	 4	 0.500000	 2.000000	 flanked_bex_freq_4_amplitude_0.5_rep_0_b_H_2.0.png	 H	 b	 b	 n.a.	 2.675483e-01
2	 2	 228	 flanked	 bex	 8	 1.500000	 2.000000	 flanked_bex_freq_8_amplitude_1.5_rep_2_b_D_2.0.png	 D	 b	 b	 n.a.	 4.685844e-01
2	 2	 229	 flanked	 bex	 8	 1.000000	 2.000000	 flanked_bex_freq_8_amplitude_1_rep_2_r_N_2.0.png	 N	 r	 b	 n.a.	 4.748800e-01
2	 2	 230	 flanked	 bex	 16	 2.500000	 2.000000	 flanked_bex_freq_16_amplitude_2.5_rep_7_r_D_2.0.png	 D	 r	 r	 n.a.	 4.400819e-01
2	 2	 231	 flanked	 bex	 6	 0.500000	 2.000000	 flanked_bex_freq_6_amplitude_0.5_rep_7_r_K_2.0.png	 K	 r	 t	 n.a.	 7.331130e-01
2	 2	 232	 flanked	 bex	 8	 5.000000	 2.000000	 flanked_bex_freq_8_amplitude_5_rep_1_l_D_2.0.png	 D	 l	 l	 n.a.	 3.827154e-01
2	 2	 233	 flanked	 bex	 4	 2.000000	 2.000000	 flanked_bex_freq_4_amplitude_2_rep_2_l_K_2.0.png	 K	 l	 l	 n.a.	 4.242142e-01
2	 2	 234	 flanked	 bex	 2	 1.500000	 2.000000	 flanked_bex_freq_2_amplitude_1.5_rep_6_l_H_2.0.png	 H	 l	 t	 n.a.	 7.679592e-01
2	 2	 235	 flanked	 bex	 16	 2.500000	 2.000000	 flanked_bex_freq_16_amplitude_2.5_rep_1_r_H_2.0.png	 H	 r	 l	 n.a.	 4.362696e-01
2	 2	 236	 flanked	 bex	 32	 2.500000	 2.000000	 flanked_bex_freq_32_amplitude_2.5_rep_9_l_N_2.0.png	 N	 l	 t	 n.a.	 6.170698e-01
2	 2	 237	 flanked	 bex	 32	 1.000000	 2.000000	 flanked_bex_freq_32_amplitude_1_rep_8_t_K_2.0.png	 K	 t	 l	 n.a.	 7.281346e-01
2	 2	 238	 flanked	 bex	 16	 2.500000	 2.000000	 flanked_bex_freq_16_amplitude_2.5_rep_9_r_N_2.0.png	 N	 r	 r	 n.a.	 5.768023e-01
2	 2	 239	 flanked	 bex	 16	 3.000000	 2.000000	 flanked_bex_freq_16_amplitude_3_rep_1_b_H_2.0.png	 H	 b	 l	 n.a.	 4.390680e-01
2	 2	 240	 flanked	 bex	 32	 1.000000	 2.000000	 flanked_bex_freq_32_amplitude_1_rep_7_t_D_2.0.png	 D	 t	 b	 n.a.	 4.219173e-01
2	 2	 241	 flanked	 bex	 4	 3.000000	 2.000000	 flanked_bex_freq_4_amplitude_3_rep_7_b_D_2.0.png	 D	 b	 t	 n.a.	 3.607323e-01
2	 2	 242	 flanked	 bex	 4	 2.000000	 2.000000	 flanked_bex_freq_4_amplitude_2_rep_9_r_D_2.0.png	 D	 r	 r	 n.a.	 4.204675e-01
2	 2	 243	 flanked	 bex	 8	 3.000000	 2.000000	 flanked_bex_freq_8_amplitude_3_rep_3_b_D_2.0.png	 D	 b	 b	 n.a.	 3.487622e-01
2	 2	 244	 flanked	 bex	 4	 1.000000	 2.000000	 flanked_bex_freq_4_amplitude_1_rep_4_l_K_2.0.png	 K	 l	 l	 n.a.	 5.274619e-01
2	 2	 245	 flanked	 bex	 4	 2.500000	 2.000000	 flanked_bex_freq_4_amplitude_2.5_rep_1_l_N_2.0.png	 N	 l	 t	 n.a.	 4.053415e-01
2	 2	 246	 flanked	 bex	 2	 1.500000	 2.000000	 flanked_bex_freq_2_amplitude_1.5_rep_7_t_K_2.0.png	 K	 t	 r	 n.a.	 4.555995e-01
2	 2	 247	 flanked	 bex	 8	 1.000000	 2.000000	 flanked_bex_freq_8_amplitude_1_rep_1_t_H_2.0.png	 H	 t	 t	 n.a.	 4.264604e-01
2	 2	 248	 flanked	 bex	 16	 2.000000	 2.000000	 flanked_bex_freq_16_amplitude_2_rep_7_t_D_2.0.png	 D	 t	 r	 n.a.	 4.824535e-01
2	 2	 249	 flanked	 bex	 16	 1.500000	 2.000000	 flanked_bex_freq_16_amplitude_1.5_rep_3_t_H_2.0.png	 H	 t	 l	 n.a.	 5.931388e-01
2	 2	 250	 flanked	 bex	 2	 0.500000	 2.000000	 flanked_bex_freq_2_amplitude_0.5_rep_3_t_N_2.0.png	 N	 t	 b	 n.a.	 3.965422e-01
2	 2	 251	 flanked	 bex	 6	 2.500000	 2.000000	 flanked_bex_freq_6_amplitude_2.5_rep_9_l_K_2.0.png	 K	 l	 l	 n.a.	 4.542748e-01
2	 2	 252	 flanked	 bex	 8	 2.500000	 2.000000	 flanked_bex_freq_8_amplitude_2.5_rep_8_r_N_2.0.png	 N	 r	 r	 n.a.	 3.906061e-01
2	 2	 253	 flanked	 bex	 6	 2.500000	 2.000000	 flanked_bex_freq_6_amplitude_2.5_rep_5_b_H_2.0.png	 H	 b	 b	 n.a.	 4.762799e-01
2	 2	 254	 flanked	 bex	 8	 0.500000	 2.000000	 flanked_bex_freq_8_amplitude_0.5_rep_2_t_D_2.0.png	 D	 t	 b	 n.a.	 4.406677e-01
2	 2	 255	 flanked	 bex	 4	 5.000000	 2.000000	 flanked_bex_freq_4_amplitude_5_rep_3_t_H_2.0.png	 H	 t	 t	 n.a.	 4.487571e-01
2	 2	 256	 flanked	 bex	 32	 3.000000	 2.000000	 flanked_bex_freq_32_amplitude_3_rep_7_b_D_2.0.png	 D	 b	 l	 n.a.	 6.488474e-01
2	 2	 257	 flanked	 bex	 2	 2.000000	 2.000000	 flanked_bex_freq_2_amplitude_2_rep_1_b_D_2.0.png	 D	 b	 l	 n.a.	 5.874531e-01
2	 2	 258	 flanked	 bex	 16	 2.500000	 2.000000	 flanked_bex_freq_16_amplitude_2.5_rep_6_r_D_2.0.png	 D	 r	 r	 n.a.	 5.234770e-01
2	 2	 259	 flanked	 bex	 6	 1.500000	 2.000000	 flanked_bex_freq_6_amplitude_1.5_rep_4_r_H_2.0.png	 H	 r	 l	 n.a.	 9.712293e-01
2	 2	 260	 flanked	 bex	 6	 1.000000	 2.000000	 flanked_bex_freq_6_amplitude_1_rep_8_b_D_2.0.png	 D	 b	 b	 n.a.	 5.041260e-01
2	 2	 261	 flanked	 bex	 8	 2.000000	 2.000000	 flanked_bex_freq_8_amplitude_2_rep_6_t_K_2.0.png	 K	 t	 t	 n.a.	 4.025991e-01
2	 2	 262	 flanked	 bex	 8	 2.000000	 2.000000	 flanked_bex_freq_8_amplitude_2_rep_3_b_D_2.0.png	 D	 b	 b	 n.a.	 4.941419e-01
2	 2	 263	 flanked	 bex	 2	 1.000000	 2.000000	 flanked_bex_freq_2_amplitude_1_rep_3_b_K_2.0.png	 K	 b	 l	 n.a.	 3.390487e-01
2	 2	 264	 flanked	 bex	 8	 5.000000	 2.000000	 flanked_bex_freq_8_amplitude_5_rep_8_t_D_2.0.png	 D	 t	 t	 n.a.	 5.084071e-01
2	 2	 265	 flanked	 bex	 2	 1.500000	 2.000000	 flanked_bex_freq_2_amplitude_1.5_rep_0_b_D_2.0.png	 D	 b	 r	 n.a.	 4.885713e-01
2	 2	 266	 flanked	 bex	 16	 1.000000	 2.000000	 flanked_bex_freq_16_amplitude_1_rep_5_l_D_2.0.png	 D	 l	 t	 n.a.	 6.346134e-01
2	 2	 267	 flanked	 bex	 4	 1.500000	 2.000000	 flanked_bex_freq_4_amplitude_1.5_rep_6_l_N_2.0.png	 N	 l	 t	 n.a.	 6.322753e-01
2	 2	 268	 flanked	 bex	 32	 2.500000	 2.000000	 flanked_bex_freq_32_amplitude_2.5_rep_1_r_D_2.0.png	 D	 r	 l	 n.a.	 5.871500e-01
2	 2	 269	 flanked	 bex	 6	 1.500000	 2.000000	 flanked_bex_freq_6_amplitude_1.5_rep_9_b_H_2.0.png	 H	 b	 b	 n.a.	 4.952042e-01
2	 2	 270	 flanked	 bex	 32	 1.000000	 2.000000	 flanked_bex_freq_32_amplitude_1_rep_1_b_K_2.0.png	 K	 b	 l	 n.a.	 5.658639e-01
2	 2	 271	 flanked	 bex	 2	 5.000000	 2.000000	 flanked_bex_freq_2_amplitude_5_rep_4_b_H_2.0.png	 H	 b	 b	 n.a.	 4.606249e-01
2	 2	 272	 flanked	 bex	 6	 5.000000	 2.000000	 flanked_bex_freq_6_amplitude_5_rep_3_l_K_2.0.png	 K	 l	 l	 n.a.	 3.721875e-01
2	 2	 273	 flanked	 bex	 4	 1.500000	 2.000000	 flanked_bex_freq_4_amplitude_1.5_rep_3_l_D_2.0.png	 D	 l	 b	 n.a.	 6.190793e-01
2	 2	 274	 flanked	 bex	 6	 2.500000	 2.000000	 flanked_bex_freq_6_amplitude_2.5_rep_3_l_H_2.0.png	 H	 l	 l	 n.a.	 4.488129e-01
2	 2	 275	 flanked	 bex	 32	 0.500000	 2.000000	 flanked_bex_freq_32_amplitude_0.5_rep_2_b_H_2.0.png	 H	 b	 t	 n.a.	 7.559910e-01
2	 2	 276	 flanked	 bex	 6	 5.000000	 2.000000	 flanked_bex_freq_6_amplitude_5_rep_2_b_H_2.0.png	 H	 b	 b	 n.a.	 4.278771e-01
2	 2	 277	 flanked	 bex	 32	 5.000000	 2.000000	 flanked_bex_freq_32_amplitude_5_rep_3_r_H_2.0.png	 H	 r	 b	 n.a.	 4.759945e-01
2	 2	 278	 flanked	 bex	 4	 3.000000	 2.000000	 flanked_bex_freq_4_amplitude_3_rep_6_l_H_2.0.png	 H	 l	 l	 n.a.	 3.037258e-01
2	 2	 279	 flanked	 bex	 32	 5.000000	 2.000000	 flanked_bex_freq_32_amplitude_5_rep_2_r_D_2.0.png	 D	 r	 r	 n.a.	 4.955165e-01
2	 2	 280	 flanked	 bex	 8	 1.500000	 2.000000	 flanked_bex_freq_8_amplitude_1.5_rep_9_t_D_2.0.png	 D	 t	 t	 n.a.	 6.093034e-01
2	 2	 281	 flanked	 bex	 32	 3.000000	 2.000000	 flanked_bex_freq_32_amplitude_3_rep_3_t_D_2.0.png	 D	 t	 l	 n.a.	 7.179630e-01
2	 2	 282	 flanked	 bex	 6	 3.000000	 2.000000	 flanked_bex_freq_6_amplitude_3_rep_2_t_D_2.0.png	 D	 t	 b	 n.a.	 6.659847e-01
2	 2	 283	 flanked	 bex	 32	 1.500000	 2.000000	 flanked_bex_freq_32_amplitude_1.5_rep_6_l_N_2.0.png	 N	 l	 t	 n.a.	 6.472553e-01
2	 2	 284	 flanked	 bex	 4	 1.000000	 2.000000	 flanked_bex_freq_4_amplitude_1_rep_3_b_H_2.0.png	 H	 b	 l	 n.a.	 3.751750e-01
2	 2	 285	 flanked	 bex	 4	 5.000000	 2.000000	 flanked_bex_freq_4_amplitude_5_rep_5_b_N_2.0.png	 N	 b	 b	 n.a.	 3.088400e-01
2	 2	 286	 flanked	 bex	 6	 1.500000	 2.000000	 flanked_bex_freq_6_amplitude_1.5_rep_1_l_D_2.0.png	 D	 l	 t	 n.a.	 8.803525e-01
2	 2	 287	 flanked	 bex	 8	 5.000000	 2.000000	 flanked_bex_freq_8_amplitude_5_rep_5_l_D_2.0.png	 D	 l	 l	 n.a.	 4.187871e-01
2	 2	 288	 flanked	 bex	 2	 1.500000	 2.000000	 flanked_bex_freq_2_amplitude_1.5_rep_3_b_N_2.0.png	 N	 b	 l	 n.a.	 3.912955e-01
2	 2	 289	 flanked	 bex	 2	 1.000000	 2.000000	 flanked_bex_freq_2_amplitude_1_rep_6_b_D_2.0.png	 D	 b	 b	 n.a.	 5.459488e-01
2	 2	 290	 flanked	 bex	 16	 3.000000	 2.000000	 flanked_bex_freq_16_amplitude_3_rep_9_r_K_2.0.png	 K	 r	 r	 n.a.	 4.687097e-01
2	 2	 291	 flanked	 bex	 6	 1.000000	 2.000000	 flanked_bex_freq_6_amplitude_1_rep_3_r_D_2.0.png	 D	 r	 l	 n.a.	 5.180647e-01
2	 2	 292	 flanked	 bex	 8	 2.500000	 2.000000	 flanked_bex_freq_8_amplitude_2.5_rep_7_b_N_2.0.png	 N	 b	 b	 n.a.	 2.921981e-01
2	 2	 293	 flanked	 bex	 6	 0.500000	 2.000000	 flanked_bex_freq_6_amplitude_0.5_rep_2_t_K_2.0.png	 K	 t	 l	 n.a.	 5.101744e-01
2	 2	 294	 flanked	 bex	 8	 2.500000	 2.000000	 flanked_bex_freq_8_amplitude_2.5_rep_3_l_N_2.0.png	 N	 l	 l	 n.a.	 6.117493e-01
2	 2	 295	 flanked	 bex	 16	 2.000000	 2.000000	 flanked_bex_freq_16_amplitude_2_rep_0_r_N_2.0.png	 N	 r	 r	 n.a.	 5.382615e-01
2	 2	 296	 flanked	 bex	 4	 1.000000	 2.000000	 flanked_bex_freq_4_amplitude_1_rep_1_r_N_2.0.png	 N	 r	 r	 n.a.	 5.494051e-01
2	 2	 297	 flanked	 bex	 2	 1.500000	 2.000000	 flanked_bex_freq_2_amplitude_1.5_rep_8_l_D_2.0.png	 D	 l	 b	 n.a.	 6.513501e-01
2	 2	 298	 flanked	 bex	 6	 1.000000	 2.000000	 flanked_bex_freq_6_amplitude_1_rep_9_t_K_2.0.png	 K	 t	 b	 n.a.	 8.958596e-01
2	 2	 299	 flanked	 bex	 6	 0.500000	 2.000000	 flanked_bex_freq_6_amplitude_0.5_rep_4_t_D_2.0.png	 D	 t	 l	 n.a.	 4.320146e-01
2	 2	 300	 flanked	 bex	 4	 3.000000	 2.000000	 flanked_bex_freq_4_amplitude_3_rep_5_r_D_2.0.png	 D	 r	 r	 n.a.	 3.620951e-01
2	 2	 301	 flanked	 bex	 6	 5.000000	 2.000000	 flanked_bex_freq_6_amplitude_5_rep_9_l_K_2.0.png	 K	 l	 l	 n.a.	 4.105392e-01
2	 2	 302	 flanked	 bex	 32	 1.000000	 2.000000	 flanked_bex_freq_32_amplitude_1_rep_3_l_H_2.0.png	 H	 l	 t	 n.a.	 5.064475e-01
2	 2	 303	 flanked	 bex	 16	 2.000000	 2.000000	 flanked_bex_freq_16_amplitude_2_rep_6_t_D_2.0.png	 D	 t	 t	 n.a.	 6.218814e-01
2	 2	 304	 flanked	 bex	 4	 1.000000	 2.000000	 flanked_bex_freq_4_amplitude_1_rep_2_b_D_2.0.png	 D	 b	 l	 n.a.	 4.716092e-01
2	 2	 305	 flanked	 bex	 2	 3.000000	 2.000000	 flanked_bex_freq_2_amplitude_3_rep_1_b_K_2.0.png	 K	 b	 b	 n.a.	 3.088040e-01
2	 2	 306	 flanked	 bex	 8	 1.500000	 2.000000	 flanked_bex_freq_8_amplitude_1.5_rep_4_l_D_2.0.png	 D	 l	 l	 n.a.	 5.054921e-01
2	 2	 307	 flanked	 bex	 8	 5.000000	 2.000000	 flanked_bex_freq_8_amplitude_5_rep_2_l_N_2.0.png	 N	 l	 l	 n.a.	 3.076966e-01
2	 2	 308	 flanked	 bex	 16	 3.000000	 2.000000	 flanked_bex_freq_16_amplitude_3_rep_2_r_N_2.0.png	 N	 r	 r	 n.a.	 9.713077e-01
2	 2	 309	 flanked	 bex	 32	 3.000000	 2.000000	 flanked_bex_freq_32_amplitude_3_rep_6_t_N_2.0.png	 N	 t	 b	 n.a.	 4.186326e-01
2	 2	 310	 flanked	 bex	 4	 2.000000	 2.000000	 flanked_bex_freq_4_amplitude_2_rep_3_r_H_2.0.png	 H	 r	 l	 n.a.	 8.326087e-01
2	 2	 311	 flanked	 bex	 6	 1.500000	 2.000000	 flanked_bex_freq_6_amplitude_1.5_rep_0_b_N_2.0.png	 N	 b	 b	 n.a.	 5.270897e-01
2	 2	 312	 flanked	 bex	 8	 0.500000	 2.000000	 flanked_bex_freq_8_amplitude_0.5_rep_0_b_D_2.0.png	 D	 b	 t	 n.a.	 7.307529e-01
2	 2	 313	 flanked	 bex	 8	 1.000000	 2.000000	 flanked_bex_freq_8_amplitude_1_rep_0_r_H_2.0.png	 H	 r	 t	 n.a.	 4.059741e-01
2	 2	 314	 flanked	 bex	 6	 1.500000	 2.000000	 flanked_bex_freq_6_amplitude_1.5_rep_2_t_N_2.0.png	 N	 t	 l	 n.a.	 6.380283e-01
2	 2	 315	 flanked	 bex	 32	 2.000000	 2.000000	 flanked_bex_freq_32_amplitude_2_rep_3_b_K_2.0.png	 K	 b	 b	 n.a.	 3.509056e-01
2	 2	 316	 flanked	 bex	 4	 2.500000	 2.000000	 flanked_bex_freq_4_amplitude_2.5_rep_9_l_H_2.0.png	 H	 l	 l	 n.a.	 3.981396e-01
2	 2	 317	 flanked	 bex	 16	 1.000000	 2.000000	 flanked_bex_freq_16_amplitude_1_rep_0_t_K_2.0.png	 K	 t	 l	 n.a.	 4.751442e-01
2	 2	 318	 flanked	 bex	 32	 1.000000	 2.000000	 flanked_bex_freq_32_amplitude_1_rep_5_b_N_2.0.png	 N	 b	 t	 n.a.	 4.563351e-01
2	 2	 319	 flanked	 bex	 6	 3.000000	 2.000000	 flanked_bex_freq_6_amplitude_3_rep_9_l_D_2.0.png	 D	 l	 l	 n.a.	 3.915337e-01
2	 2	 320	 flanked	 bex	 4	 5.000000	 2.000000	 flanked_bex_freq_4_amplitude_5_rep_4_r_D_2.0.png	 D	 r	 r	 n.a.	 3.052495e-01
2	 2	 321	 flanked	 bex	 16	 1.000000	 2.000000	 flanked_bex_freq_16_amplitude_1_rep_9_t_D_2.0.png	 D	 t	 t	 n.a.	 6.965172e-01
2	 2	 322	 flanked	 bex	 8	 1.000000	 2.000000	 flanked_bex_freq_8_amplitude_1_rep_8_r_K_2.0.png	 K	 r	 b	 n.a.	 4.056374e-01
2	 2	 323	 flanked	 bex	 16	 2.000000	 2.000000	 flanked_bex_freq_16_amplitude_2_rep_8_b_K_2.0.png	 K	 b	 b	 n.a.	 4.746557e-01
2	 2	 324	 flanked	 bex	 16	 0.500000	 2.000000	 flanked_bex_freq_16_amplitude_0.5_rep_2_l_H_2.0.png	 H	 l	 t	 n.a.	 7.423026e-01
2	 2	 325	 flanked	 bex	 4	 5.000000	 2.000000	 flanked_bex_freq_4_amplitude_5_rep_1_t_K_2.0.png	 K	 t	 t	 n.a.	 5.272516e-01
2	 2	 326	 flanked	 bex	 32	 3.000000	 2.000000	 flanked_bex_freq_32_amplitude_3_rep_0_t_H_2.0.png	 H	 t	 b	 n.a.	 3.815406e-01
2	 2	 327	 flanked	 bex	 4	 5.000000	 2.000000	 flanked_bex_freq_4_amplitude_5_rep_2_r_D_2.0.png	 D	 r	 r	 n.a.	 3.117475e-01
2	 2	 328	 flanked	 bex	 4	 0.500000	 2.000000	 flanked_bex_freq_4_amplitude_0.5_rep_9_t_K_2.0.png	 K	 t	 l	 n.a.	 5.233771e-01
2	 2	 329	 flanked	 bex	 2	 1.000000	 2.000000	 flanked_bex_freq_2_amplitude_1_rep_4_l_K_2.0.png	 K	 l	 t	 n.a.	 4.866315e-01
2	 2	 330	 flanked	 bex	 16	 1.500000	 2.000000	 flanked_bex_freq_16_amplitude_1.5_rep_2_l_N_2.0.png	 N	 l	 l	 n.a.	 5.919512e-01
2	 2	 331	 flanked	 bex	 2	 0.500000	 2.000000	 flanked_bex_freq_2_amplitude_0.5_rep_5_l_D_2.0.png	 D	 l	 b	 n.a.	 5.937309e-01
2	 2	 332	 flanked	 bex	 4	 1.000000	 2.000000	 flanked_bex_freq_4_amplitude_1_rep_6_r_D_2.0.png	 D	 r	 t	 n.a.	 6.141363e-01
2	 2	 333	 flanked	 bex	 32	 2.000000	 2.000000	 flanked_bex_freq_32_amplitude_2_rep_5_t_K_2.0.png	 K	 t	 b	 n.a.	 6.244399e-01
2	 2	 334	 flanked	 bex	 16	 0.500000	 2.000000	 flanked_bex_freq_16_amplitude_0.5_rep_5_r_N_2.0.png	 N	 r	 l	 n.a.	 6.561231e-01
2	 2	 335	 flanked	 bex	 32	 0.500000	 2.000000	 flanked_bex_freq_32_amplitude_0.5_rep_5_r_K_2.0.png	 K	 r	 t	 n.a.	 5.762882e-01
2	 2	 336	 flanked	 bex	 2	 3.000000	 2.000000	 flanked_bex_freq_2_amplitude_3_rep_3_b_H_2.0.png	 H	 b	 b	 n.a.	 4.421397e-01
2	 2	 337	 flanked	 bex	 8	 1.000000	 2.000000	 flanked_bex_freq_8_amplitude_1_rep_5_r_N_2.0.png	 N	 r	 l	 n.a.	 6.242036e-01
2	 2	 338	 flanked	 bex	 8	 3.000000	 2.000000	 flanked_bex_freq_8_amplitude_3_rep_9_l_K_2.0.png	 K	 l	 l	 n.a.	 4.182221e-01
2	 2	 339	 flanked	 bex	 6	 2.500000	 2.000000	 flanked_bex_freq_6_amplitude_2.5_rep_6_t_D_2.0.png	 D	 t	 b	 n.a.	 4.780990e-01
2	 2	 340	 flanked	 bex	 16	 3.000000	 2.000000	 flanked_bex_freq_16_amplitude_3_rep_4_r_H_2.0.png	 H	 r	 r	 n.a.	 3.409125e-01
2	 2	 341	 flanked	 bex	 16	 0.500000	 2.000000	 flanked_bex_freq_16_amplitude_0.5_rep_8_t_H_2.0.png	 H	 t	 t	 n.a.	 9.217483e-01
2	 2	 342	 flanked	 bex	 32	 5.000000	 2.000000	 flanked_bex_freq_32_amplitude_5_rep_5_l_H_2.0.png	 H	 l	 l	 n.a.	 3.818497e-01
2	 2	 343	 flanked	 bex	 8	 3.000000	 2.000000	 flanked_bex_freq_8_amplitude_3_rep_6_r_H_2.0.png	 H	 r	 r	 n.a.	 2.685754e-01
2	 2	 344	 flanked	 bex	 16	 1.000000	 2.000000	 flanked_bex_freq_16_amplitude_1_rep_2_l_K_2.0.png	 K	 l	 l	 n.a.	 6.833564e-01
2	 2	 345	 flanked	 bex	 8	 0.500000	 2.000000	 flanked_bex_freq_8_amplitude_0.5_rep_3_t_H_2.0.png	 H	 t	 l	 n.a.	 5.616290e-01
2	 2	 346	 flanked	 bex	 32	 0.500000	 2.000000	 flanked_bex_freq_32_amplitude_0.5_rep_7_t_D_2.0.png	 D	 t	 b	 n.a.	 3.623877e-01
2	 2	 347	 flanked	 bex	 4	 2.500000	 2.000000	 flanked_bex_freq_4_amplitude_2.5_rep_8_b_D_2.0.png	 D	 b	 r	 n.a.	 4.964142e-01
2	 2	 348	 flanked	 bex	 8	 2.500000	 2.000000	 flanked_bex_freq_8_amplitude_2.5_rep_2_l_D_2.0.png	 D	 l	 l	 n.a.	 3.465531e-01
2	 2	 349	 flanked	 bex	 8	 2.000000	 2.000000	 flanked_bex_freq_8_amplitude_2_rep_8_l_D_2.0.png	 D	 l	 l	 n.a.	 4.038767e-01
2	 2	 350	 flanked	 bex	 8	 1.000000	 2.000000	 flanked_bex_freq_8_amplitude_1_rep_3_t_K_2.0.png	 K	 t	 b	 n.a.	 8.697253e-01
2	 2	 351	 flanked	 bex	 2	 2.000000	 2.000000	 flanked_bex_freq_2_amplitude_2_rep_8_b_K_2.0.png	 K	 b	 l	 n.a.	 6.016761e-01
2	 2	 352	 flanked	 bex	 6	 3.000000	 2.000000	 flanked_bex_freq_6_amplitude_3_rep_4_t_D_2.0.png	 D	 t	 b	 n.a.	 3.166550e-01
2	 2	 353	 flanked	 bex	 6	 1.000000	 2.000000	 flanked_bex_freq_6_amplitude_1_rep_4_r_H_2.0.png	 H	 r	 r	 n.a.	 3.247545e-01
2	 2	 354	 flanked	 bex	 8	 2.000000	 2.000000	 flanked_bex_freq_8_amplitude_2_rep_2_r_H_2.0.png	 H	 r	 l	 n.a.	 3.961655e-01
2	 2	 355	 flanked	 bex	 2	 1.500000	 2.000000	 flanked_bex_freq_2_amplitude_1.5_rep_5_r_H_2.0.png	 H	 r	 b	 n.a.	 3.985016e-01
2	 2	 356	 flanked	 bex	 32	 2.500000	 2.000000	 flanked_bex_freq_32_amplitude_2.5_rep_3_t_N_2.0.png	 N	 t	 t	 n.a.	 6.039109e-01
2	 2	 357	 flanked	 bex	 32	 0.500000	 2.000000	 flanked_bex_freq_32_amplitude_0.5_rep_1_r_N_2.0.png	 N	 r	 l	 n.a.	 5.953880e-01
2	 2	 358	 flanked	 bex	 6	 3.000000	 2.000000	 flanked_bex_freq_6_amplitude_3_rep_6_l_D_2.0.png	 D	 l	 l	 n.a.	 4.147399e-01
2	 2	 359	 flanked	 bex	 2	 0.500000	 2.000000	 flanked_bex_freq_2_amplitude_0.5_rep_6_b_H_2.0.png	 H	 b	 b	 n.a.	 4.022712e-01
2	 2	 360	 flanked	 bex	 8	 1.500000	 2.000000	 flanked_bex_freq_8_amplitude_1.5_rep_7_b_N_2.0.png	 N	 b	 b	 n.a.	 5.463436e-01
2	 2	 361	 flanked	 bex	 4	 1.500000	 2.000000	 flanked_bex_freq_4_amplitude_1.5_rep_8_r_N_2.0.png	 N	 r	 l	 n.a.	 3.579674e-01
2	 2	 362	 flanked	 bex	 16	 1.500000	 2.000000	 flanked_bex_freq_16_amplitude_1.5_rep_8_l_N_2.0.png	 N	 l	 b	 n.a.	 3.711672e-01
2	 2	 363	 flanked	 bex	 4	 1.500000	 2.000000	 flanked_bex_freq_4_amplitude_1.5_rep_0_b_H_2.0.png	 H	 b	 r	 n.a.	 5.950491e-01
2	 2	 364	 flanked	 bex	 32	 2.500000	 2.000000	 flanked_bex_freq_32_amplitude_2.5_rep_4_l_N_2.0.png	 N	 l	 l	 n.a.	 4.844373e-01
2	 2	 365	 flanked	 bex	 6	 5.000000	 2.000000	 flanked_bex_freq_6_amplitude_5_rep_7_l_D_2.0.png	 D	 l	 l	 n.a.	 2.898591e-01
2	 2	 366	 flanked	 bex	 8	 1.000000	 2.000000	 flanked_bex_freq_8_amplitude_1_rep_4_t_N_2.0.png	 N	 t	 l	 n.a.	 4.232998e-01
2	 2	 367	 flanked	 bex	 2	 2.000000	 2.000000	 flanked_bex_freq_2_amplitude_2_rep_2_r_N_2.0.png	 N	 r	 b	 n.a.	 3.158965e-01
2	 2	 368	 flanked	 bex	 8	 5.000000	 2.000000	 flanked_bex_freq_8_amplitude_5_rep_3_l_N_2.0.png	 N	 l	 l	 n.a.	 2.927242e-01
2	 2	 369	 flanked	 bex	 32	 0.500000	 2.000000	 flanked_bex_freq_32_amplitude_0.5_rep_4_t_H_2.0.png	 H	 t	 t	 n.a.	 8.635244e-01
2	 2	 370	 flanked	 bex	 16	 5.000000	 2.000000	 flanked_bex_freq_16_amplitude_5_rep_5_r_N_2.0.png	 N	 r	 r	 n.a.	 3.468745e-01
2	 2	 371	 flanked	 bex	 32	 3.000000	 2.000000	 flanked_bex_freq_32_amplitude_3_rep_9_l_D_2.0.png	 D	 l	 l	 n.a.	 4.105914e-01
2	 2	 372	 flanked	 bex	 4	 1.000000	 2.000000	 flanked_bex_freq_4_amplitude_1_rep_9_b_D_2.0.png	 D	 b	 b	 n.a.	 5.679568e-01
2	 2	 373	 flanked	 bex	 32	 0.500000	 2.000000	 flanked_bex_freq_32_amplitude_0.5_rep_8_b_N_2.0.png	 N	 b	 r	 n.a.	 3.717048e-01
2	 2	 374	 flanked	 bex	 2	 5.000000	 2.000000	 flanked_bex_freq_2_amplitude_5_rep_5_t_H_2.0.png	 H	 t	 t	 n.a.	 4.766657e-01
2	 2	 375	 flanked	 bex	 16	 2.500000	 2.000000	 flanked_bex_freq_16_amplitude_2.5_rep_8_l_N_2.0.png	 N	 l	 b	 n.a.	 3.527908e-01
2	 2	 376	 flanked	 bex	 32	 1.000000	 2.000000	 flanked_bex_freq_32_amplitude_1_rep_2_l_H_2.0.png	 H	 l	 l	 n.a.	 5.148078e-01
2	 2	 377	 flanked	 bex	 4	 2.000000	 2.000000	 flanked_bex_freq_4_amplitude_2_rep_0_t_H_2.0.png	 H	 t	 b	 n.a.	 4.107637e-01
2	 2	 378	 flanked	 bex	 6	 1.000000	 2.000000	 flanked_bex_freq_6_amplitude_1_rep_0_t_K_2.0.png	 K	 t	 r	 n.a.	 7.057184e-01
2	 2	 379	 flanked	 bex	 8	 3.000000	 2.000000	 flanked_bex_freq_8_amplitude_3_rep_2_r_D_2.0.png	 D	 r	 r	 n.a.	 3.353053e-01
2	 2	 380	 flanked	 bex	 4	 1.500000	 2.000000	 flanked_bex_freq_4_amplitude_1.5_rep_5_l_H_2.0.png	 H	 l	 b	 n.a.	 4.780494e-01
2	 2	 381	 flanked	 bex	 16	 1.000000	 2.000000	 flanked_bex_freq_16_amplitude_1_rep_6_l_N_2.0.png	 N	 l	 l	 n.a.	 3.743013e-01
2	 2	 382	 flanked	 bex	 4	 1.500000	 2.000000	 flanked_bex_freq_4_amplitude_1.5_rep_4_l_N_2.0.png	 N	 l	 r	 n.a.	 4.657218e-01
2	 2	 383	 flanked	 bex	 6	 5.000000	 2.000000	 flanked_bex_freq_6_amplitude_5_rep_8_l_K_2.0.png	 K	 l	 l	 n.a.	 3.774706e-01
2	 2	 384	 flanked	 bex	 8	 1.500000	 2.000000	 flanked_bex_freq_8_amplitude_1.5_rep_8_b_H_2.0.png	 H	 b	 l	 n.a.	 1.001660e+00
2	 2	 385	 flanked	 bex	 32	 1.500000	 2.000000	 flanked_bex_freq_32_amplitude_1.5_rep_5_l_N_2.0.png	 N	 l	 l	 n.a.	 6.673642e-01
2	 2	 386	 flanked	 bex	 2	 0.500000	 2.000000	 flanked_bex_freq_2_amplitude_0.5_rep_7_r_D_2.0.png	 D	 r	 t	 n.a.	 4.834772e-01
2	 2	 387	 flanked	 bex	 32	 3.000000	 2.000000	 flanked_bex_freq_32_amplitude_3_rep_4_b_N_2.0.png	 N	 b	 b	 n.a.	 5.573135e-01
2	 2	 388	 flanked	 bex	 6	 2.000000	 2.000000	 flanked_bex_freq_6_amplitude_2_rep_4_t_D_2.0.png	 D	 t	 l	 n.a.	 4.200262e-01
2	 2	 389	 flanked	 bex	 16	 2.000000	 2.000000	 flanked_bex_freq_16_amplitude_2_rep_2_l_N_2.0.png	 N	 l	 l	 n.a.	 5.198427e-01
2	 2	 390	 flanked	 bex	 4	 2.500000	 2.000000	 flanked_bex_freq_4_amplitude_2.5_rep_7_t_D_2.0.png	 D	 t	 t	 n.a.	 4.833220e-01
2	 2	 391	 flanked	 bex	 2	 1.000000	 2.000000	 flanked_bex_freq_2_amplitude_1_rep_9_t_D_2.0.png	 D	 t	 b	 n.a.	 6.114784e-01
2	 2	 392	 flanked	 bex	 2	 5.000000	 2.000000	 flanked_bex_freq_2_amplitude_5_rep_6_r_D_2.0.png	 D	 r	 t	 n.a.	 6.716902e-01
2	 2	 393	 flanked	 bex	 2	 1.500000	 2.000000	 flanked_bex_freq_2_amplitude_1.5_rep_2_b_H_2.0.png	 H	 b	 b	 n.a.	 5.123599e-01
2	 2	 394	 flanked	 bex	 6	 0.500000	 2.000000	 flanked_bex_freq_6_amplitude_0.5_rep_9_r_N_2.0.png	 N	 r	 r	 n.a.	 7.510134e-01
2	 2	 395	 flanked	 bex	 16	 1.500000	 2.000000	 flanked_bex_freq_16_amplitude_1.5_rep_1_l_N_2.0.png	 N	 l	 l	 n.a.	 7.379186e-01
2	 2	 396	 flanked	 bex	 8	 2.000000	 2.000000	 flanked_bex_freq_8_amplitude_2_rep_4_l_N_2.0.png	 N	 l	 b	 n.a.	 6.876177e-01
2	 2	 397	 flanked	 bex	 32	 1.000000	 2.000000	 flanked_bex_freq_32_amplitude_1_rep_6_t_D_2.0.png	 D	 t	 t	 n.a.	 4.627761e-01
2	 2	 398	 flanked	 bex	 4	 0.500000	 2.000000	 flanked_bex_freq_4_amplitude_0.5_rep_6_l_H_2.0.png	 H	 l	 l	 n.a.	 4.449254e-01
2	 2	 399	 flanked	 bex	 4	 2.500000	 2.000000	 flanked_bex_freq_4_amplitude_2.5_rep_6_l_N_2.0.png	 N	 l	 b	 n.a.	 4.416381e-01
2	 2	 400	 flanked	 bex	 6	 5.000000	 2.000000	 flanked_bex_freq_6_amplitude_5_rep_1_t_H_2.0.png	 H	 t	 t	 n.a.	 3.752316e-01
2	 2	 401	 flanked	 bex	 4	 0.500000	 2.000000	 flanked_bex_freq_4_amplitude_0.5_rep_8_l_H_2.0.png	 H	 l	 r	 n.a.	 2.345061e-01
2	 2	 402	 flanked	 bex	 6	 2.000000	 2.000000	 flanked_bex_freq_6_amplitude_2_rep_0_r_H_2.0.png	 H	 r	 b	 n.a.	 2.366063e-01
2	 2	 403	 flanked	 bex	 16	 1.500000	 2.000000	 flanked_bex_freq_16_amplitude_1.5_rep_9_r_H_2.0.png	 H	 r	 b	 n.a.	 7.127544e-01
2	 2	 404	 flanked	 bex	 16	 2.500000	 2.000000	 flanked_bex_freq_16_amplitude_2.5_rep_0_l_K_2.0.png	 K	 l	 l	 n.a.	 4.358947e-01
2	 2	 405	 flanked	 bex	 32	 2.500000	 2.000000	 flanked_bex_freq_32_amplitude_2.5_rep_5_r_N_2.0.png	 N	 r	 t	 n.a.	 5.639724e-01
2	 2	 406	 flanked	 bex	 16	 2.500000	 2.000000	 flanked_bex_freq_16_amplitude_2.5_rep_2_r_H_2.0.png	 H	 r	 l	 n.a.	 5.081209e-01
2	 2	 407	 flanked	 bex	 16	 5.000000	 2.000000	 flanked_bex_freq_16_amplitude_5_rep_9_b_D_2.0.png	 D	 b	 b	 n.a.	 3.508432e-01
2	 2	 408	 flanked	 bex	 6	 3.000000	 2.000000	 flanked_bex_freq_6_amplitude_3_rep_5_b_K_2.0.png	 K	 b	 b	 n.a.	 3.158247e-01
2	 2	 409	 flanked	 bex	 6	 1.000000	 2.000000	 flanked_bex_freq_6_amplitude_1_rep_5_b_K_2.0.png	 K	 b	 t	 n.a.	 7.140390e-01
2	 2	 410	 flanked	 bex	 8	 1.500000	 2.000000	 flanked_bex_freq_8_amplitude_1.5_rep_3_t_K_2.0.png	 K	 t	 b	 n.a.	 3.445373e-01
2	 2	 411	 flanked	 bex	 8	 5.000000	 2.000000	 flanked_bex_freq_8_amplitude_5_rep_6_t_N_2.0.png	 N	 t	 t	 n.a.	 5.084062e-01
2	 2	 412	 flanked	 bex	 6	 1.500000	 2.000000	 flanked_bex_freq_6_amplitude_1.5_rep_7_b_H_2.0.png	 H	 b	 l	 n.a.	 5.601951e-01
2	 2	 413	 flanked	 bex	 32	 5.000000	 2.000000	 flanked_bex_freq_32_amplitude_5_rep_7_l_K_2.0.png	 K	 l	 l	 n.a.	 4.242681e-01
2	 2	 414	 flanked	 bex	 2	 0.500000	 2.000000	 flanked_bex_freq_2_amplitude_0.5_rep_8_r_N_2.0.png	 N	 r	 b	 n.a.	 6.210934e-01
2	 2	 415	 flanked	 bex	 8	 0.500000	 2.000000	 flanked_bex_freq_8_amplitude_0.5_rep_5_r_K_2.0.png	 K	 r	 r	 n.a.	 7.617365e-01
2	 2	 416	 flanked	 bex	 16	 0.500000	 2.000000	 flanked_bex_freq_16_amplitude_0.5_rep_7_l_N_2.0.png	 N	 l	 l	 n.a.	 6.688744e-01
2	 2	 417	 flanked	 bex	 16	 1.500000	 2.000000	 flanked_bex_freq_16_amplitude_1.5_rep_7_l_H_2.0.png	 H	 l	 l	 n.a.	 5.614953e-01
2	 2	 418	 flanked	 bex	 16	 0.500000	 2.000000	 flanked_bex_freq_16_amplitude_0.5_rep_3_l_D_2.0.png	 D	 l	 b	 n.a.	 3.124659e-01
2	 2	 419	 flanked	 bex	 16	 2.000000	 2.000000	 flanked_bex_freq_16_amplitude_2_rep_9_l_H_2.0.png	 H	 l	 l	 n.a.	 3.876378e-01
2	 2	 420	 flanked	 bex	 32	 5.000000	 2.000000	 flanked_bex_freq_32_amplitude_5_rep_6_l_N_2.0.png	 N	 l	 t	 n.a.	 6.269087e-01
