subject	 session	 trial	 flanked	 distortion	 freq	 amplitude	 spacing	 im_name	 targ_letter	 targ_pos	 response	 eyemovement	 RT
8	 2	 1	 unflanked	 bex	 4	 2.500000	 0.000000	 unflanked_bex_freq_4_amplitude_2.5_rep_4_b_D.png	 D	 b	 b	 n.a.	 4.373290e-01
8	 2	 2	 unflanked	 bex	 2	 2.500000	 0.000000	 unflanked_bex_freq_2_amplitude_2.5_rep_9_r_N.png	 N	 r	 b	 n.a.	 7.896141e-01
8	 2	 3	 unflanked	 bex	 32	 1.000000	 0.000000	 unflanked_bex_freq_32_amplitude_1_rep_8_l_H.png	 H	 l	 t	 n.a.	 5.930528e-01
8	 2	 4	 unflanked	 bex	 2	 2.500000	 0.000000	 unflanked_bex_freq_2_amplitude_2.5_rep_7_t_K.png	 K	 t	 b	 n.a.	 5.659876e-01
8	 2	 5	 unflanked	 bex	 4	 0.500000	 0.000000	 unflanked_bex_freq_4_amplitude_0.5_rep_1_t_N.png	 N	 t	 l	 n.a.	 5.644453e-01
8	 2	 6	 unflanked	 bex	 32	 1.500000	 0.000000	 unflanked_bex_freq_32_amplitude_1.5_rep_3_l_N.png	 N	 l	 t	 n.a.	 5.369734e-01
8	 2	 7	 unflanked	 bex	 32	 1.000000	 0.000000	 unflanked_bex_freq_32_amplitude_1_rep_5_l_D.png	 D	 l	 b	 n.a.	 3.869946e-01
8	 2	 8	 unflanked	 bex	 4	 5.000000	 0.000000	 unflanked_bex_freq_4_amplitude_5_rep_7_r_K.png	 K	 r	 r	 n.a.	 2.224086e-01
8	 2	 9	 unflanked	 bex	 6	 2.000000	 0.000000	 unflanked_bex_freq_6_amplitude_2_rep_5_l_N.png	 N	 l	 l	 n.a.	 3.421725e-01
8	 2	 10	 unflanked	 bex	 16	 2.500000	 0.000000	 unflanked_bex_freq_16_amplitude_2.5_rep_4_r_H.png	 H	 r	 r	 n.a.	 3.208536e-01
8	 2	 11	 unflanked	 bex	 32	 5.000000	 0.000000	 unflanked_bex_freq_32_amplitude_5_rep_1_b_H.png	 H	 b	 b	 n.a.	 3.583209e-01
8	 2	 12	 unflanked	 bex	 6	 0.500000	 0.000000	 unflanked_bex_freq_6_amplitude_0.5_rep_3_b_D.png	 D	 b	 b	 n.a.	 4.712851e-01
8	 2	 13	 unflanked	 bex	 2	 5.000000	 0.000000	 unflanked_bex_freq_2_amplitude_5_rep_6_b_D.png	 D	 b	 b	 n.a.	 3.396426e-01
8	 2	 14	 unflanked	 bex	 32	 1.000000	 0.000000	 unflanked_bex_freq_32_amplitude_1_rep_9_r_K.png	 K	 r	 b	 n.a.	 5.194120e-01
8	 2	 15	 unflanked	 bex	 8	 2.500000	 0.000000	 unflanked_bex_freq_8_amplitude_2.5_rep_5_b_D.png	 D	 b	 b	 n.a.	 2.734539e-01
8	 2	 16	 unflanked	 bex	 4	 1.500000	 0.000000	 unflanked_bex_freq_4_amplitude_1.5_rep_2_t_H.png	 H	 t	 b	 n.a.	 6.604356e-01
8	 2	 17	 unflanked	 bex	 16	 1.000000	 0.000000	 unflanked_bex_freq_16_amplitude_1_rep_1_l_K.png	 K	 l	 b	 n.a.	 2.961319e-01
8	 2	 18	 unflanked	 bex	 4	 2.000000	 0.000000	 unflanked_bex_freq_4_amplitude_2_rep_1_r_D.png	 D	 r	 r	 n.a.	 2.431202e-01
8	 2	 19	 unflanked	 bex	 32	 1.500000	 0.000000	 unflanked_bex_freq_32_amplitude_1.5_rep_9_b_H.png	 H	 b	 b	 n.a.	 4.286435e-01
8	 2	 20	 unflanked	 bex	 32	 2.000000	 0.000000	 unflanked_bex_freq_32_amplitude_2_rep_0_r_N.png	 N	 r	 r	 n.a.	 4.373147e-01
8	 2	 21	 unflanked	 bex	 16	 2.000000	 0.000000	 unflanked_bex_freq_16_amplitude_2_rep_5_l_D.png	 D	 l	 l	 n.a.	 2.967763e-01
8	 2	 22	 unflanked	 bex	 8	 2.500000	 0.000000	 unflanked_bex_freq_8_amplitude_2.5_rep_6_l_K.png	 K	 l	 l	 n.a.	 2.361659e-01
8	 2	 23	 unflanked	 bex	 6	 0.500000	 0.000000	 unflanked_bex_freq_6_amplitude_0.5_rep_7_l_D.png	 D	 l	 b	 n.a.	 5.523001e-01
8	 2	 24	 unflanked	 bex	 6	 1.000000	 0.000000	 unflanked_bex_freq_6_amplitude_1_rep_7_t_H.png	 H	 t	 b	 n.a.	 3.577081e-01
8	 2	 25	 unflanked	 bex	 8	 0.500000	 0.000000	 unflanked_bex_freq_8_amplitude_0.5_rep_0_b_N.png	 N	 b	 l	 n.a.	 3.344698e-01
8	 2	 26	 unflanked	 bex	 8	 1.500000	 0.000000	 unflanked_bex_freq_8_amplitude_1.5_rep_6_r_D.png	 D	 r	 r	 n.a.	 2.072117e-01
8	 2	 27	 unflanked	 bex	 6	 2.500000	 0.000000	 unflanked_bex_freq_6_amplitude_2.5_rep_1_b_H.png	 H	 b	 b	 n.a.	 3.113695e-01
8	 2	 28	 unflanked	 bex	 2	 5.000000	 0.000000	 unflanked_bex_freq_2_amplitude_5_rep_3_l_N.png	 N	 l	 l	 n.a.	 2.618827e-01
8	 2	 29	 unflanked	 bex	 32	 1.000000	 0.000000	 unflanked_bex_freq_32_amplitude_1_rep_1_l_K.png	 K	 l	 l	 n.a.	 5.999001e-01
8	 2	 30	 unflanked	 bex	 16	 0.500000	 0.000000	 unflanked_bex_freq_16_amplitude_0.5_rep_5_l_K.png	 K	 l	 b	 n.a.	 4.029034e-01
8	 2	 31	 unflanked	 bex	 2	 2.500000	 0.000000	 unflanked_bex_freq_2_amplitude_2.5_rep_5_b_K.png	 K	 b	 l	 n.a.	 3.427845e-01
8	 2	 32	 unflanked	 bex	 8	 3.000000	 0.000000	 unflanked_bex_freq_8_amplitude_3_rep_8_l_H.png	 H	 l	 l	 n.a.	 3.014475e-01
8	 2	 33	 unflanked	 bex	 2	 0.500000	 0.000000	 unflanked_bex_freq_2_amplitude_0.5_rep_6_l_H.png	 H	 l	 b	 n.a.	 8.381294e-01
8	 2	 34	 unflanked	 bex	 2	 2.000000	 0.000000	 unflanked_bex_freq_2_amplitude_2_rep_5_r_K.png	 K	 r	 l	 n.a.	 3.593045e-01
8	 2	 35	 unflanked	 bex	 8	 1.500000	 0.000000	 unflanked_bex_freq_8_amplitude_1.5_rep_2_l_H.png	 H	 l	 l	 n.a.	 3.321887e-01
8	 2	 36	 unflanked	 bex	 6	 5.000000	 0.000000	 unflanked_bex_freq_6_amplitude_5_rep_7_l_D.png	 D	 l	 l	 n.a.	 2.056775e-01
8	 2	 37	 unflanked	 bex	 6	 3.000000	 0.000000	 unflanked_bex_freq_6_amplitude_3_rep_6_l_K.png	 K	 l	 l	 n.a.	 2.132603e-01
8	 2	 38	 unflanked	 bex	 32	 2.000000	 0.000000	 unflanked_bex_freq_32_amplitude_2_rep_1_r_K.png	 K	 r	 r	 n.a.	 5.021679e-01
8	 2	 39	 unflanked	 bex	 6	 2.000000	 0.000000	 unflanked_bex_freq_6_amplitude_2_rep_3_t_K.png	 K	 t	 t	 n.a.	 4.921907e-01
8	 2	 40	 unflanked	 bex	 4	 5.000000	 0.000000	 unflanked_bex_freq_4_amplitude_5_rep_0_t_D.png	 D	 t	 t	 n.a.	 2.547577e-01
8	 2	 41	 unflanked	 bex	 32	 1.000000	 0.000000	 unflanked_bex_freq_32_amplitude_1_rep_3_l_H.png	 H	 l	 l	 n.a.	 3.907947e-01
8	 2	 42	 unflanked	 bex	 2	 0.500000	 0.000000	 unflanked_bex_freq_2_amplitude_0.5_rep_2_t_D.png	 D	 t	 r	 n.a.	 4.547585e-01
8	 2	 43	 unflanked	 bex	 8	 1.000000	 0.000000	 unflanked_bex_freq_8_amplitude_1_rep_1_l_H.png	 H	 l	 l	 n.a.	 3.658870e-01
8	 2	 44	 unflanked	 bex	 8	 1.000000	 0.000000	 unflanked_bex_freq_8_amplitude_1_rep_0_b_N.png	 N	 b	 l	 n.a.	 7.245928e-01
8	 2	 45	 unflanked	 bex	 32	 5.000000	 0.000000	 unflanked_bex_freq_32_amplitude_5_rep_3_t_D.png	 D	 t	 t	 n.a.	 4.125600e-01
8	 2	 46	 unflanked	 bex	 2	 1.500000	 0.000000	 unflanked_bex_freq_2_amplitude_1.5_rep_5_l_H.png	 H	 l	 b	 n.a.	 6.284470e-01
8	 2	 47	 unflanked	 bex	 16	 2.000000	 0.000000	 unflanked_bex_freq_16_amplitude_2_rep_4_b_D.png	 D	 b	 b	 n.a.	 3.460945e-01
8	 2	 48	 unflanked	 bex	 6	 1.000000	 0.000000	 unflanked_bex_freq_6_amplitude_1_rep_6_r_N.png	 N	 r	 r	 n.a.	 3.910848e-01
8	 2	 49	 unflanked	 bex	 2	 2.500000	 0.000000	 unflanked_bex_freq_2_amplitude_2.5_rep_0_r_H.png	 H	 r	 r	 n.a.	 3.711691e-01
8	 2	 50	 unflanked	 bex	 4	 3.000000	 0.000000	 unflanked_bex_freq_4_amplitude_3_rep_7_t_D.png	 D	 t	 t	 n.a.	 3.426954e-01
8	 2	 51	 unflanked	 bex	 32	 3.000000	 0.000000	 unflanked_bex_freq_32_amplitude_3_rep_9_r_H.png	 H	 r	 r	 n.a.	 2.953859e-01
8	 2	 52	 unflanked	 bex	 32	 1.500000	 0.000000	 unflanked_bex_freq_32_amplitude_1.5_rep_2_l_D.png	 D	 l	 b	 n.a.	 4.770972e-01
8	 2	 53	 unflanked	 bex	 6	 2.000000	 0.000000	 unflanked_bex_freq_6_amplitude_2_rep_1_b_D.png	 D	 b	 b	 n.a.	 3.338376e-01
8	 2	 54	 unflanked	 bex	 8	 2.000000	 0.000000	 unflanked_bex_freq_8_amplitude_2_rep_7_r_N.png	 N	 r	 r	 n.a.	 2.286707e-01
8	 2	 55	 unflanked	 bex	 2	 3.000000	 0.000000	 unflanked_bex_freq_2_amplitude_3_rep_4_r_H.png	 H	 r	 r	 n.a.	 2.364594e-01
8	 2	 56	 unflanked	 bex	 2	 2.000000	 0.000000	 unflanked_bex_freq_2_amplitude_2_rep_3_l_D.png	 D	 l	 r	 n.a.	 8.478417e-01
8	 2	 57	 unflanked	 bex	 2	 3.000000	 0.000000	 unflanked_bex_freq_2_amplitude_3_rep_1_l_K.png	 K	 l	 r	 n.a.	 4.089236e-01
8	 2	 58	 unflanked	 bex	 16	 2.500000	 0.000000	 unflanked_bex_freq_16_amplitude_2.5_rep_6_r_K.png	 K	 r	 r	 n.a.	 2.767582e-01
8	 2	 59	 unflanked	 bex	 8	 2.500000	 0.000000	 unflanked_bex_freq_8_amplitude_2.5_rep_1_t_H.png	 H	 t	 t	 n.a.	 3.174261e-01
8	 2	 60	 unflanked	 bex	 4	 5.000000	 0.000000	 unflanked_bex_freq_4_amplitude_5_rep_1_l_N.png	 N	 l	 l	 n.a.	 2.494650e-01
8	 2	 61	 unflanked	 bex	 6	 1.500000	 0.000000	 unflanked_bex_freq_6_amplitude_1.5_rep_8_l_H.png	 H	 l	 r	 n.a.	 7.073711e-01
8	 2	 62	 unflanked	 bex	 4	 2.000000	 0.000000	 unflanked_bex_freq_4_amplitude_2_rep_6_l_D.png	 D	 l	 l	 n.a.	 2.042014e-01
8	 2	 63	 unflanked	 bex	 32	 2.500000	 0.000000	 unflanked_bex_freq_32_amplitude_2.5_rep_6_b_H.png	 H	 b	 b	 n.a.	 5.295851e-01
8	 2	 64	 unflanked	 bex	 16	 3.000000	 0.000000	 unflanked_bex_freq_16_amplitude_3_rep_1_r_K.png	 K	 r	 r	 n.a.	 2.506366e-01
8	 2	 65	 unflanked	 bex	 8	 2.500000	 0.000000	 unflanked_bex_freq_8_amplitude_2.5_rep_0_t_N.png	 N	 t	 t	 n.a.	 2.793882e-01
8	 2	 66	 unflanked	 bex	 2	 0.500000	 0.000000	 unflanked_bex_freq_2_amplitude_0.5_rep_9_t_H.png	 H	 t	 b	 n.a.	 5.431431e-01
8	 2	 67	 unflanked	 bex	 6	 3.000000	 0.000000	 unflanked_bex_freq_6_amplitude_3_rep_5_b_K.png	 K	 b	 b	 n.a.	 2.543148e-01
8	 2	 68	 unflanked	 bex	 2	 5.000000	 0.000000	 unflanked_bex_freq_2_amplitude_5_rep_5_r_K.png	 K	 r	 r	 n.a.	 3.070914e-01
8	 2	 69	 unflanked	 bex	 2	 3.000000	 0.000000	 unflanked_bex_freq_2_amplitude_3_rep_3_r_N.png	 N	 r	 r	 n.a.	 4.808677e-01
8	 2	 70	 unflanked	 bex	 4	 2.500000	 0.000000	 unflanked_bex_freq_4_amplitude_2.5_rep_1_r_H.png	 H	 r	 r	 n.a.	 2.942026e-01
8	 2	 71	 unflanked	 bex	 32	 3.000000	 0.000000	 unflanked_bex_freq_32_amplitude_3_rep_2_l_N.png	 N	 l	 r	 n.a.	 5.766454e-01
8	 2	 72	 unflanked	 bex	 16	 3.000000	 0.000000	 unflanked_bex_freq_16_amplitude_3_rep_9_r_K.png	 K	 r	 r	 n.a.	 2.743666e-01
8	 2	 73	 unflanked	 bex	 4	 1.500000	 0.000000	 unflanked_bex_freq_4_amplitude_1.5_rep_5_r_K.png	 K	 r	 b	 n.a.	 7.188703e-01
8	 2	 74	 unflanked	 bex	 32	 1.000000	 0.000000	 unflanked_bex_freq_32_amplitude_1_rep_2_t_N.png	 N	 t	 r	 n.a.	 4.470836e-01
8	 2	 75	 unflanked	 bex	 16	 1.000000	 0.000000	 unflanked_bex_freq_16_amplitude_1_rep_5_r_D.png	 D	 r	 r	 n.a.	 3.371160e-01
8	 2	 76	 unflanked	 bex	 6	 1.500000	 0.000000	 unflanked_bex_freq_6_amplitude_1.5_rep_2_b_D.png	 D	 b	 b	 n.a.	 3.882704e-01
8	 2	 77	 unflanked	 bex	 8	 5.000000	 0.000000	 unflanked_bex_freq_8_amplitude_5_rep_5_r_D.png	 D	 r	 r	 n.a.	 1.945796e-01
8	 2	 78	 unflanked	 bex	 4	 1.500000	 0.000000	 unflanked_bex_freq_4_amplitude_1.5_rep_7_b_N.png	 N	 b	 b	 n.a.	 4.556205e-01
8	 2	 79	 unflanked	 bex	 4	 2.500000	 0.000000	 unflanked_bex_freq_4_amplitude_2.5_rep_3_r_H.png	 H	 r	 r	 n.a.	 2.043683e-01
8	 2	 80	 unflanked	 bex	 2	 3.000000	 0.000000	 unflanked_bex_freq_2_amplitude_3_rep_0_t_H.png	 H	 t	 t	 n.a.	 3.743342e-01
8	 2	 81	 unflanked	 bex	 8	 2.000000	 0.000000	 unflanked_bex_freq_8_amplitude_2_rep_0_r_N.png	 N	 r	 r	 n.a.	 2.769359e-01
8	 2	 82	 unflanked	 bex	 6	 1.500000	 0.000000	 unflanked_bex_freq_6_amplitude_1.5_rep_3_t_N.png	 N	 t	 r	 n.a.	 9.929093e-01
8	 2	 83	 unflanked	 bex	 16	 0.500000	 0.000000	 unflanked_bex_freq_16_amplitude_0.5_rep_8_l_D.png	 D	 l	 l	 n.a.	 4.318523e-01
8	 2	 84	 unflanked	 bex	 16	 3.000000	 0.000000	 unflanked_bex_freq_16_amplitude_3_rep_4_l_N.png	 N	 l	 l	 n.a.	 3.116932e-01
8	 2	 85	 unflanked	 bex	 8	 5.000000	 0.000000	 unflanked_bex_freq_8_amplitude_5_rep_7_r_K.png	 K	 r	 r	 n.a.	 1.913780e-01
8	 2	 86	 unflanked	 bex	 4	 5.000000	 0.000000	 unflanked_bex_freq_4_amplitude_5_rep_2_l_K.png	 K	 l	 l	 n.a.	 2.703819e-01
8	 2	 87	 unflanked	 bex	 16	 3.000000	 0.000000	 unflanked_bex_freq_16_amplitude_3_rep_3_b_N.png	 N	 b	 b	 n.a.	 4.958736e-01
8	 2	 88	 unflanked	 bex	 8	 2.000000	 0.000000	 unflanked_bex_freq_8_amplitude_2_rep_5_b_N.png	 N	 b	 b	 n.a.	 3.326953e-01
8	 2	 89	 unflanked	 bex	 32	 5.000000	 0.000000	 unflanked_bex_freq_32_amplitude_5_rep_8_l_N.png	 N	 l	 l	 n.a.	 2.774530e-01
8	 2	 90	 unflanked	 bex	 32	 1.500000	 0.000000	 unflanked_bex_freq_32_amplitude_1.5_rep_0_l_D.png	 D	 l	 l	 n.a.	 4.061541e-01
8	 2	 91	 unflanked	 bex	 4	 0.500000	 0.000000	 unflanked_bex_freq_4_amplitude_0.5_rep_6_b_H.png	 H	 b	 b	 n.a.	 3.294183e-01
8	 2	 92	 unflanked	 bex	 32	 2.000000	 0.000000	 unflanked_bex_freq_32_amplitude_2_rep_8_b_H.png	 H	 b	 l	 n.a.	 3.598050e-01
8	 2	 93	 unflanked	 bex	 2	 2.500000	 0.000000	 unflanked_bex_freq_2_amplitude_2.5_rep_8_b_N.png	 N	 b	 b	 n.a.	 3.083891e-01
8	 2	 94	 unflanked	 bex	 2	 3.000000	 0.000000	 unflanked_bex_freq_2_amplitude_3_rep_8_t_K.png	 K	 t	 l	 n.a.	 6.587601e-01
8	 2	 95	 unflanked	 bex	 6	 2.500000	 0.000000	 unflanked_bex_freq_6_amplitude_2.5_rep_4_t_K.png	 K	 t	 t	 n.a.	 7.141580e-01
8	 2	 96	 unflanked	 bex	 32	 2.000000	 0.000000	 unflanked_bex_freq_32_amplitude_2_rep_9_r_K.png	 K	 r	 b	 n.a.	 4.138496e-01
8	 2	 97	 unflanked	 bex	 4	 0.500000	 0.000000	 unflanked_bex_freq_4_amplitude_0.5_rep_8_r_H.png	 H	 r	 b	 n.a.	 6.447792e-01
8	 2	 98	 unflanked	 bex	 6	 5.000000	 0.000000	 unflanked_bex_freq_6_amplitude_5_rep_2_t_K.png	 K	 t	 t	 n.a.	 2.831777e-01
8	 2	 99	 unflanked	 bex	 16	 1.500000	 0.000000	 unflanked_bex_freq_16_amplitude_1.5_rep_5_t_H.png	 H	 t	 r	 n.a.	 3.508366e-01
8	 2	 100	 unflanked	 bex	 32	 5.000000	 0.000000	 unflanked_bex_freq_32_amplitude_5_rep_0_b_D.png	 D	 b	 b	 n.a.	 3.181206e-01
8	 2	 101	 unflanked	 bex	 6	 2.000000	 0.000000	 unflanked_bex_freq_6_amplitude_2_rep_8_b_N.png	 N	 b	 b	 n.a.	 2.889912e-01
8	 2	 102	 unflanked	 bex	 6	 3.000000	 0.000000	 unflanked_bex_freq_6_amplitude_3_rep_1_t_H.png	 H	 t	 t	 n.a.	 2.715558e-01
8	 2	 103	 unflanked	 bex	 2	 1.500000	 0.000000	 unflanked_bex_freq_2_amplitude_1.5_rep_1_t_N.png	 N	 t	 b	 n.a.	 7.422633e-01
8	 2	 104	 unflanked	 bex	 32	 2.000000	 0.000000	 unflanked_bex_freq_32_amplitude_2_rep_3_l_N.png	 N	 l	 l	 n.a.	 4.300862e-01
8	 2	 105	 unflanked	 bex	 4	 2.000000	 0.000000	 unflanked_bex_freq_4_amplitude_2_rep_4_l_K.png	 K	 l	 l	 n.a.	 2.363834e-01
8	 2	 106	 unflanked	 bex	 4	 2.000000	 0.000000	 unflanked_bex_freq_4_amplitude_2_rep_5_t_H.png	 H	 t	 b	 n.a.	 5.947700e-01
8	 2	 107	 unflanked	 bex	 2	 2.500000	 0.000000	 unflanked_bex_freq_2_amplitude_2.5_rep_3_b_K.png	 K	 b	 l	 n.a.	 3.148401e-01
8	 2	 108	 unflanked	 bex	 6	 3.000000	 0.000000	 unflanked_bex_freq_6_amplitude_3_rep_7_l_H.png	 H	 l	 l	 n.a.	 2.265369e-01
8	 2	 109	 unflanked	 bex	 8	 1.500000	 0.000000	 unflanked_bex_freq_8_amplitude_1.5_rep_1_b_K.png	 K	 b	 r	 n.a.	 4.025855e-01
8	 2	 110	 unflanked	 bex	 4	 5.000000	 0.000000	 unflanked_bex_freq_4_amplitude_5_rep_6_b_D.png	 D	 b	 b	 n.a.	 2.292101e-01
8	 2	 111	 unflanked	 bex	 16	 2.500000	 0.000000	 unflanked_bex_freq_16_amplitude_2.5_rep_8_t_K.png	 K	 t	 l	 n.a.	 6.590614e-01
8	 2	 112	 unflanked	 bex	 2	 2.000000	 0.000000	 unflanked_bex_freq_2_amplitude_2_rep_7_b_H.png	 H	 b	 b	 n.a.	 4.274109e-01
8	 2	 113	 unflanked	 bex	 2	 2.000000	 0.000000	 unflanked_bex_freq_2_amplitude_2_rep_4_l_N.png	 N	 l	 b	 n.a.	 5.893747e-01
8	 2	 114	 unflanked	 bex	 8	 5.000000	 0.000000	 unflanked_bex_freq_8_amplitude_5_rep_2_b_N.png	 N	 b	 b	 n.a.	 2.326192e-01
8	 2	 115	 unflanked	 bex	 2	 5.000000	 0.000000	 unflanked_bex_freq_2_amplitude_5_rep_2_r_D.png	 D	 r	 r	 n.a.	 2.801122e-01
8	 2	 116	 unflanked	 bex	 2	 3.000000	 0.000000	 unflanked_bex_freq_2_amplitude_3_rep_2_r_K.png	 K	 r	 b	 n.a.	 5.716639e-01
8	 2	 117	 unflanked	 bex	 8	 1.000000	 0.000000	 unflanked_bex_freq_8_amplitude_1_rep_2_l_K.png	 K	 l	 l	 n.a.	 2.984817e-01
8	 2	 118	 unflanked	 bex	 2	 0.500000	 0.000000	 unflanked_bex_freq_2_amplitude_0.5_rep_1_r_H.png	 H	 r	 r	 n.a.	 6.549663e-01
8	 2	 119	 unflanked	 bex	 6	 1.500000	 0.000000	 unflanked_bex_freq_6_amplitude_1.5_rep_7_b_K.png	 K	 b	 b	 n.a.	 3.073275e-01
8	 2	 120	 unflanked	 bex	 4	 2.000000	 0.000000	 unflanked_bex_freq_4_amplitude_2_rep_3_r_H.png	 H	 r	 r	 n.a.	 2.345999e-01
8	 2	 121	 unflanked	 bex	 16	 3.000000	 0.000000	 unflanked_bex_freq_16_amplitude_3_rep_2_t_D.png	 D	 t	 l	 n.a.	 4.866216e-01
8	 2	 122	 unflanked	 bex	 6	 2.500000	 0.000000	 unflanked_bex_freq_6_amplitude_2.5_rep_9_r_H.png	 H	 r	 r	 n.a.	 2.005172e-01
8	 2	 123	 unflanked	 bex	 4	 5.000000	 0.000000	 unflanked_bex_freq_4_amplitude_5_rep_9_r_H.png	 H	 r	 r	 n.a.	 2.027178e-01
8	 2	 124	 unflanked	 bex	 6	 1.000000	 0.000000	 unflanked_bex_freq_6_amplitude_1_rep_9_r_N.png	 N	 r	 r	 n.a.	 4.853074e-01
8	 2	 125	 unflanked	 bex	 8	 1.500000	 0.000000	 unflanked_bex_freq_8_amplitude_1.5_rep_8_l_D.png	 D	 l	 l	 n.a.	 3.329979e-01
8	 2	 126	 unflanked	 bex	 4	 3.000000	 0.000000	 unflanked_bex_freq_4_amplitude_3_rep_0_r_H.png	 H	 r	 r	 n.a.	 2.015176e-01
8	 2	 127	 unflanked	 bex	 8	 1.000000	 0.000000	 unflanked_bex_freq_8_amplitude_1_rep_7_r_H.png	 H	 r	 r	 n.a.	 3.972854e-01
8	 2	 128	 unflanked	 bex	 2	 2.000000	 0.000000	 unflanked_bex_freq_2_amplitude_2_rep_8_t_D.png	 D	 t	 l	 n.a.	 5.185866e-01
8	 2	 129	 unflanked	 bex	 2	 1.500000	 0.000000	 unflanked_bex_freq_2_amplitude_1.5_rep_7_b_N.png	 N	 b	 r	 n.a.	 2.666928e-01
8	 2	 130	 unflanked	 bex	 16	 2.000000	 0.000000	 unflanked_bex_freq_16_amplitude_2_rep_6_l_N.png	 N	 l	 l	 n.a.	 4.242843e-01
8	 2	 131	 unflanked	 bex	 8	 5.000000	 0.000000	 unflanked_bex_freq_8_amplitude_5_rep_1_l_D.png	 D	 l	 l	 n.a.	 2.674840e-01
8	 2	 132	 unflanked	 bex	 32	 1.000000	 0.000000	 unflanked_bex_freq_32_amplitude_1_rep_0_t_D.png	 D	 t	 t	 n.a.	 5.248817e-01
8	 2	 133	 unflanked	 bex	 8	 1.000000	 0.000000	 unflanked_bex_freq_8_amplitude_1_rep_6_r_H.png	 H	 r	 r	 n.a.	 4.209846e-01
8	 2	 134	 unflanked	 bex	 4	 2.500000	 0.000000	 unflanked_bex_freq_4_amplitude_2.5_rep_5_b_N.png	 N	 b	 b	 n.a.	 3.279157e-01
8	 2	 135	 unflanked	 bex	 8	 0.500000	 0.000000	 unflanked_bex_freq_8_amplitude_0.5_rep_7_l_K.png	 K	 l	 b	 n.a.	 7.949128e-01
8	 2	 136	 unflanked	 bex	 4	 1.000000	 0.000000	 unflanked_bex_freq_4_amplitude_1_rep_3_l_K.png	 K	 l	 t	 n.a.	 3.954029e-01
8	 2	 137	 unflanked	 bex	 8	 2.000000	 0.000000	 unflanked_bex_freq_8_amplitude_2_rep_6_r_K.png	 K	 r	 r	 n.a.	 2.411489e-01
8	 2	 138	 unflanked	 bex	 6	 5.000000	 0.000000	 unflanked_bex_freq_6_amplitude_5_rep_8_l_D.png	 D	 l	 l	 n.a.	 1.805571e-01
8	 2	 139	 unflanked	 bex	 4	 1.500000	 0.000000	 unflanked_bex_freq_4_amplitude_1.5_rep_8_t_K.png	 K	 t	 t	 n.a.	 7.230967e-01
8	 2	 140	 unflanked	 bex	 16	 3.000000	 0.000000	 unflanked_bex_freq_16_amplitude_3_rep_5_r_H.png	 H	 r	 r	 n.a.	 2.178701e-01
8	 2	 141	 unflanked	 bex	 32	 3.000000	 0.000000	 unflanked_bex_freq_32_amplitude_3_rep_5_r_N.png	 N	 r	 r	 n.a.	 2.915058e-01
8	 2	 142	 unflanked	 bex	 8	 3.000000	 0.000000	 unflanked_bex_freq_8_amplitude_3_rep_5_b_N.png	 N	 b	 b	 n.a.	 2.776155e-01
8	 2	 143	 unflanked	 bex	 4	 1.000000	 0.000000	 unflanked_bex_freq_4_amplitude_1_rep_8_t_H.png	 H	 t	 b	 n.a.	 3.851362e-01
8	 2	 144	 unflanked	 bex	 32	 0.500000	 0.000000	 unflanked_bex_freq_32_amplitude_0.5_rep_1_b_K.png	 K	 b	 t	 n.a.	 3.600071e-01
8	 2	 145	 unflanked	 bex	 4	 1.500000	 0.000000	 unflanked_bex_freq_4_amplitude_1.5_rep_6_t_N.png	 N	 t	 b	 n.a.	 4.456135e-01
8	 2	 146	 unflanked	 bex	 6	 1.500000	 0.000000	 unflanked_bex_freq_6_amplitude_1.5_rep_4_b_N.png	 N	 b	 r	 n.a.	 4.306744e-01
8	 2	 147	 unflanked	 bex	 4	 3.000000	 0.000000	 unflanked_bex_freq_4_amplitude_3_rep_9_t_H.png	 H	 t	 t	 n.a.	 2.408382e-01
8	 2	 148	 unflanked	 bex	 32	 2.500000	 0.000000	 unflanked_bex_freq_32_amplitude_2.5_rep_2_t_N.png	 N	 t	 t	 n.a.	 5.437933e-01
8	 2	 149	 unflanked	 bex	 32	 1.500000	 0.000000	 unflanked_bex_freq_32_amplitude_1.5_rep_5_t_H.png	 H	 t	 t	 n.a.	 6.142702e-01
8	 2	 150	 unflanked	 bex	 16	 0.500000	 0.000000	 unflanked_bex_freq_16_amplitude_0.5_rep_4_l_K.png	 K	 l	 t	 n.a.	 8.412331e-01
8	 2	 151	 unflanked	 bex	 4	 2.500000	 0.000000	 unflanked_bex_freq_4_amplitude_2.5_rep_2_t_N.png	 N	 t	 l	 n.a.	 6.161442e-01
8	 2	 152	 unflanked	 bex	 2	 2.000000	 0.000000	 unflanked_bex_freq_2_amplitude_2_rep_2_r_D.png	 D	 r	 r	 n.a.	 3.908817e-01
8	 2	 153	 unflanked	 bex	 8	 3.000000	 0.000000	 unflanked_bex_freq_8_amplitude_3_rep_1_r_K.png	 K	 r	 r	 n.a.	 3.049565e-01
8	 2	 154	 unflanked	 bex	 2	 1.500000	 0.000000	 unflanked_bex_freq_2_amplitude_1.5_rep_0_b_K.png	 K	 b	 l	 n.a.	 6.264775e-01
8	 2	 155	 unflanked	 bex	 32	 5.000000	 0.000000	 unflanked_bex_freq_32_amplitude_5_rep_7_r_D.png	 D	 r	 r	 n.a.	 1.840968e-01
8	 2	 156	 unflanked	 bex	 16	 2.500000	 0.000000	 unflanked_bex_freq_16_amplitude_2.5_rep_9_l_D.png	 D	 l	 l	 n.a.	 2.601490e-01
8	 2	 157	 unflanked	 bex	 4	 0.500000	 0.000000	 unflanked_bex_freq_4_amplitude_0.5_rep_9_r_K.png	 K	 r	 b	 n.a.	 5.667024e-01
8	 2	 158	 unflanked	 bex	 6	 1.000000	 0.000000	 unflanked_bex_freq_6_amplitude_1_rep_4_l_K.png	 K	 l	 r	 n.a.	 3.644317e-01
8	 2	 159	 unflanked	 bex	 6	 2.000000	 0.000000	 unflanked_bex_freq_6_amplitude_2_rep_0_r_H.png	 H	 r	 r	 n.a.	 2.325536e-01
8	 2	 160	 unflanked	 bex	 2	 5.000000	 0.000000	 unflanked_bex_freq_2_amplitude_5_rep_0_l_H.png	 H	 l	 l	 n.a.	 2.555202e-01
8	 2	 161	 unflanked	 bex	 16	 5.000000	 0.000000	 unflanked_bex_freq_16_amplitude_5_rep_4_t_K.png	 K	 t	 l	 n.a.	 6.520864e-01
8	 2	 162	 unflanked	 bex	 32	 0.500000	 0.000000	 unflanked_bex_freq_32_amplitude_0.5_rep_5_l_D.png	 D	 l	 b	 n.a.	 5.930678e-01
8	 2	 163	 unflanked	 bex	 8	 2.500000	 0.000000	 unflanked_bex_freq_8_amplitude_2.5_rep_9_b_N.png	 N	 b	 b	 n.a.	 3.607408e-01
8	 2	 164	 unflanked	 bex	 2	 2.000000	 0.000000	 unflanked_bex_freq_2_amplitude_2_rep_1_t_N.png	 N	 t	 r	 n.a.	 5.544187e-01
8	 2	 165	 unflanked	 bex	 6	 1.500000	 0.000000	 unflanked_bex_freq_6_amplitude_1.5_rep_6_t_K.png	 K	 t	 b	 n.a.	 4.483449e-01
8	 2	 166	 unflanked	 bex	 6	 0.500000	 0.000000	 unflanked_bex_freq_6_amplitude_0.5_rep_2_t_K.png	 K	 t	 t	 n.a.	 4.093840e-01
8	 2	 167	 unflanked	 bex	 32	 3.000000	 0.000000	 unflanked_bex_freq_32_amplitude_3_rep_1_l_K.png	 K	 l	 l	 n.a.	 2.198043e-01
8	 2	 168	 unflanked	 bex	 8	 2.000000	 0.000000	 unflanked_bex_freq_8_amplitude_2_rep_2_t_N.png	 N	 t	 t	 n.a.	 3.806542e-01
8	 2	 169	 unflanked	 bex	 2	 2.500000	 0.000000	 unflanked_bex_freq_2_amplitude_2.5_rep_6_l_H.png	 H	 l	 l	 n.a.	 2.652194e-01
8	 2	 170	 unflanked	 bex	 16	 1.500000	 0.000000	 unflanked_bex_freq_16_amplitude_1.5_rep_6_t_N.png	 N	 t	 l	 n.a.	 6.701449e-01
8	 2	 171	 unflanked	 bex	 6	 1.500000	 0.000000	 unflanked_bex_freq_6_amplitude_1.5_rep_9_r_K.png	 K	 r	 r	 n.a.	 2.874155e-01
8	 2	 172	 unflanked	 bex	 2	 1.500000	 0.000000	 unflanked_bex_freq_2_amplitude_1.5_rep_8_l_K.png	 K	 l	 l	 n.a.	 3.636912e-01
8	 2	 173	 unflanked	 bex	 4	 1.000000	 0.000000	 unflanked_bex_freq_4_amplitude_1_rep_2_r_H.png	 H	 r	 t	 n.a.	 5.364825e-01
8	 2	 174	 unflanked	 bex	 16	 1.500000	 0.000000	 unflanked_bex_freq_16_amplitude_1.5_rep_2_b_K.png	 K	 b	 l	 n.a.	 7.565095e-01
8	 2	 175	 unflanked	 bex	 2	 2.000000	 0.000000	 unflanked_bex_freq_2_amplitude_2_rep_0_r_N.png	 N	 r	 l	 n.a.	 4.927807e-01
8	 2	 176	 unflanked	 bex	 6	 5.000000	 0.000000	 unflanked_bex_freq_6_amplitude_5_rep_5_l_N.png	 N	 l	 l	 n.a.	 2.614753e-01
8	 2	 177	 unflanked	 bex	 4	 1.500000	 0.000000	 unflanked_bex_freq_4_amplitude_1.5_rep_9_r_K.png	 K	 r	 r	 n.a.	 3.545440e-01
8	 2	 178	 unflanked	 bex	 16	 3.000000	 0.000000	 unflanked_bex_freq_16_amplitude_3_rep_8_b_N.png	 N	 b	 b	 n.a.	 5.425482e-01
8	 2	 179	 unflanked	 bex	 2	 1.500000	 0.000000	 unflanked_bex_freq_2_amplitude_1.5_rep_4_r_H.png	 H	 r	 t	 n.a.	 4.389367e-01
8	 2	 180	 unflanked	 bex	 16	 5.000000	 0.000000	 unflanked_bex_freq_16_amplitude_5_rep_1_l_H.png	 H	 l	 l	 n.a.	 2.361268e-01
8	 2	 181	 unflanked	 bex	 32	 5.000000	 0.000000	 unflanked_bex_freq_32_amplitude_5_rep_4_t_D.png	 D	 t	 t	 n.a.	 3.119098e-01
8	 2	 182	 unflanked	 bex	 8	 5.000000	 0.000000	 unflanked_bex_freq_8_amplitude_5_rep_0_l_D.png	 D	 l	 l	 n.a.	 2.801069e-01
8	 2	 183	 unflanked	 bex	 16	 0.500000	 0.000000	 unflanked_bex_freq_16_amplitude_0.5_rep_0_r_N.png	 N	 r	 r	 n.a.	 4.471179e-01
8	 2	 184	 unflanked	 bex	 2	 2.000000	 0.000000	 unflanked_bex_freq_2_amplitude_2_rep_9_b_N.png	 N	 b	 t	 n.a.	 5.804300e-01
8	 2	 185	 unflanked	 bex	 32	 0.500000	 0.000000	 unflanked_bex_freq_32_amplitude_0.5_rep_0_b_H.png	 H	 b	 r	 n.a.	 2.579628e-01
8	 2	 186	 unflanked	 bex	 2	 2.000000	 0.000000	 unflanked_bex_freq_2_amplitude_2_rep_6_b_N.png	 N	 b	 l	 n.a.	 2.817853e-01
8	 2	 187	 unflanked	 bex	 2	 5.000000	 0.000000	 unflanked_bex_freq_2_amplitude_5_rep_8_t_D.png	 D	 t	 t	 n.a.	 2.637972e-01
8	 2	 188	 unflanked	 bex	 4	 5.000000	 0.000000	 unflanked_bex_freq_4_amplitude_5_rep_4_l_H.png	 H	 l	 l	 n.a.	 2.480021e-01
8	 2	 189	 unflanked	 bex	 16	 2.500000	 0.000000	 unflanked_bex_freq_16_amplitude_2.5_rep_1_t_N.png	 N	 t	 r	 n.a.	 3.253873e-01
8	 2	 190	 unflanked	 bex	 16	 0.500000	 0.000000	 unflanked_bex_freq_16_amplitude_0.5_rep_9_b_K.png	 K	 b	 b	 n.a.	 6.238055e-01
8	 2	 191	 unflanked	 bex	 32	 2.500000	 0.000000	 unflanked_bex_freq_32_amplitude_2.5_rep_9_l_K.png	 K	 l	 l	 n.a.	 3.010579e-01
8	 2	 192	 unflanked	 bex	 6	 2.000000	 0.000000	 unflanked_bex_freq_6_amplitude_2_rep_2_l_K.png	 K	 l	 l	 n.a.	 3.089213e-01
8	 2	 193	 unflanked	 bex	 2	 5.000000	 0.000000	 unflanked_bex_freq_2_amplitude_5_rep_4_b_N.png	 N	 b	 b	 n.a.	 2.956921e-01
8	 2	 194	 unflanked	 bex	 32	 1.500000	 0.000000	 unflanked_bex_freq_32_amplitude_1.5_rep_8_l_H.png	 H	 l	 r	 n.a.	 5.052924e-01
8	 2	 195	 unflanked	 bex	 32	 1.500000	 0.000000	 unflanked_bex_freq_32_amplitude_1.5_rep_7_t_H.png	 H	 t	 t	 n.a.	 3.670576e-01
8	 2	 196	 unflanked	 bex	 4	 2.500000	 0.000000	 unflanked_bex_freq_4_amplitude_2.5_rep_9_l_H.png	 H	 l	 l	 n.a.	 4.731754e-01
8	 2	 197	 unflanked	 bex	 2	 1.000000	 0.000000	 unflanked_bex_freq_2_amplitude_1_rep_2_r_K.png	 K	 r	 l	 n.a.	 6.355507e-01
8	 2	 198	 unflanked	 bex	 32	 5.000000	 0.000000	 unflanked_bex_freq_32_amplitude_5_rep_9_l_H.png	 H	 l	 l	 n.a.	 2.497108e-01
8	 2	 199	 unflanked	 bex	 4	 1.500000	 0.000000	 unflanked_bex_freq_4_amplitude_1.5_rep_0_l_H.png	 H	 l	 b	 n.a.	 2.918057e-01
8	 2	 200	 unflanked	 bex	 8	 2.000000	 0.000000	 unflanked_bex_freq_8_amplitude_2_rep_1_l_D.png	 D	 l	 l	 n.a.	 2.099858e-01
8	 2	 201	 unflanked	 bex	 2	 1.500000	 0.000000	 unflanked_bex_freq_2_amplitude_1.5_rep_6_t_H.png	 H	 t	 b	 n.a.	 5.802740e-01
8	 2	 202	 unflanked	 bex	 6	 2.000000	 0.000000	 unflanked_bex_freq_6_amplitude_2_rep_9_l_K.png	 K	 l	 l	 n.a.	 2.484748e-01
8	 2	 203	 unflanked	 bex	 6	 0.500000	 0.000000	 unflanked_bex_freq_6_amplitude_0.5_rep_8_r_K.png	 K	 r	 t	 n.a.	 5.294842e-01
8	 2	 204	 unflanked	 bex	 8	 2.500000	 0.000000	 unflanked_bex_freq_8_amplitude_2.5_rep_8_r_K.png	 K	 r	 r	 n.a.	 2.685990e-01
8	 2	 205	 unflanked	 bex	 2	 1.000000	 0.000000	 unflanked_bex_freq_2_amplitude_1_rep_5_l_D.png	 D	 l	 r	 n.a.	 7.356093e-01
8	 2	 206	 unflanked	 bex	 8	 0.500000	 0.000000	 unflanked_bex_freq_8_amplitude_0.5_rep_8_r_K.png	 K	 r	 r	 n.a.	 6.192205e-01
8	 2	 207	 unflanked	 bex	 32	 1.500000	 0.000000	 unflanked_bex_freq_32_amplitude_1.5_rep_1_l_K.png	 K	 l	 t	 n.a.	 5.893828e-01
8	 2	 208	 unflanked	 bex	 32	 2.500000	 0.000000	 unflanked_bex_freq_32_amplitude_2.5_rep_3_b_N.png	 N	 b	 b	 n.a.	 4.488843e-01
8	 2	 209	 unflanked	 bex	 32	 1.000000	 0.000000	 unflanked_bex_freq_32_amplitude_1_rep_4_r_D.png	 D	 r	 r	 n.a.	 7.162790e-01
8	 2	 210	 unflanked	 bex	 16	 5.000000	 0.000000	 unflanked_bex_freq_16_amplitude_5_rep_7_l_N.png	 N	 l	 l	 n.a.	 2.566672e-01
8	 2	 211	 unflanked	 bex	 16	 3.000000	 0.000000	 unflanked_bex_freq_16_amplitude_3_rep_7_l_H.png	 H	 l	 l	 n.a.	 2.691934e-01
8	 2	 212	 unflanked	 bex	 8	 2.500000	 0.000000	 unflanked_bex_freq_8_amplitude_2.5_rep_2_b_D.png	 D	 b	 b	 n.a.	 3.266616e-01
8	 2	 213	 unflanked	 bex	 16	 2.500000	 0.000000	 unflanked_bex_freq_16_amplitude_2.5_rep_7_b_K.png	 K	 b	 b	 n.a.	 6.170382e-01
8	 2	 214	 unflanked	 bex	 16	 1.500000	 0.000000	 unflanked_bex_freq_16_amplitude_1.5_rep_4_l_D.png	 D	 l	 l	 n.a.	 3.606892e-01
8	 2	 215	 unflanked	 bex	 2	 3.000000	 0.000000	 unflanked_bex_freq_2_amplitude_3_rep_9_l_H.png	 H	 l	 l	 n.a.	 4.723063e-01
8	 2	 216	 unflanked	 bex	 32	 2.000000	 0.000000	 unflanked_bex_freq_32_amplitude_2_rep_7_b_H.png	 H	 b	 b	 n.a.	 4.344054e-01
8	 2	 217	 unflanked	 bex	 2	 2.500000	 0.000000	 unflanked_bex_freq_2_amplitude_2.5_rep_1_b_K.png	 K	 b	 b	 n.a.	 2.689902e-01
8	 2	 218	 unflanked	 bex	 6	 2.500000	 0.000000	 unflanked_bex_freq_6_amplitude_2.5_rep_2_b_K.png	 K	 b	 b	 n.a.	 2.549949e-01
8	 2	 219	 unflanked	 bex	 16	 1.000000	 0.000000	 unflanked_bex_freq_16_amplitude_1_rep_6_t_D.png	 D	 t	 b	 n.a.	 5.031551e-01
8	 2	 220	 unflanked	 bex	 16	 0.500000	 0.000000	 unflanked_bex_freq_16_amplitude_0.5_rep_2_r_N.png	 N	 r	 t	 n.a.	 4.452950e-01
8	 2	 221	 unflanked	 bex	 4	 3.000000	 0.000000	 unflanked_bex_freq_4_amplitude_3_rep_1_r_K.png	 K	 r	 r	 n.a.	 2.247126e-01
8	 2	 222	 unflanked	 bex	 4	 3.000000	 0.000000	 unflanked_bex_freq_4_amplitude_3_rep_8_l_N.png	 N	 l	 l	 n.a.	 2.625680e-01
8	 2	 223	 unflanked	 bex	 2	 0.500000	 0.000000	 unflanked_bex_freq_2_amplitude_0.5_rep_0_l_N.png	 N	 l	 t	 n.a.	 6.054532e-01
8	 2	 224	 unflanked	 bex	 6	 2.500000	 0.000000	 unflanked_bex_freq_6_amplitude_2.5_rep_8_r_N.png	 N	 r	 r	 n.a.	 2.008713e-01
8	 2	 225	 unflanked	 bex	 2	 0.500000	 0.000000	 unflanked_bex_freq_2_amplitude_0.5_rep_3_r_H.png	 H	 r	 r	 n.a.	 7.087713e-01
8	 2	 226	 unflanked	 bex	 6	 5.000000	 0.000000	 unflanked_bex_freq_6_amplitude_5_rep_9_t_H.png	 H	 t	 t	 n.a.	 2.440284e-01
8	 2	 227	 unflanked	 bex	 2	 0.500000	 0.000000	 unflanked_bex_freq_2_amplitude_0.5_rep_8_t_D.png	 D	 t	 t	 n.a.	 5.632525e-01
8	 2	 228	 unflanked	 bex	 16	 1.000000	 0.000000	 unflanked_bex_freq_16_amplitude_1_rep_7_l_H.png	 H	 l	 l	 n.a.	 5.603546e-01
8	 2	 229	 unflanked	 bex	 2	 5.000000	 0.000000	 unflanked_bex_freq_2_amplitude_5_rep_1_r_K.png	 K	 r	 r	 n.a.	 2.658424e-01
8	 2	 230	 unflanked	 bex	 8	 1.000000	 0.000000	 unflanked_bex_freq_8_amplitude_1_rep_3_r_N.png	 N	 r	 r	 n.a.	 5.952040e-01
8	 2	 231	 unflanked	 bex	 8	 0.500000	 0.000000	 unflanked_bex_freq_8_amplitude_0.5_rep_3_t_N.png	 N	 t	 t	 n.a.	 7.206720e-01
8	 2	 232	 unflanked	 bex	 16	 2.000000	 0.000000	 unflanked_bex_freq_16_amplitude_2_rep_8_b_D.png	 D	 b	 b	 n.a.	 4.590999e-01
8	 2	 233	 unflanked	 bex	 4	 5.000000	 0.000000	 unflanked_bex_freq_4_amplitude_5_rep_8_b_D.png	 D	 b	 b	 n.a.	 2.810727e-01
8	 2	 234	 unflanked	 bex	 8	 3.000000	 0.000000	 unflanked_bex_freq_8_amplitude_3_rep_2_l_D.png	 D	 l	 l	 n.a.	 2.317658e-01
8	 2	 235	 unflanked	 bex	 4	 1.500000	 0.000000	 unflanked_bex_freq_4_amplitude_1.5_rep_3_b_K.png	 K	 b	 b	 n.a.	 2.816068e-01
8	 2	 236	 unflanked	 bex	 2	 1.000000	 0.000000	 unflanked_bex_freq_2_amplitude_1_rep_7_t_K.png	 K	 t	 r	 n.a.	 6.415685e-01
8	 2	 237	 unflanked	 bex	 16	 2.000000	 0.000000	 unflanked_bex_freq_16_amplitude_2_rep_2_t_H.png	 H	 t	 t	 n.a.	 2.791564e-01
8	 2	 238	 unflanked	 bex	 32	 2.500000	 0.000000	 unflanked_bex_freq_32_amplitude_2.5_rep_0_t_K.png	 K	 t	 t	 n.a.	 6.568734e-01
8	 2	 239	 unflanked	 bex	 32	 0.500000	 0.000000	 unflanked_bex_freq_32_amplitude_0.5_rep_9_t_N.png	 N	 t	 r	 n.a.	 4.622197e-01
8	 2	 240	 unflanked	 bex	 16	 2.500000	 0.000000	 unflanked_bex_freq_16_amplitude_2.5_rep_0_t_H.png	 H	 t	 t	 n.a.	 4.185541e-01
8	 2	 241	 unflanked	 bex	 16	 2.500000	 0.000000	 unflanked_bex_freq_16_amplitude_2.5_rep_2_r_N.png	 N	 r	 r	 n.a.	 2.351424e-01
8	 2	 242	 unflanked	 bex	 32	 0.500000	 0.000000	 unflanked_bex_freq_32_amplitude_0.5_rep_8_l_D.png	 D	 l	 l	 n.a.	 4.191137e-01
8	 2	 243	 unflanked	 bex	 4	 2.500000	 0.000000	 unflanked_bex_freq_4_amplitude_2.5_rep_8_b_K.png	 K	 b	 b	 n.a.	 3.364350e-01
8	 2	 244	 unflanked	 bex	 32	 5.000000	 0.000000	 unflanked_bex_freq_32_amplitude_5_rep_6_b_N.png	 N	 b	 b	 n.a.	 3.325314e-01
8	 2	 245	 unflanked	 bex	 4	 2.000000	 0.000000	 unflanked_bex_freq_4_amplitude_2_rep_0_r_K.png	 K	 r	 r	 n.a.	 2.188212e-01
8	 2	 246	 unflanked	 bex	 8	 2.500000	 0.000000	 unflanked_bex_freq_8_amplitude_2.5_rep_4_l_K.png	 K	 l	 l	 n.a.	 2.017577e-01
8	 2	 247	 unflanked	 bex	 4	 0.500000	 0.000000	 unflanked_bex_freq_4_amplitude_0.5_rep_5_r_K.png	 K	 r	 b	 n.a.	 4.160319e-01
8	 2	 248	 unflanked	 bex	 4	 2.000000	 0.000000	 unflanked_bex_freq_4_amplitude_2_rep_2_b_N.png	 N	 b	 b	 n.a.	 2.579753e-01
8	 2	 249	 unflanked	 bex	 2	 1.000000	 0.000000	 unflanked_bex_freq_2_amplitude_1_rep_8_l_D.png	 D	 l	 b	 n.a.	 5.510571e-01
8	 2	 250	 unflanked	 bex	 8	 0.500000	 0.000000	 unflanked_bex_freq_8_amplitude_0.5_rep_2_b_K.png	 K	 b	 b	 n.a.	 2.317275e-01
8	 2	 251	 unflanked	 bex	 16	 1.500000	 0.000000	 unflanked_bex_freq_16_amplitude_1.5_rep_8_r_D.png	 D	 r	 r	 n.a.	 2.450282e-01
8	 2	 252	 unflanked	 bex	 16	 1.000000	 0.000000	 unflanked_bex_freq_16_amplitude_1_rep_4_t_K.png	 K	 t	 r	 n.a.	 5.492356e-01
8	 2	 253	 unflanked	 bex	 6	 2.500000	 0.000000	 unflanked_bex_freq_6_amplitude_2.5_rep_0_t_K.png	 K	 t	 t	 n.a.	 2.772075e-01
8	 2	 254	 unflanked	 bex	 8	 2.000000	 0.000000	 unflanked_bex_freq_8_amplitude_2_rep_9_r_N.png	 N	 r	 r	 n.a.	 2.580270e-01
8	 2	 255	 unflanked	 bex	 6	 2.000000	 0.000000	 unflanked_bex_freq_6_amplitude_2_rep_6_l_N.png	 N	 l	 r	 n.a.	 4.049980e-01
8	 2	 256	 unflanked	 bex	 6	 5.000000	 0.000000	 unflanked_bex_freq_6_amplitude_5_rep_3_b_D.png	 D	 b	 b	 n.a.	 2.520155e-01
8	 2	 257	 unflanked	 bex	 4	 3.000000	 0.000000	 unflanked_bex_freq_4_amplitude_3_rep_4_b_H.png	 H	 b	 b	 n.a.	 4.192761e-01
8	 2	 258	 unflanked	 bex	 32	 2.500000	 0.000000	 unflanked_bex_freq_32_amplitude_2.5_rep_8_b_N.png	 N	 b	 b	 n.a.	 3.629757e-01
8	 2	 259	 unflanked	 bex	 2	 1.500000	 0.000000	 unflanked_bex_freq_2_amplitude_1.5_rep_2_r_K.png	 K	 r	 b	 n.a.	 6.495586e-01
8	 2	 260	 unflanked	 bex	 16	 2.000000	 0.000000	 unflanked_bex_freq_16_amplitude_2_rep_7_t_K.png	 K	 t	 t	 n.a.	 5.345429e-01
8	 2	 261	 unflanked	 bex	 6	 1.000000	 0.000000	 unflanked_bex_freq_6_amplitude_1_rep_5_b_N.png	 N	 b	 b	 n.a.	 3.316426e-01
8	 2	 262	 unflanked	 bex	 6	 0.500000	 0.000000	 unflanked_bex_freq_6_amplitude_0.5_rep_9_t_H.png	 H	 t	 t	 n.a.	 5.486980e-01
8	 2	 263	 unflanked	 bex	 8	 1.500000	 0.000000	 unflanked_bex_freq_8_amplitude_1.5_rep_7_r_K.png	 K	 r	 r	 n.a.	 3.333286e-01
8	 2	 264	 unflanked	 bex	 8	 1.500000	 0.000000	 unflanked_bex_freq_8_amplitude_1.5_rep_4_r_N.png	 N	 r	 r	 n.a.	 4.069311e-01
8	 2	 265	 unflanked	 bex	 2	 0.500000	 0.000000	 unflanked_bex_freq_2_amplitude_0.5_rep_4_r_K.png	 K	 r	 b	 n.a.	 4.268457e-01
8	 2	 266	 unflanked	 bex	 8	 3.000000	 0.000000	 unflanked_bex_freq_8_amplitude_3_rep_9_b_N.png	 N	 b	 b	 n.a.	 2.877401e-01
8	 2	 267	 unflanked	 bex	 2	 1.000000	 0.000000	 unflanked_bex_freq_2_amplitude_1_rep_1_l_D.png	 D	 l	 t	 n.a.	 3.058263e-01
8	 2	 268	 unflanked	 bex	 16	 0.500000	 0.000000	 unflanked_bex_freq_16_amplitude_0.5_rep_6_r_H.png	 H	 r	 b	 n.a.	 1.829451e-01
8	 2	 269	 unflanked	 bex	 4	 1.000000	 0.000000	 unflanked_bex_freq_4_amplitude_1_rep_7_l_K.png	 K	 l	 l	 n.a.	 3.172577e-01
8	 2	 270	 unflanked	 bex	 32	 2.000000	 0.000000	 unflanked_bex_freq_32_amplitude_2_rep_2_t_H.png	 H	 t	 t	 n.a.	 2.877433e-01
8	 2	 271	 unflanked	 bex	 6	 1.500000	 0.000000	 unflanked_bex_freq_6_amplitude_1.5_rep_0_t_D.png	 D	 t	 t	 n.a.	 3.318669e-01
8	 2	 272	 unflanked	 bex	 32	 0.500000	 0.000000	 unflanked_bex_freq_32_amplitude_0.5_rep_2_r_D.png	 D	 r	 r	 n.a.	 2.982783e-01
8	 2	 273	 unflanked	 bex	 2	 3.000000	 0.000000	 unflanked_bex_freq_2_amplitude_3_rep_5_r_K.png	 K	 r	 r	 n.a.	 4.738866e-01
8	 2	 274	 unflanked	 bex	 6	 3.000000	 0.000000	 unflanked_bex_freq_6_amplitude_3_rep_4_l_N.png	 N	 l	 l	 n.a.	 2.039631e-01
8	 2	 275	 unflanked	 bex	 32	 5.000000	 0.000000	 unflanked_bex_freq_32_amplitude_5_rep_2_r_K.png	 K	 r	 r	 n.a.	 2.231897e-01
8	 2	 276	 unflanked	 bex	 4	 1.000000	 0.000000	 unflanked_bex_freq_4_amplitude_1_rep_4_b_N.png	 N	 b	 t	 n.a.	 2.384884e-01
8	 2	 277	 unflanked	 bex	 6	 2.000000	 0.000000	 unflanked_bex_freq_6_amplitude_2_rep_4_b_K.png	 K	 b	 b	 n.a.	 2.395770e-01
8	 2	 278	 unflanked	 bex	 16	 5.000000	 0.000000	 unflanked_bex_freq_16_amplitude_5_rep_3_l_H.png	 H	 l	 l	 n.a.	 2.397696e-01
8	 2	 279	 unflanked	 bex	 6	 3.000000	 0.000000	 unflanked_bex_freq_6_amplitude_3_rep_3_t_D.png	 D	 t	 t	 n.a.	 2.025549e-01
8	 2	 280	 unflanked	 bex	 32	 3.000000	 0.000000	 unflanked_bex_freq_32_amplitude_3_rep_4_t_D.png	 D	 t	 t	 n.a.	 3.032181e-01
8	 2	 281	 unflanked	 bex	 4	 2.500000	 0.000000	 unflanked_bex_freq_4_amplitude_2.5_rep_7_t_K.png	 K	 t	 t	 n.a.	 2.371334e-01
8	 2	 282	 unflanked	 bex	 32	 3.000000	 0.000000	 unflanked_bex_freq_32_amplitude_3_rep_3_r_H.png	 H	 r	 r	 n.a.	 2.274996e-01
8	 2	 283	 unflanked	 bex	 8	 1.500000	 0.000000	 unflanked_bex_freq_8_amplitude_1.5_rep_0_r_K.png	 K	 r	 r	 n.a.	 3.797869e-01
8	 2	 284	 unflanked	 bex	 32	 2.500000	 0.000000	 unflanked_bex_freq_32_amplitude_2.5_rep_4_r_N.png	 N	 r	 r	 n.a.	 2.488708e-01
8	 2	 285	 unflanked	 bex	 6	 2.500000	 0.000000	 unflanked_bex_freq_6_amplitude_2.5_rep_3_b_K.png	 K	 b	 b	 n.a.	 2.288853e-01
8	 2	 286	 unflanked	 bex	 32	 1.000000	 0.000000	 unflanked_bex_freq_32_amplitude_1_rep_7_l_K.png	 K	 l	 t	 n.a.	 4.350814e-01
8	 2	 287	 unflanked	 bex	 4	 0.500000	 0.000000	 unflanked_bex_freq_4_amplitude_0.5_rep_4_l_K.png	 K	 l	 t	 n.a.	 6.003169e-01
8	 2	 288	 unflanked	 bex	 4	 3.000000	 0.000000	 unflanked_bex_freq_4_amplitude_3_rep_6_b_N.png	 N	 b	 b	 n.a.	 2.219276e-01
8	 2	 289	 unflanked	 bex	 6	 1.000000	 0.000000	 unflanked_bex_freq_6_amplitude_1_rep_2_b_D.png	 D	 b	 b	 n.a.	 4.136551e-01
8	 2	 290	 unflanked	 bex	 8	 3.000000	 0.000000	 unflanked_bex_freq_8_amplitude_3_rep_6_b_H.png	 H	 b	 b	 n.a.	 2.334128e-01
8	 2	 291	 unflanked	 bex	 2	 1.000000	 0.000000	 unflanked_bex_freq_2_amplitude_1_rep_4_b_D.png	 D	 b	 b	 n.a.	 3.553545e-01
8	 2	 292	 unflanked	 bex	 2	 0.500000	 0.000000	 unflanked_bex_freq_2_amplitude_0.5_rep_7_r_K.png	 K	 r	 t	 n.a.	 4.956881e-01
8	 2	 293	 unflanked	 bex	 16	 3.000000	 0.000000	 unflanked_bex_freq_16_amplitude_3_rep_0_b_K.png	 K	 b	 b	 n.a.	 1.683791e-01
8	 2	 294	 unflanked	 bex	 6	 0.500000	 0.000000	 unflanked_bex_freq_6_amplitude_0.5_rep_4_t_K.png	 K	 t	 b	 n.a.	 5.669619e-01
8	 2	 295	 unflanked	 bex	 8	 2.000000	 0.000000	 unflanked_bex_freq_8_amplitude_2_rep_8_t_K.png	 K	 t	 t	 n.a.	 2.814083e-01
8	 2	 296	 unflanked	 bex	 4	 5.000000	 0.000000	 unflanked_bex_freq_4_amplitude_5_rep_3_t_N.png	 N	 t	 t	 n.a.	 1.945241e-01
8	 2	 297	 unflanked	 bex	 8	 2.000000	 0.000000	 unflanked_bex_freq_8_amplitude_2_rep_4_b_H.png	 H	 b	 b	 n.a.	 1.925125e-01
8	 2	 298	 unflanked	 bex	 16	 1.500000	 0.000000	 unflanked_bex_freq_16_amplitude_1.5_rep_1_b_H.png	 H	 b	 b	 n.a.	 3.556238e-01
8	 2	 299	 unflanked	 bex	 4	 0.500000	 0.000000	 unflanked_bex_freq_4_amplitude_0.5_rep_2_r_D.png	 D	 r	 r	 n.a.	 4.636539e-01
8	 2	 300	 unflanked	 bex	 2	 1.000000	 0.000000	 unflanked_bex_freq_2_amplitude_1_rep_9_t_N.png	 N	 t	 t	 n.a.	 4.053530e-01
8	 2	 301	 unflanked	 bex	 6	 1.000000	 0.000000	 unflanked_bex_freq_6_amplitude_1_rep_0_r_H.png	 H	 r	 r	 n.a.	 4.620856e-01
8	 2	 302	 unflanked	 bex	 4	 5.000000	 0.000000	 unflanked_bex_freq_4_amplitude_5_rep_5_r_K.png	 K	 r	 r	 n.a.	 2.374059e-01
8	 2	 303	 unflanked	 bex	 4	 2.500000	 0.000000	 unflanked_bex_freq_4_amplitude_2.5_rep_6_l_K.png	 K	 l	 l	 n.a.	 2.460666e-01
8	 2	 304	 unflanked	 bex	 6	 5.000000	 0.000000	 unflanked_bex_freq_6_amplitude_5_rep_0_t_K.png	 K	 t	 t	 n.a.	 2.050274e-01
8	 2	 305	 unflanked	 bex	 32	 0.500000	 0.000000	 unflanked_bex_freq_32_amplitude_0.5_rep_4_b_H.png	 H	 b	 b	 n.a.	 2.849567e-01
8	 2	 306	 unflanked	 bex	 16	 1.500000	 0.000000	 unflanked_bex_freq_16_amplitude_1.5_rep_7_r_K.png	 K	 r	 r	 n.a.	 2.222677e-01
8	 2	 307	 unflanked	 bex	 4	 0.500000	 0.000000	 unflanked_bex_freq_4_amplitude_0.5_rep_3_b_H.png	 H	 b	 b	 n.a.	 3.461288e-01
8	 2	 308	 unflanked	 bex	 2	 2.500000	 0.000000	 unflanked_bex_freq_2_amplitude_2.5_rep_2_b_D.png	 D	 b	 b	 n.a.	 3.463501e-01
8	 2	 309	 unflanked	 bex	 8	 1.000000	 0.000000	 unflanked_bex_freq_8_amplitude_1_rep_5_b_K.png	 K	 b	 r	 n.a.	 6.023464e-01
8	 2	 310	 unflanked	 bex	 8	 3.000000	 0.000000	 unflanked_bex_freq_8_amplitude_3_rep_3_l_H.png	 H	 l	 l	 n.a.	 2.034410e-01
8	 2	 311	 unflanked	 bex	 16	 2.500000	 0.000000	 unflanked_bex_freq_16_amplitude_2.5_rep_3_l_N.png	 N	 l	 l	 n.a.	 2.697102e-01
8	 2	 312	 unflanked	 bex	 32	 2.500000	 0.000000	 unflanked_bex_freq_32_amplitude_2.5_rep_7_l_H.png	 H	 l	 l	 n.a.	 4.010188e-01
8	 2	 313	 unflanked	 bex	 4	 1.500000	 0.000000	 unflanked_bex_freq_4_amplitude_1.5_rep_4_l_H.png	 H	 l	 b	 n.a.	 2.974695e-01
8	 2	 314	 unflanked	 bex	 6	 1.000000	 0.000000	 unflanked_bex_freq_6_amplitude_1_rep_1_l_N.png	 N	 l	 l	 n.a.	 3.724914e-01
8	 2	 315	 unflanked	 bex	 6	 5.000000	 0.000000	 unflanked_bex_freq_6_amplitude_5_rep_1_r_D.png	 D	 r	 r	 n.a.	 2.553333e-01
8	 2	 316	 unflanked	 bex	 8	 0.500000	 0.000000	 unflanked_bex_freq_8_amplitude_0.5_rep_1_r_D.png	 D	 r	 r	 n.a.	 4.112505e-01
8	 2	 317	 unflanked	 bex	 6	 1.000000	 0.000000	 unflanked_bex_freq_6_amplitude_1_rep_3_b_K.png	 K	 b	 t	 n.a.	 2.711285e-01
8	 2	 318	 unflanked	 bex	 32	 1.500000	 0.000000	 unflanked_bex_freq_32_amplitude_1.5_rep_4_t_D.png	 D	 t	 r	 n.a.	 2.292933e-01
8	 2	 319	 unflanked	 bex	 4	 2.500000	 0.000000	 unflanked_bex_freq_4_amplitude_2.5_rep_0_b_K.png	 K	 b	 b	 n.a.	 2.611116e-01
8	 2	 320	 unflanked	 bex	 16	 0.500000	 0.000000	 unflanked_bex_freq_16_amplitude_0.5_rep_1_r_H.png	 H	 r	 t	 n.a.	 3.319967e-01
8	 2	 321	 unflanked	 bex	 32	 0.500000	 0.000000	 unflanked_bex_freq_32_amplitude_0.5_rep_6_t_N.png	 N	 t	 r	 n.a.	 3.764098e-01
8	 2	 322	 unflanked	 bex	 6	 3.000000	 0.000000	 unflanked_bex_freq_6_amplitude_3_rep_0_b_K.png	 K	 b	 t	 n.a.	 5.167728e-01
8	 2	 323	 unflanked	 bex	 4	 3.000000	 0.000000	 unflanked_bex_freq_4_amplitude_3_rep_5_r_K.png	 K	 r	 r	 n.a.	 1.952624e-01
8	 2	 324	 unflanked	 bex	 16	 1.000000	 0.000000	 unflanked_bex_freq_16_amplitude_1_rep_0_r_N.png	 N	 r	 r	 n.a.	 3.684370e-01
8	 2	 325	 unflanked	 bex	 8	 0.500000	 0.000000	 unflanked_bex_freq_8_amplitude_0.5_rep_9_t_N.png	 N	 t	 b	 n.a.	 7.083901e-01
8	 2	 326	 unflanked	 bex	 16	 1.500000	 0.000000	 unflanked_bex_freq_16_amplitude_1.5_rep_9_t_H.png	 H	 t	 t	 n.a.	 2.792839e-01
8	 2	 327	 unflanked	 bex	 8	 5.000000	 0.000000	 unflanked_bex_freq_8_amplitude_5_rep_3_l_N.png	 N	 l	 l	 n.a.	 2.131388e-01
8	 2	 328	 unflanked	 bex	 4	 3.000000	 0.000000	 unflanked_bex_freq_4_amplitude_3_rep_2_t_D.png	 D	 t	 t	 n.a.	 2.269215e-01
8	 2	 329	 unflanked	 bex	 32	 2.500000	 0.000000	 unflanked_bex_freq_32_amplitude_2.5_rep_1_l_H.png	 H	 l	 l	 n.a.	 2.908157e-01
8	 2	 330	 unflanked	 bex	 4	 3.000000	 0.000000	 unflanked_bex_freq_4_amplitude_3_rep_3_b_D.png	 D	 b	 b	 n.a.	 2.992768e-01
8	 2	 331	 unflanked	 bex	 4	 0.500000	 0.000000	 unflanked_bex_freq_4_amplitude_0.5_rep_0_r_D.png	 D	 r	 r	 n.a.	 3.831304e-01
8	 2	 332	 unflanked	 bex	 2	 0.500000	 0.000000	 unflanked_bex_freq_2_amplitude_0.5_rep_5_t_N.png	 N	 t	 t	 n.a.	 4.566065e-01
8	 2	 333	 unflanked	 bex	 16	 1.000000	 0.000000	 unflanked_bex_freq_16_amplitude_1_rep_3_r_K.png	 K	 r	 r	 n.a.	 6.028696e-01
8	 2	 334	 unflanked	 bex	 4	 0.500000	 0.000000	 unflanked_bex_freq_4_amplitude_0.5_rep_7_r_D.png	 D	 r	 t	 n.a.	 3.907298e-01
8	 2	 335	 unflanked	 bex	 32	 1.500000	 0.000000	 unflanked_bex_freq_32_amplitude_1.5_rep_6_l_D.png	 D	 l	 t	 n.a.	 2.547021e-01
8	 2	 336	 unflanked	 bex	 8	 5.000000	 0.000000	 unflanked_bex_freq_8_amplitude_5_rep_6_t_N.png	 N	 t	 t	 n.a.	 2.540940e-01
8	 2	 337	 unflanked	 bex	 16	 5.000000	 0.000000	 unflanked_bex_freq_16_amplitude_5_rep_6_l_N.png	 N	 l	 l	 n.a.	 2.284642e-01
8	 2	 338	 unflanked	 bex	 2	 2.500000	 0.000000	 unflanked_bex_freq_2_amplitude_2.5_rep_4_l_D.png	 D	 l	 l	 n.a.	 5.770319e-01
8	 2	 339	 unflanked	 bex	 8	 0.500000	 0.000000	 unflanked_bex_freq_8_amplitude_0.5_rep_6_l_D.png	 D	 l	 r	 n.a.	 5.340663e-01
8	 2	 340	 unflanked	 bex	 8	 3.000000	 0.000000	 unflanked_bex_freq_8_amplitude_3_rep_0_b_D.png	 D	 b	 b	 n.a.	 1.937180e-01
8	 2	 341	 unflanked	 bex	 6	 2.000000	 0.000000	 unflanked_bex_freq_6_amplitude_2_rep_7_t_N.png	 N	 t	 t	 n.a.	 2.174576e-01
8	 2	 342	 unflanked	 bex	 16	 2.500000	 0.000000	 unflanked_bex_freq_16_amplitude_2.5_rep_5_l_N.png	 N	 l	 l	 n.a.	 2.360459e-01
8	 2	 343	 unflanked	 bex	 8	 5.000000	 0.000000	 unflanked_bex_freq_8_amplitude_5_rep_9_b_H.png	 H	 b	 b	 n.a.	 2.228327e-01
8	 2	 344	 unflanked	 bex	 32	 3.000000	 0.000000	 unflanked_bex_freq_32_amplitude_3_rep_6_l_N.png	 N	 l	 l	 n.a.	 2.648432e-01
8	 2	 345	 unflanked	 bex	 8	 2.500000	 0.000000	 unflanked_bex_freq_8_amplitude_2.5_rep_7_t_K.png	 K	 t	 t	 n.a.	 3.248596e-01
8	 2	 346	 unflanked	 bex	 16	 0.500000	 0.000000	 unflanked_bex_freq_16_amplitude_0.5_rep_3_r_K.png	 K	 r	 r	 n.a.	 3.029070e-01
8	 2	 347	 unflanked	 bex	 6	 5.000000	 0.000000	 unflanked_bex_freq_6_amplitude_5_rep_4_l_N.png	 N	 l	 l	 n.a.	 1.752827e-01
8	 2	 348	 unflanked	 bex	 16	 5.000000	 0.000000	 unflanked_bex_freq_16_amplitude_5_rep_8_l_D.png	 D	 l	 l	 n.a.	 2.329460e-01
8	 2	 349	 unflanked	 bex	 4	 2.000000	 0.000000	 unflanked_bex_freq_4_amplitude_2_rep_9_l_K.png	 K	 l	 l	 n.a.	 2.546890e-01
8	 2	 350	 unflanked	 bex	 8	 2.000000	 0.000000	 unflanked_bex_freq_8_amplitude_2_rep_3_t_H.png	 H	 t	 t	 n.a.	 3.567991e-01
8	 2	 351	 unflanked	 bex	 8	 1.500000	 0.000000	 unflanked_bex_freq_8_amplitude_1.5_rep_9_t_H.png	 H	 t	 t	 n.a.	 3.004344e-01
8	 2	 352	 unflanked	 bex	 8	 0.500000	 0.000000	 unflanked_bex_freq_8_amplitude_0.5_rep_4_r_D.png	 D	 r	 r	 n.a.	 3.046758e-01
8	 2	 353	 unflanked	 bex	 2	 1.500000	 0.000000	 unflanked_bex_freq_2_amplitude_1.5_rep_9_t_H.png	 H	 t	 t	 n.a.	 3.967131e-01
8	 2	 354	 unflanked	 bex	 6	 2.500000	 0.000000	 unflanked_bex_freq_6_amplitude_2.5_rep_5_t_K.png	 K	 t	 t	 n.a.	 2.024260e-01
8	 2	 355	 unflanked	 bex	 6	 0.500000	 0.000000	 unflanked_bex_freq_6_amplitude_0.5_rep_5_t_N.png	 N	 t	 t	 n.a.	 4.800082e-01
8	 2	 356	 unflanked	 bex	 8	 1.500000	 0.000000	 unflanked_bex_freq_8_amplitude_1.5_rep_3_l_N.png	 N	 l	 l	 n.a.	 2.933353e-01
8	 2	 357	 unflanked	 bex	 2	 1.000000	 0.000000	 unflanked_bex_freq_2_amplitude_1_rep_6_t_N.png	 N	 t	 r	 n.a.	 3.721475e-01
8	 2	 358	 unflanked	 bex	 32	 2.000000	 0.000000	 unflanked_bex_freq_32_amplitude_2_rep_4_t_H.png	 H	 t	 t	 n.a.	 2.532386e-01
8	 2	 359	 unflanked	 bex	 16	 5.000000	 0.000000	 unflanked_bex_freq_16_amplitude_5_rep_2_t_D.png	 D	 t	 t	 n.a.	 2.811977e-01
8	 2	 360	 unflanked	 bex	 6	 2.500000	 0.000000	 unflanked_bex_freq_6_amplitude_2.5_rep_7_r_N.png	 N	 r	 r	 n.a.	 2.062605e-01
8	 2	 361	 unflanked	 bex	 8	 1.000000	 0.000000	 unflanked_bex_freq_8_amplitude_1_rep_8_b_D.png	 D	 b	 b	 n.a.	 2.891973e-01
8	 2	 362	 unflanked	 bex	 4	 1.000000	 0.000000	 unflanked_bex_freq_4_amplitude_1_rep_9_t_K.png	 K	 t	 t	 n.a.	 2.964878e-01
8	 2	 363	 unflanked	 bex	 16	 1.000000	 0.000000	 unflanked_bex_freq_16_amplitude_1_rep_9_t_H.png	 H	 t	 b	 n.a.	 5.669910e-01
8	 2	 364	 unflanked	 bex	 4	 1.000000	 0.000000	 unflanked_bex_freq_4_amplitude_1_rep_1_r_H.png	 H	 r	 r	 n.a.	 2.967809e-01
8	 2	 365	 unflanked	 bex	 32	 2.000000	 0.000000	 unflanked_bex_freq_32_amplitude_2_rep_5_b_K.png	 K	 b	 r	 n.a.	 4.317426e-01
8	 2	 366	 unflanked	 bex	 6	 3.000000	 0.000000	 unflanked_bex_freq_6_amplitude_3_rep_8_l_N.png	 N	 l	 l	 n.a.	 1.857296e-01
8	 2	 367	 unflanked	 bex	 8	 0.500000	 0.000000	 unflanked_bex_freq_8_amplitude_0.5_rep_5_b_N.png	 N	 b	 t	 n.a.	 4.201997e-01
8	 2	 368	 unflanked	 bex	 2	 1.500000	 0.000000	 unflanked_bex_freq_2_amplitude_1.5_rep_3_b_H.png	 H	 b	 t	 n.a.	 6.571148e-01
8	 2	 369	 unflanked	 bex	 8	 3.000000	 0.000000	 unflanked_bex_freq_8_amplitude_3_rep_4_b_N.png	 N	 b	 b	 n.a.	 2.406694e-01
8	 2	 370	 unflanked	 bex	 16	 5.000000	 0.000000	 unflanked_bex_freq_16_amplitude_5_rep_5_r_N.png	 N	 r	 r	 n.a.	 1.819990e-01
8	 2	 371	 unflanked	 bex	 16	 3.000000	 0.000000	 unflanked_bex_freq_16_amplitude_3_rep_6_l_K.png	 K	 l	 l	 n.a.	 2.499761e-01
8	 2	 372	 unflanked	 bex	 32	 5.000000	 0.000000	 unflanked_bex_freq_32_amplitude_5_rep_5_b_K.png	 K	 b	 b	 n.a.	 3.148499e-01
8	 2	 373	 unflanked	 bex	 32	 3.000000	 0.000000	 unflanked_bex_freq_32_amplitude_3_rep_0_t_N.png	 N	 t	 r	 n.a.	 3.952330e-01
8	 2	 374	 unflanked	 bex	 4	 1.000000	 0.000000	 unflanked_bex_freq_4_amplitude_1_rep_0_b_H.png	 H	 b	 b	 n.a.	 2.143182e-01
8	 2	 375	 unflanked	 bex	 16	 5.000000	 0.000000	 unflanked_bex_freq_16_amplitude_5_rep_9_b_N.png	 N	 b	 b	 n.a.	 2.769866e-01
8	 2	 376	 unflanked	 bex	 2	 3.000000	 0.000000	 unflanked_bex_freq_2_amplitude_3_rep_6_b_D.png	 D	 b	 b	 n.a.	 3.623453e-01
8	 2	 377	 unflanked	 bex	 16	 2.000000	 0.000000	 unflanked_bex_freq_16_amplitude_2_rep_9_r_H.png	 H	 r	 r	 n.a.	 2.159638e-01
8	 2	 378	 unflanked	 bex	 32	 0.500000	 0.000000	 unflanked_bex_freq_32_amplitude_0.5_rep_3_t_N.png	 N	 t	 b	 n.a.	 3.704952e-01
8	 2	 379	 unflanked	 bex	 4	 1.500000	 0.000000	 unflanked_bex_freq_4_amplitude_1.5_rep_1_b_D.png	 D	 b	 b	 n.a.	 2.476138e-01
8	 2	 380	 unflanked	 bex	 6	 0.500000	 0.000000	 unflanked_bex_freq_6_amplitude_0.5_rep_1_r_K.png	 K	 r	 r	 n.a.	 3.715507e-01
8	 2	 381	 unflanked	 bex	 8	 2.500000	 0.000000	 unflanked_bex_freq_8_amplitude_2.5_rep_3_t_H.png	 H	 t	 t	 n.a.	 3.079987e-01
8	 2	 382	 unflanked	 bex	 4	 1.000000	 0.000000	 unflanked_bex_freq_4_amplitude_1_rep_6_l_N.png	 N	 l	 b	 n.a.	 3.507788e-01
8	 2	 383	 unflanked	 bex	 16	 0.500000	 0.000000	 unflanked_bex_freq_16_amplitude_0.5_rep_7_t_D.png	 D	 t	 t	 n.a.	 4.466676e-01
8	 2	 384	 unflanked	 bex	 4	 1.000000	 0.000000	 unflanked_bex_freq_4_amplitude_1_rep_5_l_D.png	 D	 l	 b	 n.a.	 7.607750e-01
8	 2	 385	 unflanked	 bex	 6	 3.000000	 0.000000	 unflanked_bex_freq_6_amplitude_3_rep_9_l_K.png	 K	 l	 l	 n.a.	 2.007729e-01
8	 2	 386	 unflanked	 bex	 8	 1.000000	 0.000000	 unflanked_bex_freq_8_amplitude_1_rep_9_b_K.png	 K	 b	 t	 n.a.	 4.580024e-01
8	 2	 387	 unflanked	 bex	 32	 1.000000	 0.000000	 unflanked_bex_freq_32_amplitude_1_rep_6_b_K.png	 K	 b	 l	 n.a.	 4.836664e-01
8	 2	 388	 unflanked	 bex	 32	 2.500000	 0.000000	 unflanked_bex_freq_32_amplitude_2.5_rep_5_r_H.png	 H	 r	 r	 n.a.	 2.041778e-01
8	 2	 389	 unflanked	 bex	 6	 1.500000	 0.000000	 unflanked_bex_freq_6_amplitude_1.5_rep_5_b_N.png	 N	 b	 b	 n.a.	 2.873311e-01
8	 2	 390	 unflanked	 bex	 16	 1.500000	 0.000000	 unflanked_bex_freq_16_amplitude_1.5_rep_3_t_D.png	 D	 t	 t	 n.a.	 4.956400e-01
8	 2	 391	 unflanked	 bex	 4	 2.000000	 0.000000	 unflanked_bex_freq_4_amplitude_2_rep_8_b_K.png	 K	 b	 b	 n.a.	 3.906747e-01
8	 2	 392	 unflanked	 bex	 2	 1.000000	 0.000000	 unflanked_bex_freq_2_amplitude_1_rep_0_r_D.png	 D	 r	 r	 n.a.	 4.098053e-01
8	 2	 393	 unflanked	 bex	 2	 3.000000	 0.000000	 unflanked_bex_freq_2_amplitude_3_rep_7_r_D.png	 D	 r	 r	 n.a.	 2.667643e-01
8	 2	 394	 unflanked	 bex	 2	 1.000000	 0.000000	 unflanked_bex_freq_2_amplitude_1_rep_3_l_K.png	 K	 l	 t	 n.a.	 5.201657e-01
8	 2	 395	 unflanked	 bex	 6	 0.500000	 0.000000	 unflanked_bex_freq_6_amplitude_0.5_rep_0_t_N.png	 N	 t	 r	 n.a.	 3.035257e-01
8	 2	 396	 unflanked	 bex	 16	 1.000000	 0.000000	 unflanked_bex_freq_16_amplitude_1_rep_2_l_K.png	 K	 l	 t	 n.a.	 3.425017e-01
8	 2	 397	 unflanked	 bex	 8	 1.500000	 0.000000	 unflanked_bex_freq_8_amplitude_1.5_rep_5_t_K.png	 K	 t	 r	 n.a.	 3.886457e-01
8	 2	 398	 unflanked	 bex	 32	 0.500000	 0.000000	 unflanked_bex_freq_32_amplitude_0.5_rep_7_l_N.png	 N	 l	 b	 n.a.	 3.985247e-01
8	 2	 399	 unflanked	 bex	 2	 5.000000	 0.000000	 unflanked_bex_freq_2_amplitude_5_rep_7_r_H.png	 H	 r	 r	 n.a.	 2.545256e-01
8	 2	 400	 unflanked	 bex	 4	 2.000000	 0.000000	 unflanked_bex_freq_4_amplitude_2_rep_7_l_N.png	 N	 l	 l	 n.a.	 2.941548e-01
8	 2	 401	 unflanked	 bex	 6	 3.000000	 0.000000	 unflanked_bex_freq_6_amplitude_3_rep_2_l_H.png	 H	 l	 l	 n.a.	 2.425295e-01
8	 2	 402	 unflanked	 bex	 2	 5.000000	 0.000000	 unflanked_bex_freq_2_amplitude_5_rep_9_r_N.png	 N	 r	 r	 n.a.	 2.296169e-01
8	 2	 403	 unflanked	 bex	 6	 1.500000	 0.000000	 unflanked_bex_freq_6_amplitude_1.5_rep_1_b_N.png	 N	 b	 r	 n.a.	 4.142767e-01
8	 2	 404	 unflanked	 bex	 16	 1.500000	 0.000000	 unflanked_bex_freq_16_amplitude_1.5_rep_0_b_H.png	 H	 b	 r	 n.a.	 3.191480e-01
8	 2	 405	 unflanked	 bex	 16	 2.000000	 0.000000	 unflanked_bex_freq_16_amplitude_2_rep_1_b_K.png	 K	 b	 r	 n.a.	 7.419080e-01
8	 2	 406	 unflanked	 bex	 32	 2.000000	 0.000000	 unflanked_bex_freq_32_amplitude_2_rep_6_r_K.png	 K	 r	 r	 n.a.	 2.721465e-01
8	 2	 407	 unflanked	 bex	 16	 2.000000	 0.000000	 unflanked_bex_freq_16_amplitude_2_rep_3_l_K.png	 K	 l	 l	 n.a.	 2.723040e-01
8	 2	 408	 unflanked	 bex	 16	 5.000000	 0.000000	 unflanked_bex_freq_16_amplitude_5_rep_0_r_K.png	 K	 r	 r	 n.a.	 1.589102e-01
8	 2	 409	 unflanked	 bex	 6	 2.500000	 0.000000	 unflanked_bex_freq_6_amplitude_2.5_rep_6_b_D.png	 D	 b	 b	 n.a.	 3.083868e-01
8	 2	 410	 unflanked	 bex	 6	 0.500000	 0.000000	 unflanked_bex_freq_6_amplitude_0.5_rep_6_t_N.png	 N	 t	 r	 n.a.	 3.362459e-01
8	 2	 411	 unflanked	 bex	 8	 1.000000	 0.000000	 unflanked_bex_freq_8_amplitude_1_rep_4_b_H.png	 H	 b	 t	 n.a.	 3.409135e-01
8	 2	 412	 unflanked	 bex	 8	 3.000000	 0.000000	 unflanked_bex_freq_8_amplitude_3_rep_7_t_D.png	 D	 t	 t	 n.a.	 3.007041e-01
8	 2	 413	 unflanked	 bex	 6	 1.000000	 0.000000	 unflanked_bex_freq_6_amplitude_1_rep_8_r_K.png	 K	 r	 r	 n.a.	 3.287784e-01
8	 2	 414	 unflanked	 bex	 32	 3.000000	 0.000000	 unflanked_bex_freq_32_amplitude_3_rep_8_t_K.png	 K	 t	 b	 n.a.	 5.350036e-01
8	 2	 415	 unflanked	 bex	 6	 5.000000	 0.000000	 unflanked_bex_freq_6_amplitude_5_rep_6_t_N.png	 N	 t	 t	 n.a.	 2.544250e-01
8	 2	 416	 unflanked	 bex	 8	 5.000000	 0.000000	 unflanked_bex_freq_8_amplitude_5_rep_8_b_D.png	 D	 b	 b	 n.a.	 2.506920e-01
8	 2	 417	 unflanked	 bex	 16	 1.000000	 0.000000	 unflanked_bex_freq_16_amplitude_1_rep_8_t_H.png	 H	 t	 t	 n.a.	 2.329306e-01
8	 2	 418	 unflanked	 bex	 8	 5.000000	 0.000000	 unflanked_bex_freq_8_amplitude_5_rep_4_l_D.png	 D	 l	 l	 n.a.	 2.376939e-01
8	 2	 419	 unflanked	 bex	 16	 2.000000	 0.000000	 unflanked_bex_freq_16_amplitude_2_rep_0_l_K.png	 K	 l	 l	 n.a.	 2.880446e-01
8	 2	 420	 unflanked	 bex	 32	 3.000000	 0.000000	 unflanked_bex_freq_32_amplitude_3_rep_7_b_N.png	 N	 b	 b	 n.a.	 4.750143e-01
