subject	 session	 trial	 flanked	 distortion	 freq	 amplitude	 spacing	 im_name	 targ_letter	 targ_pos	 response	 eyemovement	 RT
8	 3	 1	 flanked	 rf	 2	 0.216700	 2.000000	 flanked_rf_freq_2_amplitude_0.2167_rep_0_t_N_2.0.png	 N	 t	 t	 n.a.	 3.128179e-01
8	 3	 2	 flanked	 rf	 3	 0.268300	 2.000000	 flanked_rf_freq_3_amplitude_0.2683_rep_5_b_K_2.0.png	 K	 b	 b	 n.a.	 3.689274e-01
8	 3	 3	 flanked	 rf	 8	 0.007500	 2.000000	 flanked_rf_freq_8_amplitude_0.0075_rep_9_b_H_2.0.png	 H	 b	 t	 n.a.	 3.099709e-01
8	 3	 4	 flanked	 rf	 12	 0.216700	 2.000000	 flanked_rf_freq_12_amplitude_0.2167_rep_6_t_K_2.0.png	 K	 t	 t	 n.a.	 2.413463e-01
8	 3	 5	 flanked	 rf	 3	 0.010000	 2.000000	 flanked_rf_freq_3_amplitude_0.01_rep_9_b_K_2.0.png	 K	 b	 l	 n.a.	 4.383301e-01
8	 3	 6	 flanked	 rf	 12	 0.268300	 2.000000	 flanked_rf_freq_12_amplitude_0.2683_rep_4_b_D_2.0.png	 D	 b	 b	 n.a.	 2.171272e-01
8	 3	 7	 flanked	 rf	 5	 0.165000	 2.000000	 flanked_rf_freq_5_amplitude_0.165_rep_0_r_D_2.0.png	 D	 r	 r	 n.a.	 2.333563e-01
8	 3	 8	 flanked	 rf	 8	 0.216700	 2.000000	 flanked_rf_freq_8_amplitude_0.2167_rep_9_r_D_2.0.png	 D	 r	 r	 n.a.	 2.620935e-01
8	 3	 9	 flanked	 rf	 12	 0.007500	 2.000000	 flanked_rf_freq_12_amplitude_0.0075_rep_7_r_H_2.0.png	 H	 r	 t	 n.a.	 2.560056e-01
8	 3	 10	 flanked	 rf	 3	 0.113300	 2.000000	 flanked_rf_freq_3_amplitude_0.1133_rep_0_b_K_2.0.png	 K	 b	 r	 n.a.	 4.965291e-01
8	 3	 11	 flanked	 rf	 2	 0.268300	 2.000000	 flanked_rf_freq_2_amplitude_0.2683_rep_2_b_N_2.0.png	 N	 b	 t	 n.a.	 5.619241e-01
8	 3	 12	 flanked	 rf	 8	 0.010000	 2.000000	 flanked_rf_freq_8_amplitude_0.01_rep_7_b_D_2.0.png	 D	 b	 l	 n.a.	 4.997373e-01
8	 3	 13	 flanked	 rf	 4	 0.010000	 2.000000	 flanked_rf_freq_4_amplitude_0.01_rep_7_l_K_2.0.png	 K	 l	 b	 n.a.	 3.447176e-01
8	 3	 14	 flanked	 rf	 12	 0.113300	 2.000000	 flanked_rf_freq_12_amplitude_0.1133_rep_5_r_D_2.0.png	 D	 r	 r	 n.a.	 2.458682e-01
8	 3	 15	 flanked	 rf	 2	 0.268300	 2.000000	 flanked_rf_freq_2_amplitude_0.2683_rep_6_b_N_2.0.png	 N	 b	 l	 n.a.	 3.044831e-01
8	 3	 16	 flanked	 rf	 2	 0.007500	 2.000000	 flanked_rf_freq_2_amplitude_0.0075_rep_1_b_K_2.0.png	 K	 b	 t	 n.a.	 2.512463e-01
8	 3	 17	 flanked	 rf	 8	 0.007500	 2.000000	 flanked_rf_freq_8_amplitude_0.0075_rep_0_r_D_2.0.png	 D	 r	 r	 n.a.	 2.569533e-01
8	 3	 18	 flanked	 rf	 4	 0.165000	 2.000000	 flanked_rf_freq_4_amplitude_0.165_rep_3_r_H_2.0.png	 H	 r	 r	 n.a.	 4.479463e-01
8	 3	 19	 flanked	 rf	 3	 0.165000	 2.000000	 flanked_rf_freq_3_amplitude_0.165_rep_1_l_N_2.0.png	 N	 l	 b	 n.a.	 5.028334e-01
8	 3	 20	 flanked	 rf	 5	 0.165000	 2.000000	 flanked_rf_freq_5_amplitude_0.165_rep_9_b_H_2.0.png	 H	 b	 b	 n.a.	 3.472605e-01
8	 3	 21	 flanked	 rf	 3	 0.007500	 2.000000	 flanked_rf_freq_3_amplitude_0.0075_rep_9_b_K_2.0.png	 K	 b	 t	 n.a.	 4.062967e-01
8	 3	 22	 flanked	 rf	 3	 0.268300	 2.000000	 flanked_rf_freq_3_amplitude_0.2683_rep_1_r_N_2.0.png	 N	 r	 r	 n.a.	 5.451631e-01
8	 3	 23	 flanked	 rf	 2	 0.216700	 2.000000	 flanked_rf_freq_2_amplitude_0.2167_rep_9_t_N_2.0.png	 N	 t	 l	 n.a.	 4.675043e-01
8	 3	 24	 flanked	 rf	 5	 0.061700	 2.000000	 flanked_rf_freq_5_amplitude_0.0617_rep_9_l_K_2.0.png	 K	 l	 r	 n.a.	 3.884399e-01
8	 3	 25	 flanked	 rf	 2	 0.216700	 2.000000	 flanked_rf_freq_2_amplitude_0.2167_rep_8_r_H_2.0.png	 H	 r	 r	 n.a.	 3.043888e-01
8	 3	 26	 flanked	 rf	 3	 0.010000	 2.000000	 flanked_rf_freq_3_amplitude_0.01_rep_6_b_H_2.0.png	 H	 b	 t	 n.a.	 4.004229e-01
8	 3	 27	 flanked	 rf	 2	 0.268300	 2.000000	 flanked_rf_freq_2_amplitude_0.2683_rep_0_l_H_2.0.png	 H	 l	 b	 n.a.	 3.359922e-01
8	 3	 28	 flanked	 rf	 2	 0.061700	 2.000000	 flanked_rf_freq_2_amplitude_0.0617_rep_2_t_K_2.0.png	 K	 t	 t	 n.a.	 3.808336e-01
8	 3	 29	 flanked	 rf	 4	 0.061700	 2.000000	 flanked_rf_freq_4_amplitude_0.0617_rep_7_b_K_2.0.png	 K	 b	 r	 n.a.	 3.203452e-01
8	 3	 30	 flanked	 rf	 5	 0.216700	 2.000000	 flanked_rf_freq_5_amplitude_0.2167_rep_5_r_H_2.0.png	 H	 r	 r	 n.a.	 4.203132e-01
8	 3	 31	 flanked	 rf	 8	 0.061700	 2.000000	 flanked_rf_freq_8_amplitude_0.0617_rep_4_l_K_2.0.png	 K	 l	 l	 n.a.	 4.437752e-01
8	 3	 32	 flanked	 rf	 5	 0.165000	 2.000000	 flanked_rf_freq_5_amplitude_0.165_rep_4_l_K_2.0.png	 K	 l	 r	 n.a.	 5.618091e-01
8	 3	 33	 flanked	 rf	 2	 0.113300	 2.000000	 flanked_rf_freq_2_amplitude_0.1133_rep_4_b_D_2.0.png	 D	 b	 t	 n.a.	 4.488063e-01
8	 3	 34	 flanked	 rf	 2	 0.268300	 2.000000	 flanked_rf_freq_2_amplitude_0.2683_rep_1_r_H_2.0.png	 H	 r	 r	 n.a.	 2.559176e-01
8	 3	 35	 flanked	 rf	 3	 0.165000	 2.000000	 flanked_rf_freq_3_amplitude_0.165_rep_3_l_N_2.0.png	 N	 l	 l	 n.a.	 3.582264e-01
8	 3	 36	 flanked	 rf	 2	 0.165000	 2.000000	 flanked_rf_freq_2_amplitude_0.165_rep_3_b_K_2.0.png	 K	 b	 b	 n.a.	 5.208800e-01
8	 3	 37	 flanked	 rf	 12	 0.216700	 2.000000	 flanked_rf_freq_12_amplitude_0.2167_rep_2_b_N_2.0.png	 N	 b	 b	 n.a.	 3.843056e-01
8	 3	 38	 flanked	 rf	 3	 0.216700	 2.000000	 flanked_rf_freq_3_amplitude_0.2167_rep_1_r_D_2.0.png	 D	 r	 r	 n.a.	 3.054815e-01
8	 3	 39	 flanked	 rf	 5	 0.007500	 2.000000	 flanked_rf_freq_5_amplitude_0.0075_rep_3_r_N_2.0.png	 N	 r	 t	 n.a.	 2.201919e-01
8	 3	 40	 flanked	 rf	 4	 0.165000	 2.000000	 flanked_rf_freq_4_amplitude_0.165_rep_0_t_N_2.0.png	 N	 t	 r	 n.a.	 2.773073e-01
8	 3	 41	 flanked	 rf	 5	 0.268300	 2.000000	 flanked_rf_freq_5_amplitude_0.2683_rep_5_l_K_2.0.png	 K	 l	 l	 n.a.	 2.800388e-01
8	 3	 42	 flanked	 rf	 5	 0.007500	 2.000000	 flanked_rf_freq_5_amplitude_0.0075_rep_8_t_N_2.0.png	 N	 t	 b	 n.a.	 2.656180e-01
8	 3	 43	 flanked	 rf	 8	 0.216700	 2.000000	 flanked_rf_freq_8_amplitude_0.2167_rep_1_b_D_2.0.png	 D	 b	 b	 n.a.	 2.949659e-01
8	 3	 44	 flanked	 rf	 8	 0.007500	 2.000000	 flanked_rf_freq_8_amplitude_0.0075_rep_4_r_H_2.0.png	 H	 r	 t	 n.a.	 3.142713e-01
8	 3	 45	 flanked	 rf	 8	 0.216700	 2.000000	 flanked_rf_freq_8_amplitude_0.2167_rep_8_b_K_2.0.png	 K	 b	 b	 n.a.	 2.498910e-01
8	 3	 46	 flanked	 rf	 8	 0.061700	 2.000000	 flanked_rf_freq_8_amplitude_0.0617_rep_8_l_H_2.0.png	 H	 l	 l	 n.a.	 4.844196e-01
8	 3	 47	 flanked	 rf	 5	 0.007500	 2.000000	 flanked_rf_freq_5_amplitude_0.0075_rep_5_b_D_2.0.png	 D	 b	 t	 n.a.	 3.973539e-01
8	 3	 48	 flanked	 rf	 4	 0.268300	 2.000000	 flanked_rf_freq_4_amplitude_0.2683_rep_3_l_N_2.0.png	 N	 l	 l	 n.a.	 2.062131e-01
8	 3	 49	 flanked	 rf	 2	 0.061700	 2.000000	 flanked_rf_freq_2_amplitude_0.0617_rep_0_t_N_2.0.png	 N	 t	 r	 n.a.	 3.933429e-01
8	 3	 50	 flanked	 rf	 8	 0.268300	 2.000000	 flanked_rf_freq_8_amplitude_0.2683_rep_3_b_K_2.0.png	 K	 b	 b	 n.a.	 3.380994e-01
8	 3	 51	 flanked	 rf	 3	 0.010000	 2.000000	 flanked_rf_freq_3_amplitude_0.01_rep_8_b_H_2.0.png	 H	 b	 b	 n.a.	 6.610068e-01
8	 3	 52	 flanked	 rf	 4	 0.268300	 2.000000	 flanked_rf_freq_4_amplitude_0.2683_rep_4_b_H_2.0.png	 H	 b	 b	 n.a.	 5.812874e-01
8	 3	 53	 flanked	 rf	 2	 0.268300	 2.000000	 flanked_rf_freq_2_amplitude_0.2683_rep_7_r_N_2.0.png	 N	 r	 r	 n.a.	 4.303713e-01
8	 3	 54	 flanked	 rf	 5	 0.165000	 2.000000	 flanked_rf_freq_5_amplitude_0.165_rep_8_l_K_2.0.png	 K	 l	 l	 n.a.	 2.910791e-01
8	 3	 55	 flanked	 rf	 5	 0.061700	 2.000000	 flanked_rf_freq_5_amplitude_0.0617_rep_3_b_N_2.0.png	 N	 b	 l	 n.a.	 5.074163e-01
8	 3	 56	 flanked	 rf	 2	 0.061700	 2.000000	 flanked_rf_freq_2_amplitude_0.0617_rep_3_b_N_2.0.png	 N	 b	 r	 n.a.	 4.363782e-01
8	 3	 57	 flanked	 rf	 2	 0.010000	 2.000000	 flanked_rf_freq_2_amplitude_0.01_rep_0_t_D_2.0.png	 D	 t	 l	 n.a.	 5.856769e-01
8	 3	 58	 flanked	 rf	 12	 0.165000	 2.000000	 flanked_rf_freq_12_amplitude_0.165_rep_1_r_H_2.0.png	 H	 r	 r	 n.a.	 3.322938e-01
8	 3	 59	 flanked	 rf	 12	 0.061700	 2.000000	 flanked_rf_freq_12_amplitude_0.0617_rep_7_b_N_2.0.png	 N	 b	 b	 n.a.	 5.094007e-01
8	 3	 60	 flanked	 rf	 5	 0.216700	 2.000000	 flanked_rf_freq_5_amplitude_0.2167_rep_4_t_K_2.0.png	 K	 t	 t	 n.a.	 2.975650e-01
8	 3	 61	 flanked	 rf	 3	 0.113300	 2.000000	 flanked_rf_freq_3_amplitude_0.1133_rep_7_r_D_2.0.png	 D	 r	 t	 n.a.	 6.388956e-01
8	 3	 62	 flanked	 rf	 8	 0.165000	 2.000000	 flanked_rf_freq_8_amplitude_0.165_rep_8_b_H_2.0.png	 H	 b	 b	 n.a.	 2.630568e-01
8	 3	 63	 flanked	 rf	 5	 0.113300	 2.000000	 flanked_rf_freq_5_amplitude_0.1133_rep_2_r_N_2.0.png	 N	 r	 b	 n.a.	 4.188687e-01
8	 3	 64	 flanked	 rf	 3	 0.113300	 2.000000	 flanked_rf_freq_3_amplitude_0.1133_rep_1_t_K_2.0.png	 K	 t	 t	 n.a.	 3.251767e-01
8	 3	 65	 flanked	 rf	 5	 0.165000	 2.000000	 flanked_rf_freq_5_amplitude_0.165_rep_5_t_D_2.0.png	 D	 t	 r	 n.a.	 3.303163e-01
8	 3	 66	 flanked	 rf	 2	 0.216700	 2.000000	 flanked_rf_freq_2_amplitude_0.2167_rep_2_b_D_2.0.png	 D	 b	 b	 n.a.	 3.079072e-01
8	 3	 67	 flanked	 rf	 8	 0.216700	 2.000000	 flanked_rf_freq_8_amplitude_0.2167_rep_3_l_K_2.0.png	 K	 l	 l	 n.a.	 2.369369e-01
8	 3	 68	 flanked	 rf	 4	 0.007500	 2.000000	 flanked_rf_freq_4_amplitude_0.0075_rep_5_l_K_2.0.png	 K	 l	 r	 n.a.	 3.182816e-01
8	 3	 69	 flanked	 rf	 5	 0.010000	 2.000000	 flanked_rf_freq_5_amplitude_0.01_rep_8_r_H_2.0.png	 H	 r	 t	 n.a.	 4.059202e-01
8	 3	 70	 flanked	 rf	 4	 0.216700	 2.000000	 flanked_rf_freq_4_amplitude_0.2167_rep_3_l_H_2.0.png	 H	 l	 l	 n.a.	 2.883086e-01
8	 3	 71	 flanked	 rf	 8	 0.216700	 2.000000	 flanked_rf_freq_8_amplitude_0.2167_rep_4_l_N_2.0.png	 N	 l	 l	 n.a.	 1.974576e-01
8	 3	 72	 flanked	 rf	 4	 0.216700	 2.000000	 flanked_rf_freq_4_amplitude_0.2167_rep_2_t_N_2.0.png	 N	 t	 t	 n.a.	 3.953212e-01
8	 3	 73	 flanked	 rf	 8	 0.007500	 2.000000	 flanked_rf_freq_8_amplitude_0.0075_rep_1_b_N_2.0.png	 N	 b	 t	 n.a.	 3.076906e-01
8	 3	 74	 flanked	 rf	 5	 0.216700	 2.000000	 flanked_rf_freq_5_amplitude_0.2167_rep_0_t_K_2.0.png	 K	 t	 t	 n.a.	 2.888999e-01
8	 3	 75	 flanked	 rf	 8	 0.165000	 2.000000	 flanked_rf_freq_8_amplitude_0.165_rep_9_l_D_2.0.png	 D	 l	 l	 n.a.	 1.897083e-01
8	 3	 76	 flanked	 rf	 12	 0.061700	 2.000000	 flanked_rf_freq_12_amplitude_0.0617_rep_4_l_N_2.0.png	 N	 l	 l	 n.a.	 3.127344e-01
8	 3	 77	 flanked	 rf	 2	 0.113300	 2.000000	 flanked_rf_freq_2_amplitude_0.1133_rep_6_b_N_2.0.png	 N	 b	 b	 n.a.	 3.313269e-01
8	 3	 78	 flanked	 rf	 2	 0.216700	 2.000000	 flanked_rf_freq_2_amplitude_0.2167_rep_4_t_N_2.0.png	 N	 t	 b	 n.a.	 4.806096e-01
8	 3	 79	 flanked	 rf	 12	 0.268300	 2.000000	 flanked_rf_freq_12_amplitude_0.2683_rep_5_b_K_2.0.png	 K	 b	 b	 n.a.	 2.880046e-01
8	 3	 80	 flanked	 rf	 4	 0.010000	 2.000000	 flanked_rf_freq_4_amplitude_0.01_rep_4_t_D_2.0.png	 D	 t	 b	 n.a.	 5.950803e-01
8	 3	 81	 flanked	 rf	 12	 0.216700	 2.000000	 flanked_rf_freq_12_amplitude_0.2167_rep_5_t_D_2.0.png	 D	 t	 t	 n.a.	 2.800259e-01
8	 3	 82	 flanked	 rf	 3	 0.165000	 2.000000	 flanked_rf_freq_3_amplitude_0.165_rep_7_r_K_2.0.png	 K	 r	 b	 n.a.	 4.331245e-01
8	 3	 83	 flanked	 rf	 3	 0.216700	 2.000000	 flanked_rf_freq_3_amplitude_0.2167_rep_3_t_N_2.0.png	 N	 t	 b	 n.a.	 3.344956e-01
8	 3	 84	 flanked	 rf	 12	 0.061700	 2.000000	 flanked_rf_freq_12_amplitude_0.0617_rep_2_b_D_2.0.png	 D	 b	 b	 n.a.	 3.125524e-01
8	 3	 85	 flanked	 rf	 5	 0.268300	 2.000000	 flanked_rf_freq_5_amplitude_0.2683_rep_4_t_N_2.0.png	 N	 t	 b	 n.a.	 6.145806e-01
8	 3	 86	 flanked	 rf	 4	 0.007500	 2.000000	 flanked_rf_freq_4_amplitude_0.0075_rep_4_l_N_2.0.png	 N	 l	 t	 n.a.	 2.537686e-01
8	 3	 87	 flanked	 rf	 3	 0.007500	 2.000000	 flanked_rf_freq_3_amplitude_0.0075_rep_4_t_D_2.0.png	 D	 t	 r	 n.a.	 4.802066e-01
8	 3	 88	 flanked	 rf	 2	 0.007500	 2.000000	 flanked_rf_freq_2_amplitude_0.0075_rep_2_r_H_2.0.png	 H	 r	 l	 n.a.	 3.232963e-01
8	 3	 89	 flanked	 rf	 3	 0.007500	 2.000000	 flanked_rf_freq_3_amplitude_0.0075_rep_7_r_D_2.0.png	 D	 r	 t	 n.a.	 4.016073e-01
8	 3	 90	 flanked	 rf	 12	 0.007500	 2.000000	 flanked_rf_freq_12_amplitude_0.0075_rep_1_r_D_2.0.png	 D	 r	 r	 n.a.	 5.785586e-01
8	 3	 91	 flanked	 rf	 8	 0.113300	 2.000000	 flanked_rf_freq_8_amplitude_0.1133_rep_4_r_H_2.0.png	 H	 r	 r	 n.a.	 4.489988e-01
8	 3	 92	 flanked	 rf	 12	 0.007500	 2.000000	 flanked_rf_freq_12_amplitude_0.0075_rep_3_b_H_2.0.png	 H	 b	 t	 n.a.	 3.710460e-01
8	 3	 93	 flanked	 rf	 5	 0.010000	 2.000000	 flanked_rf_freq_5_amplitude_0.01_rep_4_b_N_2.0.png	 N	 b	 l	 n.a.	 3.375951e-01
8	 3	 94	 flanked	 rf	 2	 0.007500	 2.000000	 flanked_rf_freq_2_amplitude_0.0075_rep_0_b_K_2.0.png	 K	 b	 t	 n.a.	 4.495034e-01
8	 3	 95	 flanked	 rf	 4	 0.113300	 2.000000	 flanked_rf_freq_4_amplitude_0.1133_rep_8_b_D_2.0.png	 D	 b	 r	 n.a.	 3.973982e-01
8	 3	 96	 flanked	 rf	 2	 0.113300	 2.000000	 flanked_rf_freq_2_amplitude_0.1133_rep_8_r_N_2.0.png	 N	 r	 t	 n.a.	 2.910896e-01
8	 3	 97	 flanked	 rf	 4	 0.061700	 2.000000	 flanked_rf_freq_4_amplitude_0.0617_rep_6_b_N_2.0.png	 N	 b	 l	 n.a.	 4.018133e-01
8	 3	 98	 flanked	 rf	 5	 0.268300	 2.000000	 flanked_rf_freq_5_amplitude_0.2683_rep_6_b_N_2.0.png	 N	 b	 b	 n.a.	 3.694894e-01
8	 3	 99	 flanked	 rf	 3	 0.216700	 2.000000	 flanked_rf_freq_3_amplitude_0.2167_rep_6_b_D_2.0.png	 D	 b	 r	 n.a.	 4.000273e-01
8	 3	 100	 flanked	 rf	 3	 0.216700	 2.000000	 flanked_rf_freq_3_amplitude_0.2167_rep_7_l_H_2.0.png	 H	 l	 l	 n.a.	 2.785062e-01
8	 3	 101	 flanked	 rf	 8	 0.113300	 2.000000	 flanked_rf_freq_8_amplitude_0.1133_rep_1_t_N_2.0.png	 N	 t	 b	 n.a.	 3.253922e-01
8	 3	 102	 flanked	 rf	 5	 0.165000	 2.000000	 flanked_rf_freq_5_amplitude_0.165_rep_7_b_N_2.0.png	 N	 b	 b	 n.a.	 2.718718e-01
8	 3	 103	 flanked	 rf	 8	 0.061700	 2.000000	 flanked_rf_freq_8_amplitude_0.0617_rep_7_r_K_2.0.png	 K	 r	 r	 n.a.	 3.162040e-01
8	 3	 104	 flanked	 rf	 3	 0.216700	 2.000000	 flanked_rf_freq_3_amplitude_0.2167_rep_5_b_N_2.0.png	 N	 b	 l	 n.a.	 3.062604e-01
8	 3	 105	 flanked	 rf	 3	 0.268300	 2.000000	 flanked_rf_freq_3_amplitude_0.2683_rep_2_l_K_2.0.png	 K	 l	 l	 n.a.	 4.300673e-01
8	 3	 106	 flanked	 rf	 12	 0.007500	 2.000000	 flanked_rf_freq_12_amplitude_0.0075_rep_5_l_D_2.0.png	 D	 l	 b	 n.a.	 4.168301e-01
8	 3	 107	 flanked	 rf	 4	 0.007500	 2.000000	 flanked_rf_freq_4_amplitude_0.0075_rep_0_b_D_2.0.png	 D	 b	 b	 n.a.	 4.435389e-01
8	 3	 108	 flanked	 rf	 4	 0.010000	 2.000000	 flanked_rf_freq_4_amplitude_0.01_rep_5_l_H_2.0.png	 H	 l	 t	 n.a.	 2.258220e-01
8	 3	 109	 flanked	 rf	 8	 0.061700	 2.000000	 flanked_rf_freq_8_amplitude_0.0617_rep_9_b_K_2.0.png	 K	 b	 b	 n.a.	 3.320363e-01
8	 3	 110	 flanked	 rf	 5	 0.113300	 2.000000	 flanked_rf_freq_5_amplitude_0.1133_rep_4_l_K_2.0.png	 K	 l	 r	 n.a.	 6.104023e-01
8	 3	 111	 flanked	 rf	 5	 0.061700	 2.000000	 flanked_rf_freq_5_amplitude_0.0617_rep_4_l_D_2.0.png	 D	 l	 b	 n.a.	 3.495193e-01
8	 3	 112	 flanked	 rf	 2	 0.007500	 2.000000	 flanked_rf_freq_2_amplitude_0.0075_rep_8_l_H_2.0.png	 H	 l	 l	 n.a.	 1.916977e-01
8	 3	 113	 flanked	 rf	 12	 0.113300	 2.000000	 flanked_rf_freq_12_amplitude_0.1133_rep_4_t_N_2.0.png	 N	 t	 t	 n.a.	 2.812216e-01
8	 3	 114	 flanked	 rf	 2	 0.268300	 2.000000	 flanked_rf_freq_2_amplitude_0.2683_rep_8_l_H_2.0.png	 H	 l	 b	 n.a.	 3.586264e-01
8	 3	 115	 flanked	 rf	 8	 0.010000	 2.000000	 flanked_rf_freq_8_amplitude_0.01_rep_2_b_D_2.0.png	 D	 b	 t	 n.a.	 2.558389e-01
8	 3	 116	 flanked	 rf	 2	 0.113300	 2.000000	 flanked_rf_freq_2_amplitude_0.1133_rep_5_b_K_2.0.png	 K	 b	 b	 n.a.	 3.601316e-01
8	 3	 117	 flanked	 rf	 4	 0.216700	 2.000000	 flanked_rf_freq_4_amplitude_0.2167_rep_0_r_K_2.0.png	 K	 r	 r	 n.a.	 2.840834e-01
8	 3	 118	 flanked	 rf	 8	 0.113300	 2.000000	 flanked_rf_freq_8_amplitude_0.1133_rep_9_r_H_2.0.png	 H	 r	 r	 n.a.	 5.390156e-01
8	 3	 119	 flanked	 rf	 4	 0.216700	 2.000000	 flanked_rf_freq_4_amplitude_0.2167_rep_4_r_D_2.0.png	 D	 r	 r	 n.a.	 3.701655e-01
8	 3	 120	 flanked	 rf	 4	 0.010000	 2.000000	 flanked_rf_freq_4_amplitude_0.01_rep_8_b_H_2.0.png	 H	 b	 l	 n.a.	 2.500814e-01
8	 3	 121	 flanked	 rf	 12	 0.007500	 2.000000	 flanked_rf_freq_12_amplitude_0.0075_rep_6_b_H_2.0.png	 H	 b	 b	 n.a.	 3.176330e-01
8	 3	 122	 flanked	 rf	 12	 0.010000	 2.000000	 flanked_rf_freq_12_amplitude_0.01_rep_9_l_K_2.0.png	 K	 l	 r	 n.a.	 5.926061e-01
8	 3	 123	 flanked	 rf	 8	 0.010000	 2.000000	 flanked_rf_freq_8_amplitude_0.01_rep_9_b_K_2.0.png	 K	 b	 b	 n.a.	 3.338725e-01
8	 3	 124	 flanked	 rf	 12	 0.165000	 2.000000	 flanked_rf_freq_12_amplitude_0.165_rep_8_l_H_2.0.png	 H	 l	 l	 n.a.	 1.983825e-01
8	 3	 125	 flanked	 rf	 8	 0.165000	 2.000000	 flanked_rf_freq_8_amplitude_0.165_rep_7_t_D_2.0.png	 D	 t	 t	 n.a.	 2.063454e-01
8	 3	 126	 flanked	 rf	 3	 0.061700	 2.000000	 flanked_rf_freq_3_amplitude_0.0617_rep_0_b_D_2.0.png	 D	 b	 t	 n.a.	 4.532120e-01
8	 3	 127	 flanked	 rf	 12	 0.061700	 2.000000	 flanked_rf_freq_12_amplitude_0.0617_rep_0_b_D_2.0.png	 D	 b	 b	 n.a.	 2.854746e-01
8	 3	 128	 flanked	 rf	 2	 0.007500	 2.000000	 flanked_rf_freq_2_amplitude_0.0075_rep_9_l_H_2.0.png	 H	 l	 b	 n.a.	 3.669655e-01
8	 3	 129	 flanked	 rf	 4	 0.268300	 2.000000	 flanked_rf_freq_4_amplitude_0.2683_rep_1_l_D_2.0.png	 D	 l	 r	 n.a.	 2.881555e-01
8	 3	 130	 flanked	 rf	 3	 0.007500	 2.000000	 flanked_rf_freq_3_amplitude_0.0075_rep_3_b_D_2.0.png	 D	 b	 b	 n.a.	 4.080656e-01
8	 3	 131	 flanked	 rf	 2	 0.113300	 2.000000	 flanked_rf_freq_2_amplitude_0.1133_rep_1_t_K_2.0.png	 K	 t	 t	 n.a.	 2.535121e-01
8	 3	 132	 flanked	 rf	 3	 0.113300	 2.000000	 flanked_rf_freq_3_amplitude_0.1133_rep_4_t_H_2.0.png	 H	 t	 l	 n.a.	 4.442700e-01
8	 3	 133	 flanked	 rf	 3	 0.165000	 2.000000	 flanked_rf_freq_3_amplitude_0.165_rep_9_l_K_2.0.png	 K	 l	 b	 n.a.	 3.281818e-01
8	 3	 134	 flanked	 rf	 4	 0.113300	 2.000000	 flanked_rf_freq_4_amplitude_0.1133_rep_0_b_D_2.0.png	 D	 b	 t	 n.a.	 2.648462e-01
8	 3	 135	 flanked	 rf	 4	 0.268300	 2.000000	 flanked_rf_freq_4_amplitude_0.2683_rep_8_b_K_2.0.png	 K	 b	 b	 n.a.	 3.960473e-01
8	 3	 136	 flanked	 rf	 5	 0.010000	 2.000000	 flanked_rf_freq_5_amplitude_0.01_rep_2_b_N_2.0.png	 N	 b	 t	 n.a.	 2.679915e-01
8	 3	 137	 flanked	 rf	 2	 0.010000	 2.000000	 flanked_rf_freq_2_amplitude_0.01_rep_3_b_K_2.0.png	 K	 b	 l	 n.a.	 2.384418e-01
8	 3	 138	 flanked	 rf	 12	 0.268300	 2.000000	 flanked_rf_freq_12_amplitude_0.2683_rep_2_b_K_2.0.png	 K	 b	 b	 n.a.	 2.680736e-01
8	 3	 139	 flanked	 rf	 3	 0.268300	 2.000000	 flanked_rf_freq_3_amplitude_0.2683_rep_9_r_K_2.0.png	 K	 r	 r	 n.a.	 2.617237e-01
8	 3	 140	 flanked	 rf	 2	 0.061700	 2.000000	 flanked_rf_freq_2_amplitude_0.0617_rep_8_b_K_2.0.png	 K	 b	 b	 n.a.	 6.757842e-01
8	 3	 141	 flanked	 rf	 12	 0.268300	 2.000000	 flanked_rf_freq_12_amplitude_0.2683_rep_6_l_K_2.0.png	 K	 l	 l	 n.a.	 2.332621e-01
8	 3	 142	 flanked	 rf	 8	 0.165000	 2.000000	 flanked_rf_freq_8_amplitude_0.165_rep_4_l_H_2.0.png	 H	 l	 t	 n.a.	 3.213325e-01
8	 3	 143	 flanked	 rf	 8	 0.165000	 2.000000	 flanked_rf_freq_8_amplitude_0.165_rep_6_l_H_2.0.png	 H	 l	 l	 n.a.	 2.253798e-01
8	 3	 144	 flanked	 rf	 4	 0.061700	 2.000000	 flanked_rf_freq_4_amplitude_0.0617_rep_0_r_H_2.0.png	 H	 r	 b	 n.a.	 3.335670e-01
8	 3	 145	 flanked	 rf	 5	 0.216700	 2.000000	 flanked_rf_freq_5_amplitude_0.2167_rep_9_b_D_2.0.png	 D	 b	 l	 n.a.	 1.629245e-01
8	 3	 146	 flanked	 rf	 3	 0.165000	 2.000000	 flanked_rf_freq_3_amplitude_0.165_rep_4_r_K_2.0.png	 K	 r	 r	 n.a.	 3.286471e-01
8	 3	 147	 flanked	 rf	 2	 0.216700	 2.000000	 flanked_rf_freq_2_amplitude_0.2167_rep_3_r_N_2.0.png	 N	 r	 t	 n.a.	 4.388408e-01
8	 3	 148	 flanked	 rf	 4	 0.113300	 2.000000	 flanked_rf_freq_4_amplitude_0.1133_rep_2_t_D_2.0.png	 D	 t	 b	 n.a.	 2.665622e-01
8	 3	 149	 flanked	 rf	 8	 0.010000	 2.000000	 flanked_rf_freq_8_amplitude_0.01_rep_1_t_N_2.0.png	 N	 t	 l	 n.a.	 5.291517e-01
8	 3	 150	 flanked	 rf	 2	 0.061700	 2.000000	 flanked_rf_freq_2_amplitude_0.0617_rep_6_t_H_2.0.png	 H	 t	 t	 n.a.	 3.452208e-01
8	 3	 151	 flanked	 rf	 5	 0.061700	 2.000000	 flanked_rf_freq_5_amplitude_0.0617_rep_1_t_K_2.0.png	 K	 t	 t	 n.a.	 3.554657e-01
8	 3	 152	 flanked	 rf	 5	 0.268300	 2.000000	 flanked_rf_freq_5_amplitude_0.2683_rep_0_b_N_2.0.png	 N	 b	 b	 n.a.	 3.078462e-01
8	 3	 153	 flanked	 rf	 8	 0.007500	 2.000000	 flanked_rf_freq_8_amplitude_0.0075_rep_3_r_K_2.0.png	 K	 r	 t	 n.a.	 3.558367e-01
8	 3	 154	 flanked	 rf	 4	 0.165000	 2.000000	 flanked_rf_freq_4_amplitude_0.165_rep_4_l_H_2.0.png	 H	 l	 l	 n.a.	 3.040720e-01
8	 3	 155	 flanked	 rf	 2	 0.165000	 2.000000	 flanked_rf_freq_2_amplitude_0.165_rep_8_l_H_2.0.png	 H	 l	 b	 n.a.	 3.745560e-01
8	 3	 156	 flanked	 rf	 12	 0.010000	 2.000000	 flanked_rf_freq_12_amplitude_0.01_rep_3_l_K_2.0.png	 K	 l	 b	 n.a.	 2.812928e-01
8	 3	 157	 flanked	 rf	 12	 0.165000	 2.000000	 flanked_rf_freq_12_amplitude_0.165_rep_9_b_H_2.0.png	 H	 b	 b	 n.a.	 2.998889e-01
8	 3	 158	 flanked	 rf	 12	 0.010000	 2.000000	 flanked_rf_freq_12_amplitude_0.01_rep_2_t_K_2.0.png	 K	 t	 t	 n.a.	 3.475376e-01
8	 3	 159	 flanked	 rf	 3	 0.007500	 2.000000	 flanked_rf_freq_3_amplitude_0.0075_rep_2_r_D_2.0.png	 D	 r	 b	 n.a.	 4.089387e-01
8	 3	 160	 flanked	 rf	 3	 0.010000	 2.000000	 flanked_rf_freq_3_amplitude_0.01_rep_5_t_N_2.0.png	 N	 t	 r	 n.a.	 4.243216e-01
8	 3	 161	 flanked	 rf	 2	 0.216700	 2.000000	 flanked_rf_freq_2_amplitude_0.2167_rep_7_l_K_2.0.png	 K	 l	 t	 n.a.	 3.371470e-01
8	 3	 162	 flanked	 rf	 4	 0.268300	 2.000000	 flanked_rf_freq_4_amplitude_0.2683_rep_6_l_N_2.0.png	 N	 l	 l	 n.a.	 2.115606e-01
8	 3	 163	 flanked	 rf	 8	 0.216700	 2.000000	 flanked_rf_freq_8_amplitude_0.2167_rep_7_b_K_2.0.png	 K	 b	 b	 n.a.	 3.180465e-01
8	 3	 164	 flanked	 rf	 3	 0.113300	 2.000000	 flanked_rf_freq_3_amplitude_0.1133_rep_9_t_N_2.0.png	 N	 t	 r	 n.a.	 5.210394e-01
8	 3	 165	 flanked	 rf	 5	 0.007500	 2.000000	 flanked_rf_freq_5_amplitude_0.0075_rep_0_t_D_2.0.png	 D	 t	 b	 n.a.	 3.508306e-01
8	 3	 166	 flanked	 rf	 2	 0.007500	 2.000000	 flanked_rf_freq_2_amplitude_0.0075_rep_5_b_D_2.0.png	 D	 b	 l	 n.a.	 2.131141e-01
8	 3	 167	 flanked	 rf	 4	 0.113300	 2.000000	 flanked_rf_freq_4_amplitude_0.1133_rep_4_t_H_2.0.png	 H	 t	 b	 n.a.	 3.922421e-01
8	 3	 168	 flanked	 rf	 12	 0.216700	 2.000000	 flanked_rf_freq_12_amplitude_0.2167_rep_8_t_N_2.0.png	 N	 t	 t	 n.a.	 2.503898e-01
8	 3	 169	 flanked	 rf	 2	 0.061700	 2.000000	 flanked_rf_freq_2_amplitude_0.0617_rep_5_t_K_2.0.png	 K	 t	 t	 n.a.	 3.009475e-01
8	 3	 170	 flanked	 rf	 8	 0.268300	 2.000000	 flanked_rf_freq_8_amplitude_0.2683_rep_0_b_D_2.0.png	 D	 b	 b	 n.a.	 2.693919e-01
8	 3	 171	 flanked	 rf	 12	 0.216700	 2.000000	 flanked_rf_freq_12_amplitude_0.2167_rep_9_b_H_2.0.png	 H	 b	 b	 n.a.	 3.552299e-01
8	 3	 172	 flanked	 rf	 3	 0.216700	 2.000000	 flanked_rf_freq_3_amplitude_0.2167_rep_9_b_D_2.0.png	 D	 b	 l	 n.a.	 3.535288e-01
8	 3	 173	 flanked	 rf	 3	 0.061700	 2.000000	 flanked_rf_freq_3_amplitude_0.0617_rep_3_b_H_2.0.png	 H	 b	 r	 n.a.	 3.245899e-01
8	 3	 174	 flanked	 rf	 12	 0.216700	 2.000000	 flanked_rf_freq_12_amplitude_0.2167_rep_1_l_N_2.0.png	 N	 l	 l	 n.a.	 2.496086e-01
8	 3	 175	 flanked	 rf	 8	 0.061700	 2.000000	 flanked_rf_freq_8_amplitude_0.0617_rep_3_b_H_2.0.png	 H	 b	 b	 n.a.	 2.968526e-01
8	 3	 176	 flanked	 rf	 4	 0.007500	 2.000000	 flanked_rf_freq_4_amplitude_0.0075_rep_8_b_K_2.0.png	 K	 b	 b	 n.a.	 4.998913e-01
8	 3	 177	 flanked	 rf	 5	 0.113300	 2.000000	 flanked_rf_freq_5_amplitude_0.1133_rep_8_l_D_2.0.png	 D	 l	 l	 n.a.	 3.821420e-01
8	 3	 178	 flanked	 rf	 4	 0.061700	 2.000000	 flanked_rf_freq_4_amplitude_0.0617_rep_4_b_D_2.0.png	 D	 b	 t	 n.a.	 3.887270e-01
8	 3	 179	 flanked	 rf	 3	 0.113300	 2.000000	 flanked_rf_freq_3_amplitude_0.1133_rep_6_t_N_2.0.png	 N	 t	 b	 n.a.	 5.622565e-01
8	 3	 180	 flanked	 rf	 5	 0.165000	 2.000000	 flanked_rf_freq_5_amplitude_0.165_rep_1_r_N_2.0.png	 N	 r	 l	 n.a.	 5.354278e-01
8	 3	 181	 flanked	 rf	 12	 0.113300	 2.000000	 flanked_rf_freq_12_amplitude_0.1133_rep_1_b_N_2.0.png	 N	 b	 b	 n.a.	 2.957098e-01
8	 3	 182	 flanked	 rf	 8	 0.007500	 2.000000	 flanked_rf_freq_8_amplitude_0.0075_rep_6_r_N_2.0.png	 N	 r	 t	 n.a.	 2.795559e-01
8	 3	 183	 flanked	 rf	 12	 0.007500	 2.000000	 flanked_rf_freq_12_amplitude_0.0075_rep_4_r_K_2.0.png	 K	 r	 b	 n.a.	 2.728701e-01
8	 3	 184	 flanked	 rf	 5	 0.113300	 2.000000	 flanked_rf_freq_5_amplitude_0.1133_rep_0_t_K_2.0.png	 K	 t	 t	 n.a.	 2.079855e-01
8	 3	 185	 flanked	 rf	 5	 0.010000	 2.000000	 flanked_rf_freq_5_amplitude_0.01_rep_9_r_D_2.0.png	 D	 r	 b	 n.a.	 2.705053e-01
8	 3	 186	 flanked	 rf	 3	 0.165000	 2.000000	 flanked_rf_freq_3_amplitude_0.165_rep_2_t_D_2.0.png	 D	 t	 b	 n.a.	 2.730137e-01
8	 3	 187	 flanked	 rf	 8	 0.165000	 2.000000	 flanked_rf_freq_8_amplitude_0.165_rep_0_b_H_2.0.png	 H	 b	 b	 n.a.	 2.453035e-01
8	 3	 188	 flanked	 rf	 4	 0.165000	 2.000000	 flanked_rf_freq_4_amplitude_0.165_rep_9_b_D_2.0.png	 D	 b	 t	 n.a.	 3.635366e-01
8	 3	 189	 flanked	 rf	 3	 0.010000	 2.000000	 flanked_rf_freq_3_amplitude_0.01_rep_4_r_D_2.0.png	 D	 r	 t	 n.a.	 3.285495e-01
8	 3	 190	 flanked	 rf	 3	 0.007500	 2.000000	 flanked_rf_freq_3_amplitude_0.0075_rep_8_t_H_2.0.png	 H	 t	 b	 n.a.	 2.718631e-01
8	 3	 191	 flanked	 rf	 4	 0.010000	 2.000000	 flanked_rf_freq_4_amplitude_0.01_rep_6_r_H_2.0.png	 H	 r	 l	 n.a.	 2.242925e-01
8	 3	 192	 flanked	 rf	 12	 0.216700	 2.000000	 flanked_rf_freq_12_amplitude_0.2167_rep_4_l_N_2.0.png	 N	 l	 l	 n.a.	 2.665913e-01
8	 3	 193	 flanked	 rf	 2	 0.010000	 2.000000	 flanked_rf_freq_2_amplitude_0.01_rep_5_r_H_2.0.png	 H	 r	 t	 n.a.	 4.102105e-01
8	 3	 194	 flanked	 rf	 4	 0.007500	 2.000000	 flanked_rf_freq_4_amplitude_0.0075_rep_2_l_N_2.0.png	 N	 l	 r	 n.a.	 3.156983e-01
8	 3	 195	 flanked	 rf	 8	 0.007500	 2.000000	 flanked_rf_freq_8_amplitude_0.0075_rep_2_t_H_2.0.png	 H	 t	 t	 n.a.	 6.119015e-01
8	 3	 196	 flanked	 rf	 3	 0.113300	 2.000000	 flanked_rf_freq_3_amplitude_0.1133_rep_5_t_K_2.0.png	 K	 t	 b	 n.a.	 4.216407e-01
8	 3	 197	 flanked	 rf	 8	 0.165000	 2.000000	 flanked_rf_freq_8_amplitude_0.165_rep_5_l_D_2.0.png	 D	 l	 l	 n.a.	 2.353387e-01
8	 3	 198	 flanked	 rf	 3	 0.061700	 2.000000	 flanked_rf_freq_3_amplitude_0.0617_rep_7_l_K_2.0.png	 K	 l	 b	 n.a.	 4.846582e-01
8	 3	 199	 flanked	 rf	 12	 0.268300	 2.000000	 flanked_rf_freq_12_amplitude_0.2683_rep_0_t_N_2.0.png	 N	 t	 t	 n.a.	 2.196679e-01
8	 3	 200	 flanked	 rf	 12	 0.113300	 2.000000	 flanked_rf_freq_12_amplitude_0.1133_rep_2_l_H_2.0.png	 H	 l	 l	 n.a.	 2.620170e-01
8	 3	 201	 flanked	 rf	 8	 0.268300	 2.000000	 flanked_rf_freq_8_amplitude_0.2683_rep_2_l_N_2.0.png	 N	 l	 l	 n.a.	 2.400554e-01
8	 3	 202	 flanked	 rf	 8	 0.113300	 2.000000	 flanked_rf_freq_8_amplitude_0.1133_rep_5_b_H_2.0.png	 H	 b	 b	 n.a.	 3.557114e-01
8	 3	 203	 flanked	 rf	 4	 0.268300	 2.000000	 flanked_rf_freq_4_amplitude_0.2683_rep_0_t_K_2.0.png	 K	 t	 t	 n.a.	 3.079903e-01
8	 3	 204	 flanked	 rf	 5	 0.268300	 2.000000	 flanked_rf_freq_5_amplitude_0.2683_rep_2_t_H_2.0.png	 H	 t	 t	 n.a.	 3.449224e-01
8	 3	 205	 flanked	 rf	 8	 0.268300	 2.000000	 flanked_rf_freq_8_amplitude_0.2683_rep_6_l_N_2.0.png	 N	 l	 l	 n.a.	 2.356423e-01
8	 3	 206	 flanked	 rf	 5	 0.113300	 2.000000	 flanked_rf_freq_5_amplitude_0.1133_rep_7_r_D_2.0.png	 D	 r	 t	 n.a.	 3.638747e-01
8	 3	 207	 flanked	 rf	 5	 0.010000	 2.000000	 flanked_rf_freq_5_amplitude_0.01_rep_7_r_H_2.0.png	 H	 r	 b	 n.a.	 4.379927e-01
8	 3	 208	 flanked	 rf	 3	 0.268300	 2.000000	 flanked_rf_freq_3_amplitude_0.2683_rep_4_t_N_2.0.png	 N	 t	 l	 n.a.	 3.113811e-01
8	 3	 209	 flanked	 rf	 8	 0.010000	 2.000000	 flanked_rf_freq_8_amplitude_0.01_rep_3_t_K_2.0.png	 K	 t	 t	 n.a.	 2.753435e-01
8	 3	 210	 flanked	 rf	 2	 0.113300	 2.000000	 flanked_rf_freq_2_amplitude_0.1133_rep_0_l_K_2.0.png	 K	 l	 r	 n.a.	 5.261307e-01
8	 3	 211	 flanked	 rf	 12	 0.010000	 2.000000	 flanked_rf_freq_12_amplitude_0.01_rep_0_t_D_2.0.png	 D	 t	 r	 n.a.	 3.793073e-01
8	 3	 212	 flanked	 rf	 12	 0.165000	 2.000000	 flanked_rf_freq_12_amplitude_0.165_rep_2_b_N_2.0.png	 N	 b	 b	 n.a.	 2.788883e-01
8	 3	 213	 flanked	 rf	 3	 0.268300	 2.000000	 flanked_rf_freq_3_amplitude_0.2683_rep_6_r_D_2.0.png	 D	 r	 r	 n.a.	 2.890248e-01
8	 3	 214	 flanked	 rf	 5	 0.007500	 2.000000	 flanked_rf_freq_5_amplitude_0.0075_rep_4_b_D_2.0.png	 D	 b	 t	 n.a.	 3.385219e-01
8	 3	 215	 flanked	 rf	 8	 0.165000	 2.000000	 flanked_rf_freq_8_amplitude_0.165_rep_3_l_K_2.0.png	 K	 l	 l	 n.a.	 1.964757e-01
8	 3	 216	 flanked	 rf	 4	 0.216700	 2.000000	 flanked_rf_freq_4_amplitude_0.2167_rep_1_l_D_2.0.png	 D	 l	 r	 n.a.	 2.653530e-01
8	 3	 217	 flanked	 rf	 12	 0.010000	 2.000000	 flanked_rf_freq_12_amplitude_0.01_rep_5_t_H_2.0.png	 H	 t	 l	 n.a.	 3.914990e-01
8	 3	 218	 flanked	 rf	 12	 0.268300	 2.000000	 flanked_rf_freq_12_amplitude_0.2683_rep_3_l_K_2.0.png	 K	 l	 l	 n.a.	 2.645749e-01
8	 3	 219	 flanked	 rf	 8	 0.113300	 2.000000	 flanked_rf_freq_8_amplitude_0.1133_rep_2_r_N_2.0.png	 N	 r	 b	 n.a.	 3.176018e-01
8	 3	 220	 flanked	 rf	 5	 0.216700	 2.000000	 flanked_rf_freq_5_amplitude_0.2167_rep_7_t_D_2.0.png	 D	 t	 t	 n.a.	 5.453417e-01
8	 3	 221	 flanked	 rf	 3	 0.113300	 2.000000	 flanked_rf_freq_3_amplitude_0.1133_rep_2_l_K_2.0.png	 K	 l	 l	 n.a.	 2.263681e-01
8	 3	 222	 flanked	 rf	 2	 0.216700	 2.000000	 flanked_rf_freq_2_amplitude_0.2167_rep_1_r_K_2.0.png	 K	 r	 r	 n.a.	 2.270222e-01
8	 3	 223	 flanked	 rf	 12	 0.165000	 2.000000	 flanked_rf_freq_12_amplitude_0.165_rep_0_l_H_2.0.png	 H	 l	 l	 n.a.	 3.147859e-01
8	 3	 224	 flanked	 rf	 5	 0.165000	 2.000000	 flanked_rf_freq_5_amplitude_0.165_rep_2_t_D_2.0.png	 D	 t	 r	 n.a.	 5.080718e-01
8	 3	 225	 flanked	 rf	 2	 0.113300	 2.000000	 flanked_rf_freq_2_amplitude_0.1133_rep_9_l_H_2.0.png	 H	 l	 l	 n.a.	 3.254837e-01
8	 3	 226	 flanked	 rf	 8	 0.216700	 2.000000	 flanked_rf_freq_8_amplitude_0.2167_rep_0_b_N_2.0.png	 N	 b	 b	 n.a.	 2.886937e-01
8	 3	 227	 flanked	 rf	 5	 0.216700	 2.000000	 flanked_rf_freq_5_amplitude_0.2167_rep_8_b_N_2.0.png	 N	 b	 t	 n.a.	 2.946422e-01
8	 3	 228	 flanked	 rf	 4	 0.165000	 2.000000	 flanked_rf_freq_4_amplitude_0.165_rep_7_r_D_2.0.png	 D	 r	 r	 n.a.	 3.532294e-01
8	 3	 229	 flanked	 rf	 4	 0.007500	 2.000000	 flanked_rf_freq_4_amplitude_0.0075_rep_3_l_N_2.0.png	 N	 l	 l	 n.a.	 4.330113e-01
8	 3	 230	 flanked	 rf	 5	 0.216700	 2.000000	 flanked_rf_freq_5_amplitude_0.2167_rep_1_t_H_2.0.png	 H	 t	 t	 n.a.	 2.865642e-01
8	 3	 231	 flanked	 rf	 12	 0.268300	 2.000000	 flanked_rf_freq_12_amplitude_0.2683_rep_1_b_H_2.0.png	 H	 b	 b	 n.a.	 2.756214e-01
8	 3	 232	 flanked	 rf	 5	 0.007500	 2.000000	 flanked_rf_freq_5_amplitude_0.0075_rep_9_r_K_2.0.png	 K	 r	 t	 n.a.	 3.442403e-01
8	 3	 233	 flanked	 rf	 12	 0.007500	 2.000000	 flanked_rf_freq_12_amplitude_0.0075_rep_9_t_K_2.0.png	 K	 t	 t	 n.a.	 4.013086e-01
8	 3	 234	 flanked	 rf	 12	 0.010000	 2.000000	 flanked_rf_freq_12_amplitude_0.01_rep_1_l_D_2.0.png	 D	 l	 r	 n.a.	 3.554362e-01
8	 3	 235	 flanked	 rf	 8	 0.268300	 2.000000	 flanked_rf_freq_8_amplitude_0.2683_rep_8_b_H_2.0.png	 H	 b	 b	 n.a.	 2.230910e-01
8	 3	 236	 flanked	 rf	 2	 0.010000	 2.000000	 flanked_rf_freq_2_amplitude_0.01_rep_1_b_N_2.0.png	 N	 b	 t	 n.a.	 2.823473e-01
8	 3	 237	 flanked	 rf	 8	 0.268300	 2.000000	 flanked_rf_freq_8_amplitude_0.2683_rep_7_l_N_2.0.png	 N	 l	 l	 n.a.	 1.795677e-01
8	 3	 238	 flanked	 rf	 3	 0.165000	 2.000000	 flanked_rf_freq_3_amplitude_0.165_rep_8_b_H_2.0.png	 H	 b	 t	 n.a.	 3.104447e-01
8	 3	 239	 flanked	 rf	 4	 0.165000	 2.000000	 flanked_rf_freq_4_amplitude_0.165_rep_1_l_N_2.0.png	 N	 l	 l	 n.a.	 2.877145e-01
8	 3	 240	 flanked	 rf	 2	 0.010000	 2.000000	 flanked_rf_freq_2_amplitude_0.01_rep_6_b_D_2.0.png	 D	 b	 b	 n.a.	 6.981463e-01
8	 3	 241	 flanked	 rf	 5	 0.010000	 2.000000	 flanked_rf_freq_5_amplitude_0.01_rep_0_l_H_2.0.png	 H	 l	 t	 n.a.	 3.753877e-01
8	 3	 242	 flanked	 rf	 5	 0.268300	 2.000000	 flanked_rf_freq_5_amplitude_0.2683_rep_7_r_K_2.0.png	 K	 r	 r	 n.a.	 2.608887e-01
8	 3	 243	 flanked	 rf	 2	 0.113300	 2.000000	 flanked_rf_freq_2_amplitude_0.1133_rep_7_r_N_2.0.png	 N	 r	 t	 n.a.	 4.181318e-01
8	 3	 244	 flanked	 rf	 8	 0.010000	 2.000000	 flanked_rf_freq_8_amplitude_0.01_rep_6_l_N_2.0.png	 N	 l	 t	 n.a.	 3.940209e-01
8	 3	 245	 flanked	 rf	 12	 0.113300	 2.000000	 flanked_rf_freq_12_amplitude_0.1133_rep_0_b_N_2.0.png	 N	 b	 b	 n.a.	 2.751634e-01
8	 3	 246	 flanked	 rf	 8	 0.007500	 2.000000	 flanked_rf_freq_8_amplitude_0.0075_rep_8_t_D_2.0.png	 D	 t	 b	 n.a.	 3.221061e-01
8	 3	 247	 flanked	 rf	 2	 0.113300	 2.000000	 flanked_rf_freq_2_amplitude_0.1133_rep_3_b_K_2.0.png	 K	 b	 b	 n.a.	 3.217749e-01
8	 3	 248	 flanked	 rf	 4	 0.113300	 2.000000	 flanked_rf_freq_4_amplitude_0.1133_rep_1_r_H_2.0.png	 H	 r	 t	 n.a.	 2.555116e-01
8	 3	 249	 flanked	 rf	 4	 0.061700	 2.000000	 flanked_rf_freq_4_amplitude_0.0617_rep_1_r_K_2.0.png	 K	 r	 r	 n.a.	 2.310100e-01
8	 3	 250	 flanked	 rf	 4	 0.216700	 2.000000	 flanked_rf_freq_4_amplitude_0.2167_rep_9_l_H_2.0.png	 H	 l	 l	 n.a.	 3.230910e-01
8	 3	 251	 flanked	 rf	 2	 0.007500	 2.000000	 flanked_rf_freq_2_amplitude_0.0075_rep_3_t_H_2.0.png	 H	 t	 t	 n.a.	 3.389886e-01
8	 3	 252	 flanked	 rf	 3	 0.113300	 2.000000	 flanked_rf_freq_3_amplitude_0.1133_rep_3_t_N_2.0.png	 N	 t	 t	 n.a.	 5.302515e-01
8	 3	 253	 flanked	 rf	 4	 0.268300	 2.000000	 flanked_rf_freq_4_amplitude_0.2683_rep_7_b_D_2.0.png	 D	 b	 b	 n.a.	 2.555734e-01
8	 3	 254	 flanked	 rf	 12	 0.268300	 2.000000	 flanked_rf_freq_12_amplitude_0.2683_rep_8_l_D_2.0.png	 D	 l	 l	 n.a.	 2.046266e-01
8	 3	 255	 flanked	 rf	 2	 0.216700	 2.000000	 flanked_rf_freq_2_amplitude_0.2167_rep_5_l_H_2.0.png	 H	 l	 l	 n.a.	 4.809865e-01
8	 3	 256	 flanked	 rf	 8	 0.113300	 2.000000	 flanked_rf_freq_8_amplitude_0.1133_rep_7_r_D_2.0.png	 D	 r	 r	 n.a.	 2.528155e-01
8	 3	 257	 flanked	 rf	 5	 0.061700	 2.000000	 flanked_rf_freq_5_amplitude_0.0617_rep_0_b_H_2.0.png	 H	 b	 t	 n.a.	 2.704535e-01
8	 3	 258	 flanked	 rf	 4	 0.113300	 2.000000	 flanked_rf_freq_4_amplitude_0.1133_rep_9_r_H_2.0.png	 H	 r	 t	 n.a.	 2.719585e-01
8	 3	 259	 flanked	 rf	 5	 0.010000	 2.000000	 flanked_rf_freq_5_amplitude_0.01_rep_3_t_D_2.0.png	 D	 t	 b	 n.a.	 4.265229e-01
8	 3	 260	 flanked	 rf	 8	 0.061700	 2.000000	 flanked_rf_freq_8_amplitude_0.0617_rep_2_r_K_2.0.png	 K	 r	 r	 n.a.	 4.389252e-01
8	 3	 261	 flanked	 rf	 2	 0.165000	 2.000000	 flanked_rf_freq_2_amplitude_0.165_rep_6_l_H_2.0.png	 H	 l	 l	 n.a.	 3.807347e-01
8	 3	 262	 flanked	 rf	 2	 0.061700	 2.000000	 flanked_rf_freq_2_amplitude_0.0617_rep_9_r_K_2.0.png	 K	 r	 b	 n.a.	 4.082683e-01
8	 3	 263	 flanked	 rf	 3	 0.061700	 2.000000	 flanked_rf_freq_3_amplitude_0.0617_rep_6_r_H_2.0.png	 H	 r	 t	 n.a.	 3.225903e-01
8	 3	 264	 flanked	 rf	 4	 0.216700	 2.000000	 flanked_rf_freq_4_amplitude_0.2167_rep_6_b_N_2.0.png	 N	 b	 b	 n.a.	 2.919089e-01
8	 3	 265	 flanked	 rf	 4	 0.061700	 2.000000	 flanked_rf_freq_4_amplitude_0.0617_rep_2_t_N_2.0.png	 N	 t	 b	 n.a.	 5.016568e-01
8	 3	 266	 flanked	 rf	 12	 0.165000	 2.000000	 flanked_rf_freq_12_amplitude_0.165_rep_7_l_H_2.0.png	 H	 l	 l	 n.a.	 2.443911e-01
8	 3	 267	 flanked	 rf	 8	 0.113300	 2.000000	 flanked_rf_freq_8_amplitude_0.1133_rep_6_t_H_2.0.png	 H	 t	 t	 n.a.	 2.470823e-01
8	 3	 268	 flanked	 rf	 5	 0.165000	 2.000000	 flanked_rf_freq_5_amplitude_0.165_rep_3_b_D_2.0.png	 D	 b	 t	 n.a.	 5.749700e-01
8	 3	 269	 flanked	 rf	 4	 0.061700	 2.000000	 flanked_rf_freq_4_amplitude_0.0617_rep_8_l_D_2.0.png	 D	 l	 b	 n.a.	 4.127758e-01
8	 3	 270	 flanked	 rf	 8	 0.010000	 2.000000	 flanked_rf_freq_8_amplitude_0.01_rep_4_r_H_2.0.png	 H	 r	 b	 n.a.	 4.692701e-01
8	 3	 271	 flanked	 rf	 2	 0.007500	 2.000000	 flanked_rf_freq_2_amplitude_0.0075_rep_4_l_H_2.0.png	 H	 l	 t	 n.a.	 2.607833e-01
8	 3	 272	 flanked	 rf	 8	 0.268300	 2.000000	 flanked_rf_freq_8_amplitude_0.2683_rep_9_t_H_2.0.png	 H	 t	 t	 n.a.	 2.880472e-01
8	 3	 273	 flanked	 rf	 2	 0.061700	 2.000000	 flanked_rf_freq_2_amplitude_0.0617_rep_4_r_H_2.0.png	 H	 r	 r	 n.a.	 2.857519e-01
8	 3	 274	 flanked	 rf	 5	 0.113300	 2.000000	 flanked_rf_freq_5_amplitude_0.1133_rep_3_l_H_2.0.png	 H	 l	 l	 n.a.	 3.257088e-01
8	 3	 275	 flanked	 rf	 4	 0.113300	 2.000000	 flanked_rf_freq_4_amplitude_0.1133_rep_6_l_D_2.0.png	 D	 l	 b	 n.a.	 5.038226e-01
8	 3	 276	 flanked	 rf	 3	 0.268300	 2.000000	 flanked_rf_freq_3_amplitude_0.2683_rep_0_b_K_2.0.png	 K	 b	 t	 n.a.	 2.364553e-01
8	 3	 277	 flanked	 rf	 2	 0.007500	 2.000000	 flanked_rf_freq_2_amplitude_0.0075_rep_6_b_N_2.0.png	 N	 b	 t	 n.a.	 3.087447e-01
8	 3	 278	 flanked	 rf	 12	 0.007500	 2.000000	 flanked_rf_freq_12_amplitude_0.0075_rep_0_r_N_2.0.png	 N	 r	 r	 n.a.	 3.514584e-01
8	 3	 279	 flanked	 rf	 8	 0.010000	 2.000000	 flanked_rf_freq_8_amplitude_0.01_rep_0_t_H_2.0.png	 H	 t	 t	 n.a.	 4.394729e-01
8	 3	 280	 flanked	 rf	 12	 0.216700	 2.000000	 flanked_rf_freq_12_amplitude_0.2167_rep_7_r_H_2.0.png	 H	 r	 r	 n.a.	 2.931303e-01
8	 3	 281	 flanked	 rf	 5	 0.165000	 2.000000	 flanked_rf_freq_5_amplitude_0.165_rep_6_b_N_2.0.png	 N	 b	 t	 n.a.	 3.184613e-01
8	 3	 282	 flanked	 rf	 5	 0.061700	 2.000000	 flanked_rf_freq_5_amplitude_0.0617_rep_6_b_D_2.0.png	 D	 b	 t	 n.a.	 3.224674e-01
8	 3	 283	 flanked	 rf	 8	 0.007500	 2.000000	 flanked_rf_freq_8_amplitude_0.0075_rep_7_b_H_2.0.png	 H	 b	 b	 n.a.	 3.518655e-01
8	 3	 284	 flanked	 rf	 3	 0.010000	 2.000000	 flanked_rf_freq_3_amplitude_0.01_rep_0_t_N_2.0.png	 N	 t	 l	 n.a.	 2.801744e-01
8	 3	 285	 flanked	 rf	 5	 0.010000	 2.000000	 flanked_rf_freq_5_amplitude_0.01_rep_5_r_D_2.0.png	 D	 r	 b	 n.a.	 2.486609e-01
8	 3	 286	 flanked	 rf	 2	 0.216700	 2.000000	 flanked_rf_freq_2_amplitude_0.2167_rep_6_l_K_2.0.png	 K	 l	 t	 n.a.	 2.350958e-01
8	 3	 287	 flanked	 rf	 8	 0.268300	 2.000000	 flanked_rf_freq_8_amplitude_0.2683_rep_5_b_D_2.0.png	 D	 b	 b	 n.a.	 2.339224e-01
8	 3	 288	 flanked	 rf	 8	 0.061700	 2.000000	 flanked_rf_freq_8_amplitude_0.0617_rep_6_b_N_2.0.png	 N	 b	 t	 n.a.	 3.449809e-01
8	 3	 289	 flanked	 rf	 5	 0.268300	 2.000000	 flanked_rf_freq_5_amplitude_0.2683_rep_8_b_H_2.0.png	 H	 b	 b	 n.a.	 4.552711e-01
8	 3	 290	 flanked	 rf	 8	 0.113300	 2.000000	 flanked_rf_freq_8_amplitude_0.1133_rep_8_r_K_2.0.png	 K	 r	 r	 n.a.	 2.297670e-01
8	 3	 291	 flanked	 rf	 12	 0.010000	 2.000000	 flanked_rf_freq_12_amplitude_0.01_rep_7_b_N_2.0.png	 N	 b	 b	 n.a.	 4.406619e-01
8	 3	 292	 flanked	 rf	 5	 0.216700	 2.000000	 flanked_rf_freq_5_amplitude_0.2167_rep_6_t_K_2.0.png	 K	 t	 t	 n.a.	 3.076677e-01
8	 3	 293	 flanked	 rf	 12	 0.165000	 2.000000	 flanked_rf_freq_12_amplitude_0.165_rep_4_t_N_2.0.png	 N	 t	 t	 n.a.	 4.102400e-01
8	 3	 294	 flanked	 rf	 3	 0.061700	 2.000000	 flanked_rf_freq_3_amplitude_0.0617_rep_2_t_K_2.0.png	 K	 t	 r	 n.a.	 4.247605e-01
8	 3	 295	 flanked	 rf	 3	 0.061700	 2.000000	 flanked_rf_freq_3_amplitude_0.0617_rep_5_b_N_2.0.png	 N	 b	 l	 n.a.	 3.265266e-01
8	 3	 296	 flanked	 rf	 8	 0.216700	 2.000000	 flanked_rf_freq_8_amplitude_0.2167_rep_6_r_K_2.0.png	 K	 r	 r	 n.a.	 2.014365e-01
8	 3	 297	 flanked	 rf	 4	 0.010000	 2.000000	 flanked_rf_freq_4_amplitude_0.01_rep_3_t_K_2.0.png	 K	 t	 t	 n.a.	 3.169476e-01
8	 3	 298	 flanked	 rf	 5	 0.010000	 2.000000	 flanked_rf_freq_5_amplitude_0.01_rep_1_r_K_2.0.png	 K	 r	 r	 n.a.	 2.932251e-01
8	 3	 299	 flanked	 rf	 4	 0.061700	 2.000000	 flanked_rf_freq_4_amplitude_0.0617_rep_9_t_N_2.0.png	 N	 t	 t	 n.a.	 3.980670e-01
8	 3	 300	 flanked	 rf	 8	 0.061700	 2.000000	 flanked_rf_freq_8_amplitude_0.0617_rep_1_l_N_2.0.png	 N	 l	 l	 n.a.	 3.735886e-01
8	 3	 301	 flanked	 rf	 2	 0.010000	 2.000000	 flanked_rf_freq_2_amplitude_0.01_rep_8_t_H_2.0.png	 H	 t	 t	 n.a.	 3.127773e-01
8	 3	 302	 flanked	 rf	 4	 0.061700	 2.000000	 flanked_rf_freq_4_amplitude_0.0617_rep_5_l_H_2.0.png	 H	 l	 l	 n.a.	 4.902683e-01
8	 3	 303	 flanked	 rf	 5	 0.010000	 2.000000	 flanked_rf_freq_5_amplitude_0.01_rep_6_t_H_2.0.png	 H	 t	 t	 n.a.	 4.228454e-01
8	 3	 304	 flanked	 rf	 4	 0.113300	 2.000000	 flanked_rf_freq_4_amplitude_0.1133_rep_5_l_K_2.0.png	 K	 l	 b	 n.a.	 3.914943e-01
8	 3	 305	 flanked	 rf	 12	 0.268300	 2.000000	 flanked_rf_freq_12_amplitude_0.2683_rep_9_t_D_2.0.png	 D	 t	 t	 n.a.	 2.395540e-01
8	 3	 306	 flanked	 rf	 12	 0.113300	 2.000000	 flanked_rf_freq_12_amplitude_0.1133_rep_3_b_H_2.0.png	 H	 b	 b	 n.a.	 3.038983e-01
8	 3	 307	 flanked	 rf	 4	 0.165000	 2.000000	 flanked_rf_freq_4_amplitude_0.165_rep_5_b_K_2.0.png	 K	 b	 b	 n.a.	 3.475302e-01
8	 3	 308	 flanked	 rf	 4	 0.268300	 2.000000	 flanked_rf_freq_4_amplitude_0.2683_rep_9_b_D_2.0.png	 D	 b	 b	 n.a.	 4.226271e-01
8	 3	 309	 flanked	 rf	 12	 0.061700	 2.000000	 flanked_rf_freq_12_amplitude_0.0617_rep_1_r_K_2.0.png	 K	 r	 r	 n.a.	 1.994935e-01
8	 3	 310	 flanked	 rf	 8	 0.216700	 2.000000	 flanked_rf_freq_8_amplitude_0.2167_rep_5_l_H_2.0.png	 H	 l	 l	 n.a.	 2.103388e-01
8	 3	 311	 flanked	 rf	 3	 0.007500	 2.000000	 flanked_rf_freq_3_amplitude_0.0075_rep_6_l_H_2.0.png	 H	 l	 t	 n.a.	 3.452681e-01
8	 3	 312	 flanked	 rf	 5	 0.007500	 2.000000	 flanked_rf_freq_5_amplitude_0.0075_rep_1_r_D_2.0.png	 D	 r	 t	 n.a.	 2.698467e-01
8	 3	 313	 flanked	 rf	 3	 0.216700	 2.000000	 flanked_rf_freq_3_amplitude_0.2167_rep_4_l_D_2.0.png	 D	 l	 l	 n.a.	 2.780742e-01
8	 3	 314	 flanked	 rf	 12	 0.061700	 2.000000	 flanked_rf_freq_12_amplitude_0.0617_rep_6_t_N_2.0.png	 N	 t	 r	 n.a.	 2.323276e-01
8	 3	 315	 flanked	 rf	 5	 0.007500	 2.000000	 flanked_rf_freq_5_amplitude_0.0075_rep_6_b_N_2.0.png	 N	 b	 l	 n.a.	 3.669223e-01
8	 3	 316	 flanked	 rf	 5	 0.113300	 2.000000	 flanked_rf_freq_5_amplitude_0.1133_rep_1_b_N_2.0.png	 N	 b	 t	 n.a.	 1.199390e-01
8	 3	 317	 flanked	 rf	 2	 0.165000	 2.000000	 flanked_rf_freq_2_amplitude_0.165_rep_0_t_N_2.0.png	 N	 t	 b	 n.a.	 2.817025e-01
8	 3	 318	 flanked	 rf	 2	 0.268300	 2.000000	 flanked_rf_freq_2_amplitude_0.2683_rep_4_r_N_2.0.png	 N	 r	 t	 n.a.	 2.737736e-01
8	 3	 319	 flanked	 rf	 4	 0.268300	 2.000000	 flanked_rf_freq_4_amplitude_0.2683_rep_5_r_K_2.0.png	 K	 r	 r	 n.a.	 2.783348e-01
8	 3	 320	 flanked	 rf	 12	 0.165000	 2.000000	 flanked_rf_freq_12_amplitude_0.165_rep_3_l_N_2.0.png	 N	 l	 l	 n.a.	 2.204763e-01
8	 3	 321	 flanked	 rf	 3	 0.007500	 2.000000	 flanked_rf_freq_3_amplitude_0.0075_rep_5_b_H_2.0.png	 H	 b	 b	 n.a.	 5.028778e-01
8	 3	 322	 flanked	 rf	 12	 0.268300	 2.000000	 flanked_rf_freq_12_amplitude_0.2683_rep_7_l_H_2.0.png	 H	 l	 l	 n.a.	 2.482837e-01
8	 3	 323	 flanked	 rf	 12	 0.010000	 2.000000	 flanked_rf_freq_12_amplitude_0.01_rep_6_b_N_2.0.png	 N	 b	 t	 n.a.	 2.288964e-01
8	 3	 324	 flanked	 rf	 5	 0.268300	 2.000000	 flanked_rf_freq_5_amplitude_0.2683_rep_3_l_K_2.0.png	 K	 l	 l	 n.a.	 2.097800e-01
8	 3	 325	 flanked	 rf	 2	 0.268300	 2.000000	 flanked_rf_freq_2_amplitude_0.2683_rep_5_b_H_2.0.png	 H	 b	 b	 n.a.	 3.128547e-01
8	 3	 326	 flanked	 rf	 4	 0.268300	 2.000000	 flanked_rf_freq_4_amplitude_0.2683_rep_2_r_D_2.0.png	 D	 r	 r	 n.a.	 2.927104e-01
8	 3	 327	 flanked	 rf	 5	 0.061700	 2.000000	 flanked_rf_freq_5_amplitude_0.0617_rep_7_t_D_2.0.png	 D	 t	 t	 n.a.	 5.665719e-01
8	 3	 328	 flanked	 rf	 4	 0.216700	 2.000000	 flanked_rf_freq_4_amplitude_0.2167_rep_5_t_D_2.0.png	 D	 t	 l	 n.a.	 3.252171e-01
8	 3	 329	 flanked	 rf	 12	 0.165000	 2.000000	 flanked_rf_freq_12_amplitude_0.165_rep_6_l_H_2.0.png	 H	 l	 l	 n.a.	 4.058442e-01
8	 3	 330	 flanked	 rf	 2	 0.165000	 2.000000	 flanked_rf_freq_2_amplitude_0.165_rep_2_b_D_2.0.png	 D	 b	 l	 n.a.	 4.685456e-01
8	 3	 331	 flanked	 rf	 5	 0.216700	 2.000000	 flanked_rf_freq_5_amplitude_0.2167_rep_3_r_N_2.0.png	 N	 r	 r	 n.a.	 2.795867e-01
8	 3	 332	 flanked	 rf	 4	 0.216700	 2.000000	 flanked_rf_freq_4_amplitude_0.2167_rep_8_b_H_2.0.png	 H	 b	 b	 n.a.	 3.767979e-01
8	 3	 333	 flanked	 rf	 12	 0.113300	 2.000000	 flanked_rf_freq_12_amplitude_0.1133_rep_8_r_N_2.0.png	 N	 r	 r	 n.a.	 1.854218e-01
8	 3	 334	 flanked	 rf	 3	 0.010000	 2.000000	 flanked_rf_freq_3_amplitude_0.01_rep_1_r_K_2.0.png	 K	 r	 b	 n.a.	 4.541320e-01
8	 3	 335	 flanked	 rf	 3	 0.010000	 2.000000	 flanked_rf_freq_3_amplitude_0.01_rep_3_l_D_2.0.png	 D	 l	 r	 n.a.	 3.703330e-01
8	 3	 336	 flanked	 rf	 3	 0.216700	 2.000000	 flanked_rf_freq_3_amplitude_0.2167_rep_2_r_D_2.0.png	 D	 r	 r	 n.a.	 4.771079e-01
8	 3	 337	 flanked	 rf	 2	 0.010000	 2.000000	 flanked_rf_freq_2_amplitude_0.01_rep_4_b_K_2.0.png	 K	 b	 l	 n.a.	 4.789764e-01
8	 3	 338	 flanked	 rf	 8	 0.268300	 2.000000	 flanked_rf_freq_8_amplitude_0.2683_rep_1_r_H_2.0.png	 H	 r	 r	 n.a.	 2.558980e-01
8	 3	 339	 flanked	 rf	 8	 0.010000	 2.000000	 flanked_rf_freq_8_amplitude_0.01_rep_8_t_K_2.0.png	 K	 t	 t	 n.a.	 2.540271e-01
8	 3	 340	 flanked	 rf	 12	 0.010000	 2.000000	 flanked_rf_freq_12_amplitude_0.01_rep_8_b_K_2.0.png	 K	 b	 b	 n.a.	 3.485211e-01
8	 3	 341	 flanked	 rf	 2	 0.061700	 2.000000	 flanked_rf_freq_2_amplitude_0.0617_rep_7_l_N_2.0.png	 N	 l	 t	 n.a.	 2.707878e-01
8	 3	 342	 flanked	 rf	 8	 0.165000	 2.000000	 flanked_rf_freq_8_amplitude_0.165_rep_1_b_K_2.0.png	 K	 b	 t	 n.a.	 5.342007e-01
8	 3	 343	 flanked	 rf	 12	 0.007500	 2.000000	 flanked_rf_freq_12_amplitude_0.0075_rep_2_b_H_2.0.png	 H	 b	 r	 n.a.	 4.917773e-01
8	 3	 344	 flanked	 rf	 8	 0.010000	 2.000000	 flanked_rf_freq_8_amplitude_0.01_rep_5_b_N_2.0.png	 N	 b	 t	 n.a.	 4.167426e-01
8	 3	 345	 flanked	 rf	 8	 0.268300	 2.000000	 flanked_rf_freq_8_amplitude_0.2683_rep_4_b_H_2.0.png	 H	 b	 b	 n.a.	 3.462515e-01
8	 3	 346	 flanked	 rf	 4	 0.113300	 2.000000	 flanked_rf_freq_4_amplitude_0.1133_rep_3_r_K_2.0.png	 K	 r	 r	 n.a.	 2.755488e-01
8	 3	 347	 flanked	 rf	 8	 0.007500	 2.000000	 flanked_rf_freq_8_amplitude_0.0075_rep_5_b_H_2.0.png	 H	 b	 t	 n.a.	 3.316646e-01
8	 3	 348	 flanked	 rf	 5	 0.061700	 2.000000	 flanked_rf_freq_5_amplitude_0.0617_rep_8_r_D_2.0.png	 D	 r	 t	 n.a.	 4.531978e-01
8	 3	 349	 flanked	 rf	 3	 0.010000	 2.000000	 flanked_rf_freq_3_amplitude_0.01_rep_7_t_H_2.0.png	 H	 t	 l	 n.a.	 2.175547e-01
8	 3	 350	 flanked	 rf	 2	 0.010000	 2.000000	 flanked_rf_freq_2_amplitude_0.01_rep_2_r_N_2.0.png	 N	 r	 t	 n.a.	 3.617658e-01
8	 3	 351	 flanked	 rf	 3	 0.061700	 2.000000	 flanked_rf_freq_3_amplitude_0.0617_rep_9_l_H_2.0.png	 H	 l	 r	 n.a.	 2.669674e-01
8	 3	 352	 flanked	 rf	 8	 0.061700	 2.000000	 flanked_rf_freq_8_amplitude_0.0617_rep_0_r_N_2.0.png	 N	 r	 r	 n.a.	 4.396010e-01
8	 3	 353	 flanked	 rf	 3	 0.268300	 2.000000	 flanked_rf_freq_3_amplitude_0.2683_rep_7_b_N_2.0.png	 N	 b	 t	 n.a.	 3.695308e-01
8	 3	 354	 flanked	 rf	 4	 0.007500	 2.000000	 flanked_rf_freq_4_amplitude_0.0075_rep_9_l_K_2.0.png	 K	 l	 b	 n.a.	 3.136430e-01
8	 3	 355	 flanked	 rf	 5	 0.061700	 2.000000	 flanked_rf_freq_5_amplitude_0.0617_rep_2_l_K_2.0.png	 K	 l	 t	 n.a.	 3.509074e-01
8	 3	 356	 flanked	 rf	 4	 0.007500	 2.000000	 flanked_rf_freq_4_amplitude_0.0075_rep_1_t_N_2.0.png	 N	 t	 r	 n.a.	 2.663712e-01
8	 3	 357	 flanked	 rf	 2	 0.113300	 2.000000	 flanked_rf_freq_2_amplitude_0.1133_rep_2_l_K_2.0.png	 K	 l	 l	 n.a.	 3.598657e-01
8	 3	 358	 flanked	 rf	 12	 0.061700	 2.000000	 flanked_rf_freq_12_amplitude_0.0617_rep_3_t_N_2.0.png	 N	 t	 t	 n.a.	 3.262570e-01
8	 3	 359	 flanked	 rf	 12	 0.216700	 2.000000	 flanked_rf_freq_12_amplitude_0.2167_rep_0_t_K_2.0.png	 K	 t	 t	 n.a.	 2.649374e-01
8	 3	 360	 flanked	 rf	 5	 0.113300	 2.000000	 flanked_rf_freq_5_amplitude_0.1133_rep_6_l_D_2.0.png	 D	 l	 t	 n.a.	 4.076608e-01
8	 3	 361	 flanked	 rf	 3	 0.165000	 2.000000	 flanked_rf_freq_3_amplitude_0.165_rep_0_t_H_2.0.png	 H	 t	 l	 n.a.	 3.229776e-01
8	 3	 362	 flanked	 rf	 5	 0.113300	 2.000000	 flanked_rf_freq_5_amplitude_0.1133_rep_5_b_D_2.0.png	 D	 b	 b	 n.a.	 3.350743e-01
8	 3	 363	 flanked	 rf	 4	 0.010000	 2.000000	 flanked_rf_freq_4_amplitude_0.01_rep_2_b_H_2.0.png	 H	 b	 t	 n.a.	 2.427966e-01
8	 3	 364	 flanked	 rf	 4	 0.165000	 2.000000	 flanked_rf_freq_4_amplitude_0.165_rep_2_t_N_2.0.png	 N	 t	 b	 n.a.	 3.094344e-01
8	 3	 365	 flanked	 rf	 12	 0.061700	 2.000000	 flanked_rf_freq_12_amplitude_0.0617_rep_8_t_H_2.0.png	 H	 t	 t	 n.a.	 3.672010e-01
8	 3	 366	 flanked	 rf	 3	 0.165000	 2.000000	 flanked_rf_freq_3_amplitude_0.165_rep_6_l_D_2.0.png	 D	 l	 l	 n.a.	 3.973958e-01
8	 3	 367	 flanked	 rf	 3	 0.061700	 2.000000	 flanked_rf_freq_3_amplitude_0.0617_rep_4_r_N_2.0.png	 N	 r	 t	 n.a.	 2.877634e-01
8	 3	 368	 flanked	 rf	 4	 0.165000	 2.000000	 flanked_rf_freq_4_amplitude_0.165_rep_6_r_K_2.0.png	 K	 r	 r	 n.a.	 2.513858e-01
8	 3	 369	 flanked	 rf	 3	 0.010000	 2.000000	 flanked_rf_freq_3_amplitude_0.01_rep_2_t_D_2.0.png	 D	 t	 b	 n.a.	 4.841378e-01
8	 3	 370	 flanked	 rf	 12	 0.216700	 2.000000	 flanked_rf_freq_12_amplitude_0.2167_rep_3_t_D_2.0.png	 D	 t	 t	 n.a.	 2.064640e-01
8	 3	 371	 flanked	 rf	 5	 0.216700	 2.000000	 flanked_rf_freq_5_amplitude_0.2167_rep_2_r_K_2.0.png	 K	 r	 r	 n.a.	 2.200329e-01
8	 3	 372	 flanked	 rf	 3	 0.268300	 2.000000	 flanked_rf_freq_3_amplitude_0.2683_rep_8_l_H_2.0.png	 H	 l	 l	 n.a.	 3.200011e-01
8	 3	 373	 flanked	 rf	 12	 0.165000	 2.000000	 flanked_rf_freq_12_amplitude_0.165_rep_5_l_K_2.0.png	 K	 l	 l	 n.a.	 3.920219e-01
8	 3	 374	 flanked	 rf	 3	 0.268300	 2.000000	 flanked_rf_freq_3_amplitude_0.2683_rep_3_l_H_2.0.png	 H	 l	 l	 n.a.	 3.369134e-01
8	 3	 375	 flanked	 rf	 2	 0.007500	 2.000000	 flanked_rf_freq_2_amplitude_0.0075_rep_7_l_H_2.0.png	 H	 l	 t	 n.a.	 5.087239e-01
8	 3	 376	 flanked	 rf	 2	 0.268300	 2.000000	 flanked_rf_freq_2_amplitude_0.2683_rep_9_b_H_2.0.png	 H	 b	 r	 n.a.	 2.562922e-01
8	 3	 377	 flanked	 rf	 4	 0.010000	 2.000000	 flanked_rf_freq_4_amplitude_0.01_rep_1_r_H_2.0.png	 H	 r	 t	 n.a.	 2.970393e-01
8	 3	 378	 flanked	 rf	 2	 0.061700	 2.000000	 flanked_rf_freq_2_amplitude_0.0617_rep_1_r_D_2.0.png	 D	 r	 t	 n.a.	 2.692367e-01
8	 3	 379	 flanked	 rf	 2	 0.165000	 2.000000	 flanked_rf_freq_2_amplitude_0.165_rep_9_l_N_2.0.png	 N	 l	 b	 n.a.	 2.775274e-01
8	 3	 380	 flanked	 rf	 4	 0.061700	 2.000000	 flanked_rf_freq_4_amplitude_0.0617_rep_3_r_K_2.0.png	 K	 r	 r	 n.a.	 2.550199e-01
8	 3	 381	 flanked	 rf	 8	 0.113300	 2.000000	 flanked_rf_freq_8_amplitude_0.1133_rep_0_l_D_2.0.png	 D	 l	 l	 n.a.	 2.340184e-01
8	 3	 382	 flanked	 rf	 3	 0.216700	 2.000000	 flanked_rf_freq_3_amplitude_0.2167_rep_0_l_D_2.0.png	 D	 l	 l	 n.a.	 3.414212e-01
8	 3	 383	 flanked	 rf	 4	 0.007500	 2.000000	 flanked_rf_freq_4_amplitude_0.0075_rep_6_t_K_2.0.png	 K	 t	 t	 n.a.	 3.192730e-01
8	 3	 384	 flanked	 rf	 5	 0.268300	 2.000000	 flanked_rf_freq_5_amplitude_0.2683_rep_1_b_H_2.0.png	 H	 b	 b	 n.a.	 3.512102e-01
8	 3	 385	 flanked	 rf	 8	 0.113300	 2.000000	 flanked_rf_freq_8_amplitude_0.1133_rep_3_l_H_2.0.png	 H	 l	 l	 n.a.	 2.196255e-01
8	 3	 386	 flanked	 rf	 5	 0.007500	 2.000000	 flanked_rf_freq_5_amplitude_0.0075_rep_7_l_H_2.0.png	 H	 l	 t	 n.a.	 3.945195e-01
8	 3	 387	 flanked	 rf	 8	 0.216700	 2.000000	 flanked_rf_freq_8_amplitude_0.2167_rep_2_l_D_2.0.png	 D	 l	 l	 n.a.	 2.588625e-01
8	 3	 388	 flanked	 rf	 12	 0.007500	 2.000000	 flanked_rf_freq_12_amplitude_0.0075_rep_8_l_D_2.0.png	 D	 l	 t	 n.a.	 3.157379e-01
8	 3	 389	 flanked	 rf	 12	 0.061700	 2.000000	 flanked_rf_freq_12_amplitude_0.0617_rep_9_l_H_2.0.png	 H	 l	 b	 n.a.	 3.087773e-01
8	 3	 390	 flanked	 rf	 8	 0.165000	 2.000000	 flanked_rf_freq_8_amplitude_0.165_rep_2_t_N_2.0.png	 N	 t	 t	 n.a.	 2.560882e-01
8	 3	 391	 flanked	 rf	 5	 0.061700	 2.000000	 flanked_rf_freq_5_amplitude_0.0617_rep_5_b_D_2.0.png	 D	 b	 b	 n.a.	 5.957021e-01
8	 3	 392	 flanked	 rf	 2	 0.165000	 2.000000	 flanked_rf_freq_2_amplitude_0.165_rep_4_r_N_2.0.png	 N	 r	 t	 n.a.	 3.028061e-01
8	 3	 393	 flanked	 rf	 5	 0.268300	 2.000000	 flanked_rf_freq_5_amplitude_0.2683_rep_9_t_H_2.0.png	 H	 t	 r	 n.a.	 5.068128e-01
8	 3	 394	 flanked	 rf	 3	 0.061700	 2.000000	 flanked_rf_freq_3_amplitude_0.0617_rep_1_b_H_2.0.png	 H	 b	 l	 n.a.	 4.756013e-01
8	 3	 395	 flanked	 rf	 3	 0.165000	 2.000000	 flanked_rf_freq_3_amplitude_0.165_rep_5_r_H_2.0.png	 H	 r	 r	 n.a.	 3.750723e-01
8	 3	 396	 flanked	 rf	 12	 0.113300	 2.000000	 flanked_rf_freq_12_amplitude_0.1133_rep_6_b_D_2.0.png	 D	 b	 b	 n.a.	 3.563069e-01
8	 3	 397	 flanked	 rf	 3	 0.113300	 2.000000	 flanked_rf_freq_3_amplitude_0.1133_rep_8_r_N_2.0.png	 N	 r	 r	 n.a.	 3.478263e-01
8	 3	 398	 flanked	 rf	 12	 0.061700	 2.000000	 flanked_rf_freq_12_amplitude_0.0617_rep_5_t_K_2.0.png	 K	 t	 t	 n.a.	 3.294162e-01
8	 3	 399	 flanked	 rf	 4	 0.010000	 2.000000	 flanked_rf_freq_4_amplitude_0.01_rep_0_l_D_2.0.png	 D	 l	 b	 n.a.	 3.549775e-01
8	 3	 400	 flanked	 rf	 2	 0.165000	 2.000000	 flanked_rf_freq_2_amplitude_0.165_rep_1_r_H_2.0.png	 H	 r	 b	 n.a.	 3.839958e-01
8	 3	 401	 flanked	 rf	 2	 0.165000	 2.000000	 flanked_rf_freq_2_amplitude_0.165_rep_7_b_H_2.0.png	 H	 b	 t	 n.a.	 2.650318e-01
8	 3	 402	 flanked	 rf	 3	 0.061700	 2.000000	 flanked_rf_freq_3_amplitude_0.0617_rep_8_t_H_2.0.png	 H	 t	 l	 n.a.	 4.083337e-01
8	 3	 403	 flanked	 rf	 5	 0.113300	 2.000000	 flanked_rf_freq_5_amplitude_0.1133_rep_9_r_N_2.0.png	 N	 r	 r	 n.a.	 2.589409e-01
8	 3	 404	 flanked	 rf	 4	 0.113300	 2.000000	 flanked_rf_freq_4_amplitude_0.1133_rep_7_b_D_2.0.png	 D	 b	 b	 n.a.	 4.739131e-01
8	 3	 405	 flanked	 rf	 4	 0.216700	 2.000000	 flanked_rf_freq_4_amplitude_0.2167_rep_7_b_K_2.0.png	 K	 b	 b	 n.a.	 3.787962e-01
8	 3	 406	 flanked	 rf	 2	 0.010000	 2.000000	 flanked_rf_freq_2_amplitude_0.01_rep_9_b_K_2.0.png	 K	 b	 t	 n.a.	 3.379730e-01
8	 3	 407	 flanked	 rf	 3	 0.007500	 2.000000	 flanked_rf_freq_3_amplitude_0.0075_rep_0_t_K_2.0.png	 K	 t	 t	 n.a.	 4.496838e-01
8	 3	 408	 flanked	 rf	 2	 0.268300	 2.000000	 flanked_rf_freq_2_amplitude_0.2683_rep_3_r_N_2.0.png	 N	 r	 r	 n.a.	 4.433068e-01
8	 3	 409	 flanked	 rf	 2	 0.165000	 2.000000	 flanked_rf_freq_2_amplitude_0.165_rep_5_b_H_2.0.png	 H	 b	 b	 n.a.	 4.480248e-01
8	 3	 410	 flanked	 rf	 3	 0.216700	 2.000000	 flanked_rf_freq_3_amplitude_0.2167_rep_8_t_K_2.0.png	 K	 t	 t	 n.a.	 3.205517e-01
8	 3	 411	 flanked	 rf	 4	 0.010000	 2.000000	 flanked_rf_freq_4_amplitude_0.01_rep_9_r_H_2.0.png	 H	 r	 b	 n.a.	 2.988345e-01
8	 3	 412	 flanked	 rf	 2	 0.010000	 2.000000	 flanked_rf_freq_2_amplitude_0.01_rep_7_r_K_2.0.png	 K	 r	 b	 n.a.	 3.853486e-01
8	 3	 413	 flanked	 rf	 12	 0.010000	 2.000000	 flanked_rf_freq_12_amplitude_0.01_rep_4_b_N_2.0.png	 N	 b	 r	 n.a.	 2.085606e-01
8	 3	 414	 flanked	 rf	 12	 0.113300	 2.000000	 flanked_rf_freq_12_amplitude_0.1133_rep_9_b_K_2.0.png	 K	 b	 b	 n.a.	 2.909482e-01
8	 3	 415	 flanked	 rf	 4	 0.007500	 2.000000	 flanked_rf_freq_4_amplitude_0.0075_rep_7_l_H_2.0.png	 H	 l	 t	 n.a.	 2.433942e-01
8	 3	 416	 flanked	 rf	 3	 0.007500	 2.000000	 flanked_rf_freq_3_amplitude_0.0075_rep_1_t_H_2.0.png	 H	 t	 r	 n.a.	 2.965593e-01
8	 3	 417	 flanked	 rf	 4	 0.165000	 2.000000	 flanked_rf_freq_4_amplitude_0.165_rep_8_r_H_2.0.png	 H	 r	 r	 n.a.	 3.370736e-01
8	 3	 418	 flanked	 rf	 5	 0.007500	 2.000000	 flanked_rf_freq_5_amplitude_0.0075_rep_2_r_K_2.0.png	 K	 r	 t	 n.a.	 3.395102e-01
8	 3	 419	 flanked	 rf	 12	 0.113300	 2.000000	 flanked_rf_freq_12_amplitude_0.1133_rep_7_t_D_2.0.png	 D	 t	 t	 n.a.	 3.422273e-01
8	 3	 420	 flanked	 rf	 8	 0.061700	 2.000000	 flanked_rf_freq_8_amplitude_0.0617_rep_5_b_K_2.0.png	 K	 b	 b	 n.a.	 2.550955e-01
