subject	 session	 trial	 flanked	 distortion	 freq	 amplitude	 spacing	 im_name	 targ_letter	 targ_pos	 response	 eyemovement	 RT
8	 1	 1	 flanked	 rf	 12	 0.113300	 2.000000	 flanked_rf_freq_12_amplitude_0.1133_rep_7_t_D_2.0.png	 D	 t	 t	 n.a.	 3.880448e-01
8	 1	 2	 flanked	 rf	 2	 0.268300	 2.000000	 flanked_rf_freq_2_amplitude_0.2683_rep_8_l_H_2.0.png	 H	 l	 r	 n.a.	 7.273517e-01
8	 1	 3	 flanked	 rf	 8	 0.320000	 2.000000	 flanked_rf_freq_8_amplitude_0.32_rep_8_r_N_2.0.png	 N	 r	 r	 n.a.	 2.173010e-01
8	 1	 4	 flanked	 rf	 12	 0.010000	 2.000000	 flanked_rf_freq_12_amplitude_0.01_rep_6_b_N_2.0.png	 N	 b	 l	 n.a.	 6.062003e-01
8	 1	 5	 flanked	 rf	 12	 0.113300	 2.000000	 flanked_rf_freq_12_amplitude_0.1133_rep_8_r_N_2.0.png	 N	 r	 r	 n.a.	 2.219039e-01
8	 1	 6	 flanked	 rf	 12	 0.320000	 2.000000	 flanked_rf_freq_12_amplitude_0.32_rep_6_l_N_2.0.png	 N	 l	 l	 n.a.	 2.271107e-01
8	 1	 7	 flanked	 rf	 2	 0.061700	 2.000000	 flanked_rf_freq_2_amplitude_0.0617_rep_0_t_N_2.0.png	 N	 t	 b	 n.a.	 6.510428e-01
8	 1	 8	 flanked	 rf	 8	 0.010000	 2.000000	 flanked_rf_freq_8_amplitude_0.01_rep_5_b_N_2.0.png	 N	 b	 r	 n.a.	 5.263665e-01
8	 1	 9	 flanked	 rf	 5	 0.165000	 2.000000	 flanked_rf_freq_5_amplitude_0.165_rep_5_t_D_2.0.png	 D	 t	 t	 n.a.	 3.745212e-01
8	 1	 10	 flanked	 rf	 3	 0.061700	 2.000000	 flanked_rf_freq_3_amplitude_0.0617_rep_7_l_K_2.0.png	 K	 l	 r	 n.a.	 6.742041e-01
8	 1	 11	 flanked	 rf	 2	 0.268300	 2.000000	 flanked_rf_freq_2_amplitude_0.2683_rep_0_l_H_2.0.png	 H	 l	 l	 n.a.	 3.600635e-01
8	 1	 12	 flanked	 rf	 12	 0.061700	 2.000000	 flanked_rf_freq_12_amplitude_0.0617_rep_4_l_N_2.0.png	 N	 l	 l	 n.a.	 3.176371e-01
8	 1	 13	 flanked	 rf	 5	 0.216700	 2.000000	 flanked_rf_freq_5_amplitude_0.2167_rep_7_t_D_2.0.png	 D	 t	 t	 n.a.	 3.179969e-01
8	 1	 14	 flanked	 rf	 12	 0.010000	 2.000000	 flanked_rf_freq_12_amplitude_0.01_rep_9_l_K_2.0.png	 K	 l	 b	 n.a.	 4.455611e-01
8	 1	 15	 flanked	 rf	 3	 0.165000	 2.000000	 flanked_rf_freq_3_amplitude_0.165_rep_7_r_K_2.0.png	 K	 r	 r	 n.a.	 3.110862e-01
8	 1	 16	 flanked	 rf	 8	 0.268300	 2.000000	 flanked_rf_freq_8_amplitude_0.2683_rep_7_l_N_2.0.png	 N	 l	 l	 n.a.	 2.459520e-01
8	 1	 17	 flanked	 rf	 5	 0.268300	 2.000000	 flanked_rf_freq_5_amplitude_0.2683_rep_3_l_K_2.0.png	 K	 l	 l	 n.a.	 2.748208e-01
8	 1	 18	 flanked	 rf	 3	 0.061700	 2.000000	 flanked_rf_freq_3_amplitude_0.0617_rep_5_b_N_2.0.png	 N	 b	 r	 n.a.	 4.177261e-01
8	 1	 19	 flanked	 rf	 12	 0.061700	 2.000000	 flanked_rf_freq_12_amplitude_0.0617_rep_8_t_H_2.0.png	 H	 t	 t	 n.a.	 5.076923e-01
8	 1	 20	 flanked	 rf	 12	 0.113300	 2.000000	 flanked_rf_freq_12_amplitude_0.1133_rep_6_b_D_2.0.png	 D	 b	 b	 n.a.	 3.906364e-01
8	 1	 21	 flanked	 rf	 4	 0.113300	 2.000000	 flanked_rf_freq_4_amplitude_0.1133_rep_1_r_H_2.0.png	 H	 r	 r	 n.a.	 3.851230e-01
8	 1	 22	 flanked	 rf	 4	 0.113300	 2.000000	 flanked_rf_freq_4_amplitude_0.1133_rep_3_r_K_2.0.png	 K	 r	 l	 n.a.	 6.536799e-01
8	 1	 23	 flanked	 rf	 12	 0.268300	 2.000000	 flanked_rf_freq_12_amplitude_0.2683_rep_9_t_D_2.0.png	 D	 t	 t	 n.a.	 2.071230e-01
8	 1	 24	 flanked	 rf	 12	 0.165000	 2.000000	 flanked_rf_freq_12_amplitude_0.165_rep_9_b_H_2.0.png	 H	 b	 b	 n.a.	 3.288658e-01
8	 1	 25	 flanked	 rf	 4	 0.320000	 2.000000	 flanked_rf_freq_4_amplitude_0.32_rep_5_t_N_2.0.png	 N	 t	 t	 n.a.	 3.008269e-01
8	 1	 26	 flanked	 rf	 4	 0.165000	 2.000000	 flanked_rf_freq_4_amplitude_0.165_rep_0_t_N_2.0.png	 N	 t	 l	 n.a.	 4.750887e-01
8	 1	 27	 flanked	 rf	 4	 0.165000	 2.000000	 flanked_rf_freq_4_amplitude_0.165_rep_9_b_D_2.0.png	 D	 b	 b	 n.a.	 3.104860e-01
8	 1	 28	 flanked	 rf	 5	 0.165000	 2.000000	 flanked_rf_freq_5_amplitude_0.165_rep_8_l_K_2.0.png	 K	 l	 l	 n.a.	 4.235608e-01
8	 1	 29	 flanked	 rf	 4	 0.061700	 2.000000	 flanked_rf_freq_4_amplitude_0.0617_rep_6_b_N_2.0.png	 N	 b	 b	 n.a.	 3.897342e-01
8	 1	 30	 flanked	 rf	 5	 0.165000	 2.000000	 flanked_rf_freq_5_amplitude_0.165_rep_1_r_N_2.0.png	 N	 r	 r	 n.a.	 4.431139e-01
8	 1	 31	 flanked	 rf	 2	 0.113300	 2.000000	 flanked_rf_freq_2_amplitude_0.1133_rep_1_t_K_2.0.png	 K	 t	 l	 n.a.	 5.630956e-01
8	 1	 32	 flanked	 rf	 2	 0.165000	 2.000000	 flanked_rf_freq_2_amplitude_0.165_rep_9_l_N_2.0.png	 N	 l	 r	 n.a.	 2.571687e-01
8	 1	 33	 flanked	 rf	 8	 0.061700	 2.000000	 flanked_rf_freq_8_amplitude_0.0617_rep_7_r_K_2.0.png	 K	 r	 r	 n.a.	 3.669300e-01
8	 1	 34	 flanked	 rf	 8	 0.010000	 2.000000	 flanked_rf_freq_8_amplitude_0.01_rep_1_t_N_2.0.png	 N	 t	 l	 n.a.	 5.608125e-01
8	 1	 35	 flanked	 rf	 2	 0.320000	 2.000000	 flanked_rf_freq_2_amplitude_0.32_rep_7_l_D_2.0.png	 D	 l	 l	 n.a.	 3.553678e-01
8	 1	 36	 flanked	 rf	 12	 0.216700	 2.000000	 flanked_rf_freq_12_amplitude_0.2167_rep_5_t_D_2.0.png	 D	 t	 t	 n.a.	 3.287393e-01
8	 1	 37	 flanked	 rf	 4	 0.268300	 2.000000	 flanked_rf_freq_4_amplitude_0.2683_rep_8_b_K_2.0.png	 K	 b	 b	 n.a.	 4.637834e-01
8	 1	 38	 flanked	 rf	 5	 0.165000	 2.000000	 flanked_rf_freq_5_amplitude_0.165_rep_4_l_K_2.0.png	 K	 l	 l	 n.a.	 4.382272e-01
8	 1	 39	 flanked	 rf	 2	 0.010000	 2.000000	 flanked_rf_freq_2_amplitude_0.01_rep_5_r_H_2.0.png	 H	 r	 l	 n.a.	 5.220894e-01
8	 1	 40	 flanked	 rf	 2	 0.113300	 2.000000	 flanked_rf_freq_2_amplitude_0.1133_rep_7_r_N_2.0.png	 N	 r	 t	 n.a.	 2.697126e-01
8	 1	 41	 flanked	 rf	 5	 0.216700	 2.000000	 flanked_rf_freq_5_amplitude_0.2167_rep_1_t_H_2.0.png	 H	 t	 t	 n.a.	 2.528366e-01
8	 1	 42	 flanked	 rf	 4	 0.216700	 2.000000	 flanked_rf_freq_4_amplitude_0.2167_rep_3_l_H_2.0.png	 H	 l	 l	 n.a.	 5.441007e-01
8	 1	 43	 flanked	 rf	 4	 0.268300	 2.000000	 flanked_rf_freq_4_amplitude_0.2683_rep_5_r_K_2.0.png	 K	 r	 b	 n.a.	 7.880003e-01
8	 1	 44	 flanked	 rf	 8	 0.165000	 2.000000	 flanked_rf_freq_8_amplitude_0.165_rep_8_b_H_2.0.png	 H	 b	 b	 n.a.	 3.643400e-01
8	 1	 45	 flanked	 rf	 3	 0.061700	 2.000000	 flanked_rf_freq_3_amplitude_0.0617_rep_3_b_H_2.0.png	 H	 b	 b	 n.a.	 5.191240e-01
8	 1	 46	 flanked	 rf	 12	 0.165000	 2.000000	 flanked_rf_freq_12_amplitude_0.165_rep_8_l_H_2.0.png	 H	 l	 l	 n.a.	 1.973394e-01
8	 1	 47	 flanked	 rf	 2	 0.165000	 2.000000	 flanked_rf_freq_2_amplitude_0.165_rep_2_b_D_2.0.png	 D	 b	 l	 n.a.	 5.090444e-01
8	 1	 48	 flanked	 rf	 2	 0.165000	 2.000000	 flanked_rf_freq_2_amplitude_0.165_rep_1_r_H_2.0.png	 H	 r	 b	 n.a.	 2.651397e-01
8	 1	 49	 flanked	 rf	 2	 0.010000	 2.000000	 flanked_rf_freq_2_amplitude_0.01_rep_4_b_K_2.0.png	 K	 b	 l	 n.a.	 4.151927e-01
8	 1	 50	 flanked	 rf	 8	 0.061700	 2.000000	 flanked_rf_freq_8_amplitude_0.0617_rep_4_l_K_2.0.png	 K	 l	 l	 n.a.	 4.620713e-01
8	 1	 51	 flanked	 rf	 3	 0.216700	 2.000000	 flanked_rf_freq_3_amplitude_0.2167_rep_1_r_D_2.0.png	 D	 r	 r	 n.a.	 3.896797e-01
8	 1	 52	 flanked	 rf	 4	 0.061700	 2.000000	 flanked_rf_freq_4_amplitude_0.0617_rep_1_r_K_2.0.png	 K	 r	 b	 n.a.	 7.137670e-01
8	 1	 53	 flanked	 rf	 4	 0.216700	 2.000000	 flanked_rf_freq_4_amplitude_0.2167_rep_4_r_D_2.0.png	 D	 r	 r	 n.a.	 3.214696e-01
8	 1	 54	 flanked	 rf	 12	 0.320000	 2.000000	 flanked_rf_freq_12_amplitude_0.32_rep_8_b_N_2.0.png	 N	 b	 b	 n.a.	 3.079506e-01
8	 1	 55	 flanked	 rf	 5	 0.165000	 2.000000	 flanked_rf_freq_5_amplitude_0.165_rep_6_b_N_2.0.png	 N	 b	 b	 n.a.	 4.930775e-01
8	 1	 56	 flanked	 rf	 5	 0.010000	 2.000000	 flanked_rf_freq_5_amplitude_0.01_rep_5_r_D_2.0.png	 D	 r	 l	 n.a.	 4.233617e-01
8	 1	 57	 flanked	 rf	 12	 0.268300	 2.000000	 flanked_rf_freq_12_amplitude_0.2683_rep_4_b_D_2.0.png	 D	 b	 b	 n.a.	 2.201005e-01
8	 1	 58	 flanked	 rf	 3	 0.113300	 2.000000	 flanked_rf_freq_3_amplitude_0.1133_rep_6_t_N_2.0.png	 N	 t	 l	 n.a.	 3.316346e-01
8	 1	 59	 flanked	 rf	 3	 0.165000	 2.000000	 flanked_rf_freq_3_amplitude_0.165_rep_1_l_N_2.0.png	 N	 l	 b	 n.a.	 3.033914e-01
8	 1	 60	 flanked	 rf	 5	 0.165000	 2.000000	 flanked_rf_freq_5_amplitude_0.165_rep_0_r_D_2.0.png	 D	 r	 t	 n.a.	 3.538354e-01
8	 1	 61	 flanked	 rf	 5	 0.010000	 2.000000	 flanked_rf_freq_5_amplitude_0.01_rep_8_r_H_2.0.png	 H	 r	 l	 n.a.	 8.634755e-01
8	 1	 62	 flanked	 rf	 2	 0.268300	 2.000000	 flanked_rf_freq_2_amplitude_0.2683_rep_3_r_N_2.0.png	 N	 r	 r	 n.a.	 3.709254e-01
8	 1	 63	 flanked	 rf	 3	 0.216700	 2.000000	 flanked_rf_freq_3_amplitude_0.2167_rep_0_l_D_2.0.png	 D	 l	 t	 n.a.	 4.589369e-01
8	 1	 64	 flanked	 rf	 3	 0.113300	 2.000000	 flanked_rf_freq_3_amplitude_0.1133_rep_9_t_N_2.0.png	 N	 t	 l	 n.a.	 3.145913e-01
8	 1	 65	 flanked	 rf	 3	 0.216700	 2.000000	 flanked_rf_freq_3_amplitude_0.2167_rep_2_r_D_2.0.png	 D	 r	 r	 n.a.	 3.215622e-01
8	 1	 66	 flanked	 rf	 8	 0.216700	 2.000000	 flanked_rf_freq_8_amplitude_0.2167_rep_7_b_K_2.0.png	 K	 b	 b	 n.a.	 3.935494e-01
8	 1	 67	 flanked	 rf	 3	 0.268300	 2.000000	 flanked_rf_freq_3_amplitude_0.2683_rep_4_t_N_2.0.png	 N	 t	 t	 n.a.	 3.431427e-01
8	 1	 68	 flanked	 rf	 3	 0.061700	 2.000000	 flanked_rf_freq_3_amplitude_0.0617_rep_9_l_H_2.0.png	 H	 l	 b	 n.a.	 7.151108e-01
8	 1	 69	 flanked	 rf	 12	 0.113300	 2.000000	 flanked_rf_freq_12_amplitude_0.1133_rep_4_t_N_2.0.png	 N	 t	 t	 n.a.	 3.224591e-01
8	 1	 70	 flanked	 rf	 2	 0.010000	 2.000000	 flanked_rf_freq_2_amplitude_0.01_rep_6_b_D_2.0.png	 D	 b	 l	 n.a.	 5.628075e-01
8	 1	 71	 flanked	 rf	 12	 0.165000	 2.000000	 flanked_rf_freq_12_amplitude_0.165_rep_7_l_H_2.0.png	 H	 l	 l	 n.a.	 2.765733e-01
8	 1	 72	 flanked	 rf	 4	 0.165000	 2.000000	 flanked_rf_freq_4_amplitude_0.165_rep_4_l_H_2.0.png	 H	 l	 l	 n.a.	 3.558377e-01
8	 1	 73	 flanked	 rf	 12	 0.010000	 2.000000	 flanked_rf_freq_12_amplitude_0.01_rep_7_b_N_2.0.png	 N	 b	 b	 n.a.	 4.368053e-01
8	 1	 74	 flanked	 rf	 5	 0.010000	 2.000000	 flanked_rf_freq_5_amplitude_0.01_rep_4_b_N_2.0.png	 N	 b	 b	 n.a.	 5.619917e-01
8	 1	 75	 flanked	 rf	 5	 0.216700	 2.000000	 flanked_rf_freq_5_amplitude_0.2167_rep_4_t_K_2.0.png	 K	 t	 t	 n.a.	 5.123485e-01
8	 1	 76	 flanked	 rf	 8	 0.216700	 2.000000	 flanked_rf_freq_8_amplitude_0.2167_rep_4_l_N_2.0.png	 N	 l	 l	 n.a.	 2.543239e-01
8	 1	 77	 flanked	 rf	 5	 0.320000	 2.000000	 flanked_rf_freq_5_amplitude_0.32_rep_8_b_K_2.0.png	 K	 b	 b	 n.a.	 2.742273e-01
8	 1	 78	 flanked	 rf	 8	 0.216700	 2.000000	 flanked_rf_freq_8_amplitude_0.2167_rep_0_b_N_2.0.png	 N	 b	 b	 n.a.	 3.682316e-01
8	 1	 79	 flanked	 rf	 8	 0.216700	 2.000000	 flanked_rf_freq_8_amplitude_0.2167_rep_6_r_K_2.0.png	 K	 r	 r	 n.a.	 2.771594e-01
8	 1	 80	 flanked	 rf	 2	 0.061700	 2.000000	 flanked_rf_freq_2_amplitude_0.0617_rep_7_l_N_2.0.png	 N	 l	 t	 n.a.	 3.634180e-01
8	 1	 81	 flanked	 rf	 3	 0.010000	 2.000000	 flanked_rf_freq_3_amplitude_0.01_rep_7_t_H_2.0.png	 H	 t	 t	 n.a.	 3.610508e-01
8	 1	 82	 flanked	 rf	 5	 0.268300	 2.000000	 flanked_rf_freq_5_amplitude_0.2683_rep_0_b_N_2.0.png	 N	 b	 b	 n.a.	 4.715123e-01
8	 1	 83	 flanked	 rf	 5	 0.320000	 2.000000	 flanked_rf_freq_5_amplitude_0.32_rep_5_t_N_2.0.png	 N	 t	 l	 n.a.	 4.083508e-01
8	 1	 84	 flanked	 rf	 12	 0.061700	 2.000000	 flanked_rf_freq_12_amplitude_0.0617_rep_0_b_D_2.0.png	 D	 b	 b	 n.a.	 2.785869e-01
8	 1	 85	 flanked	 rf	 2	 0.113300	 2.000000	 flanked_rf_freq_2_amplitude_0.1133_rep_5_b_K_2.0.png	 K	 b	 t	 n.a.	 5.965915e-01
8	 1	 86	 flanked	 rf	 4	 0.113300	 2.000000	 flanked_rf_freq_4_amplitude_0.1133_rep_0_b_D_2.0.png	 D	 b	 t	 n.a.	 3.850630e-01
8	 1	 87	 flanked	 rf	 4	 0.216700	 2.000000	 flanked_rf_freq_4_amplitude_0.2167_rep_9_l_H_2.0.png	 H	 l	 l	 n.a.	 3.062707e-01
8	 1	 88	 flanked	 rf	 4	 0.268300	 2.000000	 flanked_rf_freq_4_amplitude_0.2683_rep_1_l_D_2.0.png	 D	 l	 l	 n.a.	 3.437243e-01
8	 1	 89	 flanked	 rf	 12	 0.165000	 2.000000	 flanked_rf_freq_12_amplitude_0.165_rep_0_l_H_2.0.png	 H	 l	 l	 n.a.	 2.674439e-01
8	 1	 90	 flanked	 rf	 4	 0.320000	 2.000000	 flanked_rf_freq_4_amplitude_0.32_rep_6_r_N_2.0.png	 N	 r	 r	 n.a.	 1.871713e-01
8	 1	 91	 flanked	 rf	 12	 0.268300	 2.000000	 flanked_rf_freq_12_amplitude_0.2683_rep_2_b_K_2.0.png	 K	 b	 b	 n.a.	 2.531773e-01
8	 1	 92	 flanked	 rf	 4	 0.061700	 2.000000	 flanked_rf_freq_4_amplitude_0.0617_rep_0_r_H_2.0.png	 H	 r	 t	 n.a.	 5.777855e-01
8	 1	 93	 flanked	 rf	 8	 0.113300	 2.000000	 flanked_rf_freq_8_amplitude_0.1133_rep_1_t_N_2.0.png	 N	 t	 b	 n.a.	 4.009116e-01
8	 1	 94	 flanked	 rf	 5	 0.165000	 2.000000	 flanked_rf_freq_5_amplitude_0.165_rep_2_t_D_2.0.png	 D	 t	 b	 n.a.	 3.973107e-01
8	 1	 95	 flanked	 rf	 12	 0.113300	 2.000000	 flanked_rf_freq_12_amplitude_0.1133_rep_9_b_K_2.0.png	 K	 b	 b	 n.a.	 2.747244e-01
8	 1	 96	 flanked	 rf	 12	 0.320000	 2.000000	 flanked_rf_freq_12_amplitude_0.32_rep_9_t_D_2.0.png	 D	 t	 t	 n.a.	 2.789934e-01
8	 1	 97	 flanked	 rf	 3	 0.216700	 2.000000	 flanked_rf_freq_3_amplitude_0.2167_rep_3_t_N_2.0.png	 N	 t	 b	 n.a.	 4.662403e-01
8	 1	 98	 flanked	 rf	 12	 0.216700	 2.000000	 flanked_rf_freq_12_amplitude_0.2167_rep_0_t_K_2.0.png	 K	 t	 t	 n.a.	 3.002389e-01
8	 1	 99	 flanked	 rf	 8	 0.268300	 2.000000	 flanked_rf_freq_8_amplitude_0.2683_rep_6_l_N_2.0.png	 N	 l	 l	 n.a.	 2.104172e-01
8	 1	 100	 flanked	 rf	 3	 0.165000	 2.000000	 flanked_rf_freq_3_amplitude_0.165_rep_6_l_D_2.0.png	 D	 l	 l	 n.a.	 5.489151e-01
8	 1	 101	 flanked	 rf	 4	 0.113300	 2.000000	 flanked_rf_freq_4_amplitude_0.1133_rep_8_b_D_2.0.png	 D	 b	 r	 n.a.	 3.501670e-01
8	 1	 102	 flanked	 rf	 8	 0.113300	 2.000000	 flanked_rf_freq_8_amplitude_0.1133_rep_6_t_H_2.0.png	 H	 t	 t	 n.a.	 2.663663e-01
8	 1	 103	 flanked	 rf	 12	 0.216700	 2.000000	 flanked_rf_freq_12_amplitude_0.2167_rep_4_l_N_2.0.png	 N	 l	 l	 n.a.	 1.752607e-01
8	 1	 104	 flanked	 rf	 8	 0.061700	 2.000000	 flanked_rf_freq_8_amplitude_0.0617_rep_5_b_K_2.0.png	 K	 b	 t	 n.a.	 3.163632e-01
8	 1	 105	 flanked	 rf	 12	 0.061700	 2.000000	 flanked_rf_freq_12_amplitude_0.0617_rep_6_t_N_2.0.png	 N	 t	 t	 n.a.	 3.624034e-01
8	 1	 106	 flanked	 rf	 12	 0.320000	 2.000000	 flanked_rf_freq_12_amplitude_0.32_rep_7_r_H_2.0.png	 H	 r	 r	 n.a.	 2.067367e-01
8	 1	 107	 flanked	 rf	 2	 0.061700	 2.000000	 flanked_rf_freq_2_amplitude_0.0617_rep_8_b_K_2.0.png	 K	 b	 l	 n.a.	 3.818381e-01
8	 1	 108	 flanked	 rf	 3	 0.268300	 2.000000	 flanked_rf_freq_3_amplitude_0.2683_rep_9_r_K_2.0.png	 K	 r	 r	 n.a.	 2.119415e-01
8	 1	 109	 flanked	 rf	 4	 0.216700	 2.000000	 flanked_rf_freq_4_amplitude_0.2167_rep_5_t_D_2.0.png	 D	 t	 t	 n.a.	 2.573301e-01
8	 1	 110	 flanked	 rf	 2	 0.216700	 2.000000	 flanked_rf_freq_2_amplitude_0.2167_rep_3_r_N_2.0.png	 N	 r	 t	 n.a.	 1.913993e-01
8	 1	 111	 flanked	 rf	 8	 0.010000	 2.000000	 flanked_rf_freq_8_amplitude_0.01_rep_6_l_N_2.0.png	 N	 l	 b	 n.a.	 7.051425e-01
8	 1	 112	 flanked	 rf	 2	 0.165000	 2.000000	 flanked_rf_freq_2_amplitude_0.165_rep_4_r_N_2.0.png	 N	 r	 t	 n.a.	 3.694420e-01
8	 1	 113	 flanked	 rf	 12	 0.216700	 2.000000	 flanked_rf_freq_12_amplitude_0.2167_rep_9_b_H_2.0.png	 H	 b	 b	 n.a.	 3.101901e-01
8	 1	 114	 flanked	 rf	 2	 0.268300	 2.000000	 flanked_rf_freq_2_amplitude_0.2683_rep_1_r_H_2.0.png	 H	 r	 r	 n.a.	 3.827505e-01
8	 1	 115	 flanked	 rf	 4	 0.113300	 2.000000	 flanked_rf_freq_4_amplitude_0.1133_rep_5_l_K_2.0.png	 K	 l	 t	 n.a.	 4.876327e-01
8	 1	 116	 flanked	 rf	 3	 0.010000	 2.000000	 flanked_rf_freq_3_amplitude_0.01_rep_5_t_N_2.0.png	 N	 t	 r	 n.a.	 3.833803e-01
8	 1	 117	 flanked	 rf	 2	 0.216700	 2.000000	 flanked_rf_freq_2_amplitude_0.2167_rep_9_t_N_2.0.png	 N	 t	 b	 n.a.	 4.490306e-01
8	 1	 118	 flanked	 rf	 12	 0.010000	 2.000000	 flanked_rf_freq_12_amplitude_0.01_rep_3_l_K_2.0.png	 K	 l	 b	 n.a.	 2.988416e-01
8	 1	 119	 flanked	 rf	 4	 0.320000	 2.000000	 flanked_rf_freq_4_amplitude_0.32_rep_4_r_K_2.0.png	 K	 r	 r	 n.a.	 2.566219e-01
8	 1	 120	 flanked	 rf	 5	 0.113300	 2.000000	 flanked_rf_freq_5_amplitude_0.1133_rep_6_l_D_2.0.png	 D	 l	 t	 n.a.	 4.454969e-01
8	 1	 121	 flanked	 rf	 8	 0.010000	 2.000000	 flanked_rf_freq_8_amplitude_0.01_rep_8_t_K_2.0.png	 K	 t	 b	 n.a.	 6.248640e-01
8	 1	 122	 flanked	 rf	 2	 0.010000	 2.000000	 flanked_rf_freq_2_amplitude_0.01_rep_8_t_H_2.0.png	 H	 t	 b	 n.a.	 2.573078e-01
8	 1	 123	 flanked	 rf	 2	 0.165000	 2.000000	 flanked_rf_freq_2_amplitude_0.165_rep_0_t_N_2.0.png	 N	 t	 t	 n.a.	 3.993121e-01
8	 1	 124	 flanked	 rf	 2	 0.010000	 2.000000	 flanked_rf_freq_2_amplitude_0.01_rep_9_b_K_2.0.png	 K	 b	 b	 n.a.	 3.727599e-01
8	 1	 125	 flanked	 rf	 3	 0.061700	 2.000000	 flanked_rf_freq_3_amplitude_0.0617_rep_4_r_N_2.0.png	 N	 r	 t	 n.a.	 4.359692e-01
8	 1	 126	 flanked	 rf	 5	 0.216700	 2.000000	 flanked_rf_freq_5_amplitude_0.2167_rep_2_r_K_2.0.png	 K	 r	 r	 n.a.	 2.491091e-01
8	 1	 127	 flanked	 rf	 12	 0.268300	 2.000000	 flanked_rf_freq_12_amplitude_0.2683_rep_0_t_N_2.0.png	 N	 t	 t	 n.a.	 2.694263e-01
8	 1	 128	 flanked	 rf	 8	 0.165000	 2.000000	 flanked_rf_freq_8_amplitude_0.165_rep_4_l_H_2.0.png	 H	 l	 l	 n.a.	 2.768817e-01
8	 1	 129	 flanked	 rf	 12	 0.216700	 2.000000	 flanked_rf_freq_12_amplitude_0.2167_rep_7_r_H_2.0.png	 H	 r	 r	 n.a.	 2.122441e-01
8	 1	 130	 flanked	 rf	 3	 0.216700	 2.000000	 flanked_rf_freq_3_amplitude_0.2167_rep_8_t_K_2.0.png	 K	 t	 t	 n.a.	 2.775090e-01
8	 1	 131	 flanked	 rf	 4	 0.010000	 2.000000	 flanked_rf_freq_4_amplitude_0.01_rep_0_l_D_2.0.png	 D	 l	 r	 n.a.	 5.183171e-01
8	 1	 132	 flanked	 rf	 5	 0.268300	 2.000000	 flanked_rf_freq_5_amplitude_0.2683_rep_2_t_H_2.0.png	 H	 t	 b	 n.a.	 2.618857e-01
8	 1	 133	 flanked	 rf	 4	 0.113300	 2.000000	 flanked_rf_freq_4_amplitude_0.1133_rep_6_l_D_2.0.png	 D	 l	 t	 n.a.	 2.753831e-01
8	 1	 134	 flanked	 rf	 4	 0.010000	 2.000000	 flanked_rf_freq_4_amplitude_0.01_rep_2_b_H_2.0.png	 H	 b	 b	 n.a.	 4.022762e-01
8	 1	 135	 flanked	 rf	 2	 0.320000	 2.000000	 flanked_rf_freq_2_amplitude_0.32_rep_1_r_H_2.0.png	 H	 r	 t	 n.a.	 2.732895e-01
8	 1	 136	 flanked	 rf	 2	 0.320000	 2.000000	 flanked_rf_freq_2_amplitude_0.32_rep_5_b_H_2.0.png	 H	 b	 b	 n.a.	 3.773722e-01
8	 1	 137	 flanked	 rf	 3	 0.320000	 2.000000	 flanked_rf_freq_3_amplitude_0.32_rep_6_l_H_2.0.png	 H	 l	 l	 n.a.	 3.717849e-01
8	 1	 138	 flanked	 rf	 4	 0.165000	 2.000000	 flanked_rf_freq_4_amplitude_0.165_rep_3_r_H_2.0.png	 H	 r	 r	 n.a.	 5.353645e-01
8	 1	 139	 flanked	 rf	 3	 0.320000	 2.000000	 flanked_rf_freq_3_amplitude_0.32_rep_1_t_H_2.0.png	 H	 t	 t	 n.a.	 3.473611e-01
8	 1	 140	 flanked	 rf	 3	 0.320000	 2.000000	 flanked_rf_freq_3_amplitude_0.32_rep_5_b_H_2.0.png	 H	 b	 b	 n.a.	 2.653131e-01
8	 1	 141	 flanked	 rf	 8	 0.216700	 2.000000	 flanked_rf_freq_8_amplitude_0.2167_rep_9_r_D_2.0.png	 D	 r	 r	 n.a.	 5.906971e-01
8	 1	 142	 flanked	 rf	 3	 0.010000	 2.000000	 flanked_rf_freq_3_amplitude_0.01_rep_2_t_D_2.0.png	 D	 t	 r	 n.a.	 7.512985e-01
8	 1	 143	 flanked	 rf	 2	 0.010000	 2.000000	 flanked_rf_freq_2_amplitude_0.01_rep_1_b_N_2.0.png	 N	 b	 t	 n.a.	 3.399534e-01
8	 1	 144	 flanked	 rf	 12	 0.061700	 2.000000	 flanked_rf_freq_12_amplitude_0.0617_rep_7_b_N_2.0.png	 N	 b	 b	 n.a.	 4.987257e-01
8	 1	 145	 flanked	 rf	 12	 0.165000	 2.000000	 flanked_rf_freq_12_amplitude_0.165_rep_4_t_N_2.0.png	 N	 t	 l	 n.a.	 6.904140e-01
8	 1	 146	 flanked	 rf	 3	 0.113300	 2.000000	 flanked_rf_freq_3_amplitude_0.1133_rep_7_r_D_2.0.png	 D	 r	 b	 n.a.	 3.304398e-01
8	 1	 147	 flanked	 rf	 12	 0.268300	 2.000000	 flanked_rf_freq_12_amplitude_0.2683_rep_7_l_H_2.0.png	 H	 l	 l	 n.a.	 1.944149e-01
8	 1	 148	 flanked	 rf	 3	 0.216700	 2.000000	 flanked_rf_freq_3_amplitude_0.2167_rep_5_b_N_2.0.png	 N	 b	 b	 n.a.	 4.622553e-01
8	 1	 149	 flanked	 rf	 8	 0.165000	 2.000000	 flanked_rf_freq_8_amplitude_0.165_rep_3_l_K_2.0.png	 K	 l	 l	 n.a.	 3.003175e-01
8	 1	 150	 flanked	 rf	 8	 0.113300	 2.000000	 flanked_rf_freq_8_amplitude_0.1133_rep_7_r_D_2.0.png	 D	 r	 r	 n.a.	 1.713357e-01
8	 1	 151	 flanked	 rf	 12	 0.216700	 2.000000	 flanked_rf_freq_12_amplitude_0.2167_rep_3_t_D_2.0.png	 D	 t	 t	 n.a.	 2.377060e-01
8	 1	 152	 flanked	 rf	 8	 0.268300	 2.000000	 flanked_rf_freq_8_amplitude_0.2683_rep_3_b_K_2.0.png	 K	 b	 b	 n.a.	 3.090825e-01
8	 1	 153	 flanked	 rf	 4	 0.165000	 2.000000	 flanked_rf_freq_4_amplitude_0.165_rep_1_l_N_2.0.png	 N	 l	 l	 n.a.	 2.504849e-01
8	 1	 154	 flanked	 rf	 3	 0.113300	 2.000000	 flanked_rf_freq_3_amplitude_0.1133_rep_3_t_N_2.0.png	 N	 t	 b	 n.a.	 4.316334e-01
8	 1	 155	 flanked	 rf	 8	 0.165000	 2.000000	 flanked_rf_freq_8_amplitude_0.165_rep_7_t_D_2.0.png	 D	 t	 t	 n.a.	 2.644277e-01
8	 1	 156	 flanked	 rf	 3	 0.320000	 2.000000	 flanked_rf_freq_3_amplitude_0.32_rep_7_r_D_2.0.png	 D	 r	 r	 n.a.	 2.777446e-01
8	 1	 157	 flanked	 rf	 3	 0.268300	 2.000000	 flanked_rf_freq_3_amplitude_0.2683_rep_1_r_N_2.0.png	 N	 r	 t	 n.a.	 3.563448e-01
8	 1	 158	 flanked	 rf	 2	 0.268300	 2.000000	 flanked_rf_freq_2_amplitude_0.2683_rep_9_b_H_2.0.png	 H	 b	 b	 n.a.	 4.337567e-01
8	 1	 159	 flanked	 rf	 12	 0.061700	 2.000000	 flanked_rf_freq_12_amplitude_0.0617_rep_5_t_K_2.0.png	 K	 t	 t	 n.a.	 3.789003e-01
8	 1	 160	 flanked	 rf	 4	 0.061700	 2.000000	 flanked_rf_freq_4_amplitude_0.0617_rep_2_t_N_2.0.png	 N	 t	 l	 n.a.	 7.220188e-01
8	 1	 161	 flanked	 rf	 8	 0.010000	 2.000000	 flanked_rf_freq_8_amplitude_0.01_rep_3_t_K_2.0.png	 K	 t	 t	 n.a.	 3.352824e-01
8	 1	 162	 flanked	 rf	 8	 0.010000	 2.000000	 flanked_rf_freq_8_amplitude_0.01_rep_9_b_K_2.0.png	 K	 b	 l	 n.a.	 5.672024e-01
8	 1	 163	 flanked	 rf	 12	 0.061700	 2.000000	 flanked_rf_freq_12_amplitude_0.0617_rep_1_r_K_2.0.png	 K	 r	 r	 n.a.	 1.995431e-01
8	 1	 164	 flanked	 rf	 8	 0.113300	 2.000000	 flanked_rf_freq_8_amplitude_0.1133_rep_8_r_K_2.0.png	 K	 r	 r	 n.a.	 2.382121e-01
8	 1	 165	 flanked	 rf	 3	 0.268300	 2.000000	 flanked_rf_freq_3_amplitude_0.2683_rep_8_l_H_2.0.png	 H	 l	 b	 n.a.	 5.878676e-01
8	 1	 166	 flanked	 rf	 2	 0.268300	 2.000000	 flanked_rf_freq_2_amplitude_0.2683_rep_6_b_N_2.0.png	 N	 b	 l	 n.a.	 4.781083e-01
8	 1	 167	 flanked	 rf	 2	 0.165000	 2.000000	 flanked_rf_freq_2_amplitude_0.165_rep_6_l_H_2.0.png	 H	 l	 r	 n.a.	 4.875680e-01
8	 1	 168	 flanked	 rf	 2	 0.165000	 2.000000	 flanked_rf_freq_2_amplitude_0.165_rep_8_l_H_2.0.png	 H	 l	 b	 n.a.	 3.776208e-01
8	 1	 169	 flanked	 rf	 8	 0.061700	 2.000000	 flanked_rf_freq_8_amplitude_0.0617_rep_0_r_N_2.0.png	 N	 r	 r	 n.a.	 3.320310e-01
8	 1	 170	 flanked	 rf	 4	 0.320000	 2.000000	 flanked_rf_freq_4_amplitude_0.32_rep_3_t_H_2.0.png	 H	 t	 t	 n.a.	 2.713900e-01
8	 1	 171	 flanked	 rf	 2	 0.216700	 2.000000	 flanked_rf_freq_2_amplitude_0.2167_rep_5_l_H_2.0.png	 H	 l	 l	 n.a.	 3.985029e-01
8	 1	 172	 flanked	 rf	 5	 0.061700	 2.000000	 flanked_rf_freq_5_amplitude_0.0617_rep_7_t_D_2.0.png	 D	 t	 b	 n.a.	 4.802563e-01
8	 1	 173	 flanked	 rf	 5	 0.216700	 2.000000	 flanked_rf_freq_5_amplitude_0.2167_rep_3_r_N_2.0.png	 N	 r	 r	 n.a.	 1.776539e-01
8	 1	 174	 flanked	 rf	 4	 0.268300	 2.000000	 flanked_rf_freq_4_amplitude_0.2683_rep_7_b_D_2.0.png	 D	 b	 b	 n.a.	 6.584998e-01
8	 1	 175	 flanked	 rf	 8	 0.165000	 2.000000	 flanked_rf_freq_8_amplitude_0.165_rep_0_b_H_2.0.png	 H	 b	 b	 n.a.	 2.996769e-01
8	 1	 176	 flanked	 rf	 2	 0.010000	 2.000000	 flanked_rf_freq_2_amplitude_0.01_rep_3_b_K_2.0.png	 K	 b	 l	 n.a.	 4.432574e-01
8	 1	 177	 flanked	 rf	 4	 0.320000	 2.000000	 flanked_rf_freq_4_amplitude_0.32_rep_7_r_D_2.0.png	 D	 r	 r	 n.a.	 2.251529e-01
8	 1	 178	 flanked	 rf	 5	 0.010000	 2.000000	 flanked_rf_freq_5_amplitude_0.01_rep_7_r_H_2.0.png	 H	 r	 b	 n.a.	 6.343393e-01
8	 1	 179	 flanked	 rf	 3	 0.320000	 2.000000	 flanked_rf_freq_3_amplitude_0.32_rep_9_t_N_2.0.png	 N	 t	 t	 n.a.	 3.790127e-01
8	 1	 180	 flanked	 rf	 4	 0.061700	 2.000000	 flanked_rf_freq_4_amplitude_0.0617_rep_4_b_D_2.0.png	 D	 b	 l	 n.a.	 5.387777e-01
8	 1	 181	 flanked	 rf	 2	 0.113300	 2.000000	 flanked_rf_freq_2_amplitude_0.1133_rep_2_l_K_2.0.png	 K	 l	 r	 n.a.	 6.734929e-01
8	 1	 182	 flanked	 rf	 12	 0.113300	 2.000000	 flanked_rf_freq_12_amplitude_0.1133_rep_5_r_D_2.0.png	 D	 r	 r	 n.a.	 2.425362e-01
8	 1	 183	 flanked	 rf	 5	 0.010000	 2.000000	 flanked_rf_freq_5_amplitude_0.01_rep_1_r_K_2.0.png	 K	 r	 b	 n.a.	 5.510158e-01
8	 1	 184	 flanked	 rf	 3	 0.268300	 2.000000	 flanked_rf_freq_3_amplitude_0.2683_rep_3_l_H_2.0.png	 H	 l	 l	 n.a.	 3.265266e-01
8	 1	 185	 flanked	 rf	 2	 0.061700	 2.000000	 flanked_rf_freq_2_amplitude_0.0617_rep_6_t_H_2.0.png	 H	 t	 b	 n.a.	 8.902407e-01
8	 1	 186	 flanked	 rf	 5	 0.320000	 2.000000	 flanked_rf_freq_5_amplitude_0.32_rep_7_t_D_2.0.png	 D	 t	 t	 n.a.	 3.103212e-01
8	 1	 187	 flanked	 rf	 2	 0.113300	 2.000000	 flanked_rf_freq_2_amplitude_0.1133_rep_9_l_H_2.0.png	 H	 l	 l	 n.a.	 4.377606e-01
8	 1	 188	 flanked	 rf	 5	 0.113300	 2.000000	 flanked_rf_freq_5_amplitude_0.1133_rep_5_b_D_2.0.png	 D	 b	 b	 n.a.	 4.048616e-01
8	 1	 189	 flanked	 rf	 3	 0.268300	 2.000000	 flanked_rf_freq_3_amplitude_0.2683_rep_0_b_K_2.0.png	 K	 b	 t	 n.a.	 3.591835e-01
8	 1	 190	 flanked	 rf	 5	 0.268300	 2.000000	 flanked_rf_freq_5_amplitude_0.2683_rep_7_r_K_2.0.png	 K	 r	 r	 n.a.	 1.914839e-01
8	 1	 191	 flanked	 rf	 4	 0.216700	 2.000000	 flanked_rf_freq_4_amplitude_0.2167_rep_7_b_K_2.0.png	 K	 b	 b	 n.a.	 5.739123e-01
8	 1	 192	 flanked	 rf	 12	 0.010000	 2.000000	 flanked_rf_freq_12_amplitude_0.01_rep_0_t_D_2.0.png	 D	 t	 b	 n.a.	 5.589556e-01
8	 1	 193	 flanked	 rf	 8	 0.320000	 2.000000	 flanked_rf_freq_8_amplitude_0.32_rep_0_l_H_2.0.png	 H	 l	 l	 n.a.	 1.852415e-01
8	 1	 194	 flanked	 rf	 12	 0.165000	 2.000000	 flanked_rf_freq_12_amplitude_0.165_rep_2_b_N_2.0.png	 N	 b	 b	 n.a.	 3.129933e-01
8	 1	 195	 flanked	 rf	 4	 0.320000	 2.000000	 flanked_rf_freq_4_amplitude_0.32_rep_1_t_K_2.0.png	 K	 t	 t	 n.a.	 2.221063e-01
8	 1	 196	 flanked	 rf	 2	 0.010000	 2.000000	 flanked_rf_freq_2_amplitude_0.01_rep_2_r_N_2.0.png	 N	 r	 l	 n.a.	 3.832694e-01
8	 1	 197	 flanked	 rf	 4	 0.010000	 2.000000	 flanked_rf_freq_4_amplitude_0.01_rep_5_l_H_2.0.png	 H	 l	 t	 n.a.	 3.474730e-01
8	 1	 198	 flanked	 rf	 8	 0.113300	 2.000000	 flanked_rf_freq_8_amplitude_0.1133_rep_5_b_H_2.0.png	 H	 b	 r	 n.a.	 2.115026e-01
8	 1	 199	 flanked	 rf	 5	 0.113300	 2.000000	 flanked_rf_freq_5_amplitude_0.1133_rep_4_l_K_2.0.png	 K	 l	 b	 n.a.	 7.817697e-01
8	 1	 200	 flanked	 rf	 3	 0.010000	 2.000000	 flanked_rf_freq_3_amplitude_0.01_rep_8_b_H_2.0.png	 H	 b	 b	 n.a.	 4.983543e-01
8	 1	 201	 flanked	 rf	 8	 0.216700	 2.000000	 flanked_rf_freq_8_amplitude_0.2167_rep_2_l_D_2.0.png	 D	 l	 l	 n.a.	 2.870178e-01
8	 1	 202	 flanked	 rf	 8	 0.216700	 2.000000	 flanked_rf_freq_8_amplitude_0.2167_rep_8_b_K_2.0.png	 K	 b	 b	 n.a.	 2.859522e-01
8	 1	 203	 flanked	 rf	 4	 0.320000	 2.000000	 flanked_rf_freq_4_amplitude_0.32_rep_9_b_K_2.0.png	 K	 b	 b	 n.a.	 3.111621e-01
8	 1	 204	 flanked	 rf	 5	 0.320000	 2.000000	 flanked_rf_freq_5_amplitude_0.32_rep_0_l_K_2.0.png	 K	 l	 l	 n.a.	 2.669655e-01
8	 1	 205	 flanked	 rf	 8	 0.113300	 2.000000	 flanked_rf_freq_8_amplitude_0.1133_rep_9_r_H_2.0.png	 H	 r	 r	 n.a.	 2.618426e-01
8	 1	 206	 flanked	 rf	 8	 0.268300	 2.000000	 flanked_rf_freq_8_amplitude_0.2683_rep_2_l_N_2.0.png	 N	 l	 l	 n.a.	 2.138839e-01
8	 1	 207	 flanked	 rf	 5	 0.216700	 2.000000	 flanked_rf_freq_5_amplitude_0.2167_rep_6_t_K_2.0.png	 K	 t	 b	 n.a.	 3.176693e-01
8	 1	 208	 flanked	 rf	 8	 0.216700	 2.000000	 flanked_rf_freq_8_amplitude_0.2167_rep_1_b_D_2.0.png	 D	 b	 l	 n.a.	 1.964358e-01
8	 1	 209	 flanked	 rf	 12	 0.320000	 2.000000	 flanked_rf_freq_12_amplitude_0.32_rep_4_r_D_2.0.png	 D	 r	 r	 n.a.	 2.140556e-01
8	 1	 210	 flanked	 rf	 2	 0.268300	 2.000000	 flanked_rf_freq_2_amplitude_0.2683_rep_7_r_N_2.0.png	 N	 r	 b	 n.a.	 5.123831e-01
8	 1	 211	 flanked	 rf	 8	 0.268300	 2.000000	 flanked_rf_freq_8_amplitude_0.2683_rep_4_b_H_2.0.png	 H	 b	 b	 n.a.	 3.985270e-01
8	 1	 212	 flanked	 rf	 3	 0.165000	 2.000000	 flanked_rf_freq_3_amplitude_0.165_rep_9_l_K_2.0.png	 K	 l	 t	 n.a.	 4.102371e-01
8	 1	 213	 flanked	 rf	 8	 0.320000	 2.000000	 flanked_rf_freq_8_amplitude_0.32_rep_2_r_H_2.0.png	 H	 r	 r	 n.a.	 1.735815e-01
8	 1	 214	 flanked	 rf	 5	 0.268300	 2.000000	 flanked_rf_freq_5_amplitude_0.2683_rep_9_t_H_2.0.png	 H	 t	 t	 n.a.	 3.898801e-01
8	 1	 215	 flanked	 rf	 4	 0.216700	 2.000000	 flanked_rf_freq_4_amplitude_0.2167_rep_2_t_N_2.0.png	 N	 t	 b	 n.a.	 3.400510e-01
8	 1	 216	 flanked	 rf	 2	 0.320000	 2.000000	 flanked_rf_freq_2_amplitude_0.32_rep_0_t_H_2.0.png	 H	 t	 t	 n.a.	 2.695701e-01
8	 1	 217	 flanked	 rf	 5	 0.061700	 2.000000	 flanked_rf_freq_5_amplitude_0.0617_rep_3_b_N_2.0.png	 N	 b	 t	 n.a.	 3.885613e-01
8	 1	 218	 flanked	 rf	 2	 0.113300	 2.000000	 flanked_rf_freq_2_amplitude_0.1133_rep_6_b_N_2.0.png	 N	 b	 b	 n.a.	 4.409448e-01
8	 1	 219	 flanked	 rf	 2	 0.113300	 2.000000	 flanked_rf_freq_2_amplitude_0.1133_rep_3_b_K_2.0.png	 K	 b	 b	 n.a.	 4.021619e-01
8	 1	 220	 flanked	 rf	 8	 0.320000	 2.000000	 flanked_rf_freq_8_amplitude_0.32_rep_4_b_D_2.0.png	 D	 b	 b	 n.a.	 2.288594e-01
8	 1	 221	 flanked	 rf	 3	 0.061700	 2.000000	 flanked_rf_freq_3_amplitude_0.0617_rep_1_b_H_2.0.png	 H	 b	 t	 n.a.	 2.767231e-01
8	 1	 222	 flanked	 rf	 8	 0.010000	 2.000000	 flanked_rf_freq_8_amplitude_0.01_rep_0_t_H_2.0.png	 H	 t	 t	 n.a.	 3.822125e-01
8	 1	 223	 flanked	 rf	 4	 0.010000	 2.000000	 flanked_rf_freq_4_amplitude_0.01_rep_4_t_D_2.0.png	 D	 t	 l	 n.a.	 6.273103e-01
8	 1	 224	 flanked	 rf	 3	 0.268300	 2.000000	 flanked_rf_freq_3_amplitude_0.2683_rep_7_b_N_2.0.png	 N	 b	 b	 n.a.	 3.649776e-01
8	 1	 225	 flanked	 rf	 12	 0.165000	 2.000000	 flanked_rf_freq_12_amplitude_0.165_rep_1_r_H_2.0.png	 H	 r	 r	 n.a.	 2.284198e-01
8	 1	 226	 flanked	 rf	 3	 0.010000	 2.000000	 flanked_rf_freq_3_amplitude_0.01_rep_0_t_N_2.0.png	 N	 t	 b	 n.a.	 3.607269e-01
8	 1	 227	 flanked	 rf	 8	 0.268300	 2.000000	 flanked_rf_freq_8_amplitude_0.2683_rep_1_r_H_2.0.png	 H	 r	 r	 n.a.	 1.771094e-01
8	 1	 228	 flanked	 rf	 3	 0.268300	 2.000000	 flanked_rf_freq_3_amplitude_0.2683_rep_6_r_D_2.0.png	 D	 r	 r	 n.a.	 4.214487e-01
8	 1	 229	 flanked	 rf	 5	 0.061700	 2.000000	 flanked_rf_freq_5_amplitude_0.0617_rep_6_b_D_2.0.png	 D	 b	 l	 n.a.	 7.161034e-01
8	 1	 230	 flanked	 rf	 8	 0.010000	 2.000000	 flanked_rf_freq_8_amplitude_0.01_rep_2_b_D_2.0.png	 D	 b	 t	 n.a.	 3.615369e-01
8	 1	 231	 flanked	 rf	 12	 0.216700	 2.000000	 flanked_rf_freq_12_amplitude_0.2167_rep_1_l_N_2.0.png	 N	 l	 l	 n.a.	 2.190961e-01
8	 1	 232	 flanked	 rf	 3	 0.010000	 2.000000	 flanked_rf_freq_3_amplitude_0.01_rep_3_l_D_2.0.png	 D	 l	 t	 n.a.	 3.564700e-01
8	 1	 233	 flanked	 rf	 5	 0.165000	 2.000000	 flanked_rf_freq_5_amplitude_0.165_rep_3_b_D_2.0.png	 D	 b	 t	 n.a.	 4.637807e-01
8	 1	 234	 flanked	 rf	 5	 0.268300	 2.000000	 flanked_rf_freq_5_amplitude_0.2683_rep_4_t_N_2.0.png	 N	 t	 l	 n.a.	 4.652546e-01
8	 1	 235	 flanked	 rf	 2	 0.268300	 2.000000	 flanked_rf_freq_2_amplitude_0.2683_rep_2_b_N_2.0.png	 N	 b	 b	 n.a.	 4.170065e-01
8	 1	 236	 flanked	 rf	 3	 0.320000	 2.000000	 flanked_rf_freq_3_amplitude_0.32_rep_2_l_H_2.0.png	 H	 l	 l	 n.a.	 3.497598e-01
8	 1	 237	 flanked	 rf	 8	 0.320000	 2.000000	 flanked_rf_freq_8_amplitude_0.32_rep_9_l_H_2.0.png	 H	 l	 l	 n.a.	 2.481672e-01
8	 1	 238	 flanked	 rf	 12	 0.010000	 2.000000	 flanked_rf_freq_12_amplitude_0.01_rep_2_t_K_2.0.png	 K	 t	 t	 n.a.	 5.103884e-01
8	 1	 239	 flanked	 rf	 4	 0.268300	 2.000000	 flanked_rf_freq_4_amplitude_0.2683_rep_3_l_N_2.0.png	 N	 l	 l	 n.a.	 2.515110e-01
8	 1	 240	 flanked	 rf	 3	 0.061700	 2.000000	 flanked_rf_freq_3_amplitude_0.0617_rep_8_t_H_2.0.png	 H	 t	 b	 n.a.	 5.613422e-01
8	 1	 241	 flanked	 rf	 3	 0.320000	 2.000000	 flanked_rf_freq_3_amplitude_0.32_rep_3_r_N_2.0.png	 N	 r	 r	 n.a.	 2.175001e-01
8	 1	 242	 flanked	 rf	 2	 0.061700	 2.000000	 flanked_rf_freq_2_amplitude_0.0617_rep_3_b_N_2.0.png	 N	 b	 r	 n.a.	 4.842325e-01
8	 1	 243	 flanked	 rf	 12	 0.010000	 2.000000	 flanked_rf_freq_12_amplitude_0.01_rep_4_b_N_2.0.png	 N	 b	 b	 n.a.	 6.637803e-01
8	 1	 244	 flanked	 rf	 2	 0.216700	 2.000000	 flanked_rf_freq_2_amplitude_0.2167_rep_1_r_K_2.0.png	 K	 r	 t	 n.a.	 5.256242e-01
8	 1	 245	 flanked	 rf	 3	 0.320000	 2.000000	 flanked_rf_freq_3_amplitude_0.32_rep_8_t_H_2.0.png	 H	 t	 l	 n.a.	 5.870830e-01
8	 1	 246	 flanked	 rf	 2	 0.061700	 2.000000	 flanked_rf_freq_2_amplitude_0.0617_rep_2_t_K_2.0.png	 K	 t	 t	 n.a.	 2.418960e-01
8	 1	 247	 flanked	 rf	 4	 0.010000	 2.000000	 flanked_rf_freq_4_amplitude_0.01_rep_6_r_H_2.0.png	 H	 r	 t	 n.a.	 7.258612e-01
8	 1	 248	 flanked	 rf	 2	 0.320000	 2.000000	 flanked_rf_freq_2_amplitude_0.32_rep_4_b_N_2.0.png	 N	 b	 b	 n.a.	 4.185727e-01
8	 1	 249	 flanked	 rf	 8	 0.061700	 2.000000	 flanked_rf_freq_8_amplitude_0.0617_rep_2_r_K_2.0.png	 K	 r	 t	 n.a.	 5.095867e-01
8	 1	 250	 flanked	 rf	 4	 0.113300	 2.000000	 flanked_rf_freq_4_amplitude_0.1133_rep_2_t_D_2.0.png	 D	 t	 t	 n.a.	 8.387897e-01
8	 1	 251	 flanked	 rf	 5	 0.216700	 2.000000	 flanked_rf_freq_5_amplitude_0.2167_rep_0_t_K_2.0.png	 K	 t	 t	 n.a.	 3.372838e-01
8	 1	 252	 flanked	 rf	 5	 0.061700	 2.000000	 flanked_rf_freq_5_amplitude_0.0617_rep_4_l_D_2.0.png	 D	 l	 b	 n.a.	 6.245508e-01
8	 1	 253	 flanked	 rf	 5	 0.320000	 2.000000	 flanked_rf_freq_5_amplitude_0.32_rep_2_t_D_2.0.png	 D	 t	 t	 n.a.	 2.262145e-01
8	 1	 254	 flanked	 rf	 12	 0.165000	 2.000000	 flanked_rf_freq_12_amplitude_0.165_rep_6_l_H_2.0.png	 H	 l	 l	 n.a.	 2.767436e-01
8	 1	 255	 flanked	 rf	 3	 0.113300	 2.000000	 flanked_rf_freq_3_amplitude_0.1133_rep_0_b_K_2.0.png	 K	 b	 b	 n.a.	 4.392359e-01
8	 1	 256	 flanked	 rf	 12	 0.165000	 2.000000	 flanked_rf_freq_12_amplitude_0.165_rep_5_l_K_2.0.png	 K	 l	 l	 n.a.	 2.402536e-01
8	 1	 257	 flanked	 rf	 12	 0.165000	 2.000000	 flanked_rf_freq_12_amplitude_0.165_rep_3_l_N_2.0.png	 N	 l	 l	 n.a.	 3.546147e-01
8	 1	 258	 flanked	 rf	 4	 0.320000	 2.000000	 flanked_rf_freq_4_amplitude_0.32_rep_2_r_H_2.0.png	 H	 r	 r	 n.a.	 2.791786e-01
8	 1	 259	 flanked	 rf	 3	 0.216700	 2.000000	 flanked_rf_freq_3_amplitude_0.2167_rep_6_b_D_2.0.png	 D	 b	 b	 n.a.	 4.462748e-01
8	 1	 260	 flanked	 rf	 8	 0.216700	 2.000000	 flanked_rf_freq_8_amplitude_0.2167_rep_5_l_H_2.0.png	 H	 l	 l	 n.a.	 2.777727e-01
8	 1	 261	 flanked	 rf	 8	 0.061700	 2.000000	 flanked_rf_freq_8_amplitude_0.0617_rep_9_b_K_2.0.png	 K	 b	 b	 n.a.	 6.240851e-01
8	 1	 262	 flanked	 rf	 8	 0.216700	 2.000000	 flanked_rf_freq_8_amplitude_0.2167_rep_3_l_K_2.0.png	 K	 l	 l	 n.a.	 2.460283e-01
8	 1	 263	 flanked	 rf	 8	 0.268300	 2.000000	 flanked_rf_freq_8_amplitude_0.2683_rep_9_t_H_2.0.png	 H	 t	 t	 n.a.	 2.854024e-01
8	 1	 264	 flanked	 rf	 5	 0.061700	 2.000000	 flanked_rf_freq_5_amplitude_0.0617_rep_2_l_K_2.0.png	 K	 l	 l	 n.a.	 3.144714e-01
8	 1	 265	 flanked	 rf	 4	 0.061700	 2.000000	 flanked_rf_freq_4_amplitude_0.0617_rep_3_r_K_2.0.png	 K	 r	 t	 n.a.	 4.048744e-01
8	 1	 266	 flanked	 rf	 4	 0.165000	 2.000000	 flanked_rf_freq_4_amplitude_0.165_rep_5_b_K_2.0.png	 K	 b	 b	 n.a.	 5.421119e-01
8	 1	 267	 flanked	 rf	 5	 0.165000	 2.000000	 flanked_rf_freq_5_amplitude_0.165_rep_7_b_N_2.0.png	 N	 b	 l	 n.a.	 6.101000e-01
8	 1	 268	 flanked	 rf	 3	 0.061700	 2.000000	 flanked_rf_freq_3_amplitude_0.0617_rep_2_t_K_2.0.png	 K	 t	 t	 n.a.	 3.738867e-01
8	 1	 269	 flanked	 rf	 2	 0.216700	 2.000000	 flanked_rf_freq_2_amplitude_0.2167_rep_0_t_N_2.0.png	 N	 t	 t	 n.a.	 5.101849e-01
8	 1	 270	 flanked	 rf	 4	 0.010000	 2.000000	 flanked_rf_freq_4_amplitude_0.01_rep_7_l_K_2.0.png	 K	 l	 t	 n.a.	 7.736558e-01
8	 1	 271	 flanked	 rf	 12	 0.061700	 2.000000	 flanked_rf_freq_12_amplitude_0.0617_rep_3_t_N_2.0.png	 N	 t	 t	 n.a.	 2.839964e-01
8	 1	 272	 flanked	 rf	 4	 0.061700	 2.000000	 flanked_rf_freq_4_amplitude_0.0617_rep_9_t_N_2.0.png	 N	 t	 t	 n.a.	 9.961844e-01
8	 1	 273	 flanked	 rf	 12	 0.320000	 2.000000	 flanked_rf_freq_12_amplitude_0.32_rep_2_t_D_2.0.png	 D	 t	 t	 n.a.	 2.168439e-01
8	 1	 274	 flanked	 rf	 5	 0.061700	 2.000000	 flanked_rf_freq_5_amplitude_0.0617_rep_0_b_H_2.0.png	 H	 b	 t	 n.a.	 6.690047e-01
8	 1	 275	 flanked	 rf	 3	 0.113300	 2.000000	 flanked_rf_freq_3_amplitude_0.1133_rep_1_t_K_2.0.png	 K	 t	 t	 n.a.	 6.090136e-01
8	 1	 276	 flanked	 rf	 5	 0.010000	 2.000000	 flanked_rf_freq_5_amplitude_0.01_rep_9_r_D_2.0.png	 D	 r	 b	 n.a.	 6.054151e-01
8	 1	 277	 flanked	 rf	 12	 0.216700	 2.000000	 flanked_rf_freq_12_amplitude_0.2167_rep_8_t_N_2.0.png	 N	 t	 t	 n.a.	 2.249515e-01
8	 1	 278	 flanked	 rf	 8	 0.165000	 2.000000	 flanked_rf_freq_8_amplitude_0.165_rep_1_b_K_2.0.png	 K	 b	 t	 n.a.	 5.021709e-01
8	 1	 279	 flanked	 rf	 2	 0.320000	 2.000000	 flanked_rf_freq_2_amplitude_0.32_rep_8_r_H_2.0.png	 H	 r	 t	 n.a.	 2.558276e-01
8	 1	 280	 flanked	 rf	 12	 0.010000	 2.000000	 flanked_rf_freq_12_amplitude_0.01_rep_1_l_D_2.0.png	 D	 l	 l	 n.a.	 6.880485e-01
8	 1	 281	 flanked	 rf	 8	 0.061700	 2.000000	 flanked_rf_freq_8_amplitude_0.0617_rep_6_b_N_2.0.png	 N	 b	 b	 n.a.	 5.594076e-01
8	 1	 282	 flanked	 rf	 5	 0.010000	 2.000000	 flanked_rf_freq_5_amplitude_0.01_rep_0_l_H_2.0.png	 H	 l	 b	 n.a.	 4.386623e-01
8	 1	 283	 flanked	 rf	 5	 0.320000	 2.000000	 flanked_rf_freq_5_amplitude_0.32_rep_9_r_N_2.0.png	 N	 r	 r	 n.a.	 4.197782e-01
8	 1	 284	 flanked	 rf	 4	 0.165000	 2.000000	 flanked_rf_freq_4_amplitude_0.165_rep_6_r_K_2.0.png	 K	 r	 t	 n.a.	 3.862593e-01
8	 1	 285	 flanked	 rf	 4	 0.320000	 2.000000	 flanked_rf_freq_4_amplitude_0.32_rep_0_b_N_2.0.png	 N	 b	 t	 n.a.	 4.004611e-01
8	 1	 286	 flanked	 rf	 12	 0.268300	 2.000000	 flanked_rf_freq_12_amplitude_0.2683_rep_6_l_K_2.0.png	 K	 l	 l	 n.a.	 2.384007e-01
8	 1	 287	 flanked	 rf	 3	 0.268300	 2.000000	 flanked_rf_freq_3_amplitude_0.2683_rep_2_l_K_2.0.png	 K	 l	 l	 n.a.	 4.612393e-01
8	 1	 288	 flanked	 rf	 5	 0.165000	 2.000000	 flanked_rf_freq_5_amplitude_0.165_rep_9_b_H_2.0.png	 H	 b	 b	 n.a.	 5.507266e-01
8	 1	 289	 flanked	 rf	 5	 0.010000	 2.000000	 flanked_rf_freq_5_amplitude_0.01_rep_6_t_H_2.0.png	 H	 t	 t	 n.a.	 3.454254e-01
8	 1	 290	 flanked	 rf	 3	 0.165000	 2.000000	 flanked_rf_freq_3_amplitude_0.165_rep_3_l_N_2.0.png	 N	 l	 t	 n.a.	 3.644425e-01
8	 1	 291	 flanked	 rf	 5	 0.113300	 2.000000	 flanked_rf_freq_5_amplitude_0.1133_rep_2_r_N_2.0.png	 N	 r	 r	 n.a.	 3.572540e-01
8	 1	 292	 flanked	 rf	 4	 0.061700	 2.000000	 flanked_rf_freq_4_amplitude_0.0617_rep_8_l_D_2.0.png	 D	 l	 t	 n.a.	 4.319556e-01
8	 1	 293	 flanked	 rf	 2	 0.113300	 2.000000	 flanked_rf_freq_2_amplitude_0.1133_rep_0_l_K_2.0.png	 K	 l	 r	 n.a.	 4.088448e-01
8	 1	 294	 flanked	 rf	 4	 0.010000	 2.000000	 flanked_rf_freq_4_amplitude_0.01_rep_1_r_H_2.0.png	 H	 r	 t	 n.a.	 3.270710e-01
8	 1	 295	 flanked	 rf	 2	 0.010000	 2.000000	 flanked_rf_freq_2_amplitude_0.01_rep_7_r_K_2.0.png	 K	 r	 b	 n.a.	 3.895815e-01
8	 1	 296	 flanked	 rf	 5	 0.216700	 2.000000	 flanked_rf_freq_5_amplitude_0.2167_rep_8_b_N_2.0.png	 N	 b	 b	 n.a.	 3.370132e-01
8	 1	 297	 flanked	 rf	 2	 0.320000	 2.000000	 flanked_rf_freq_2_amplitude_0.32_rep_2_l_N_2.0.png	 N	 l	 l	 n.a.	 3.721905e-01
8	 1	 298	 flanked	 rf	 5	 0.320000	 2.000000	 flanked_rf_freq_5_amplitude_0.32_rep_6_r_N_2.0.png	 N	 r	 r	 n.a.	 2.155018e-01
8	 1	 299	 flanked	 rf	 8	 0.320000	 2.000000	 flanked_rf_freq_8_amplitude_0.32_rep_7_b_H_2.0.png	 H	 b	 b	 n.a.	 2.714546e-01
8	 1	 300	 flanked	 rf	 2	 0.010000	 2.000000	 flanked_rf_freq_2_amplitude_0.01_rep_0_t_D_2.0.png	 D	 t	 b	 n.a.	 4.807140e-01
8	 1	 301	 flanked	 rf	 8	 0.320000	 2.000000	 flanked_rf_freq_8_amplitude_0.32_rep_6_b_N_2.0.png	 N	 b	 b	 n.a.	 2.662196e-01
8	 1	 302	 flanked	 rf	 3	 0.061700	 2.000000	 flanked_rf_freq_3_amplitude_0.0617_rep_0_b_D_2.0.png	 D	 b	 l	 n.a.	 4.692975e-01
8	 1	 303	 flanked	 rf	 8	 0.268300	 2.000000	 flanked_rf_freq_8_amplitude_0.2683_rep_8_b_H_2.0.png	 H	 b	 b	 n.a.	 2.294330e-01
8	 1	 304	 flanked	 rf	 4	 0.113300	 2.000000	 flanked_rf_freq_4_amplitude_0.1133_rep_4_t_H_2.0.png	 H	 t	 b	 n.a.	 5.565503e-01
8	 1	 305	 flanked	 rf	 2	 0.216700	 2.000000	 flanked_rf_freq_2_amplitude_0.2167_rep_8_r_H_2.0.png	 H	 r	 b	 n.a.	 2.930267e-01
8	 1	 306	 flanked	 rf	 5	 0.320000	 2.000000	 flanked_rf_freq_5_amplitude_0.32_rep_4_t_H_2.0.png	 H	 t	 t	 n.a.	 3.123166e-01
8	 1	 307	 flanked	 rf	 5	 0.268300	 2.000000	 flanked_rf_freq_5_amplitude_0.2683_rep_8_b_H_2.0.png	 H	 b	 b	 n.a.	 3.058946e-01
8	 1	 308	 flanked	 rf	 2	 0.061700	 2.000000	 flanked_rf_freq_2_amplitude_0.0617_rep_9_r_K_2.0.png	 K	 r	 b	 n.a.	 4.069370e-01
8	 1	 309	 flanked	 rf	 12	 0.320000	 2.000000	 flanked_rf_freq_12_amplitude_0.32_rep_3_b_H_2.0.png	 H	 b	 b	 n.a.	 2.567412e-01
8	 1	 310	 flanked	 rf	 12	 0.113300	 2.000000	 flanked_rf_freq_12_amplitude_0.1133_rep_1_b_N_2.0.png	 N	 b	 b	 n.a.	 3.470790e-01
8	 1	 311	 flanked	 rf	 2	 0.061700	 2.000000	 flanked_rf_freq_2_amplitude_0.0617_rep_1_r_D_2.0.png	 D	 r	 t	 n.a.	 3.259401e-01
8	 1	 312	 flanked	 rf	 3	 0.216700	 2.000000	 flanked_rf_freq_3_amplitude_0.2167_rep_9_b_D_2.0.png	 D	 b	 b	 n.a.	 2.487461e-01
8	 1	 313	 flanked	 rf	 4	 0.268300	 2.000000	 flanked_rf_freq_4_amplitude_0.2683_rep_0_t_K_2.0.png	 K	 t	 t	 n.a.	 4.359295e-01
8	 1	 314	 flanked	 rf	 5	 0.113300	 2.000000	 flanked_rf_freq_5_amplitude_0.1133_rep_3_l_H_2.0.png	 H	 l	 l	 n.a.	 3.844157e-01
8	 1	 315	 flanked	 rf	 8	 0.113300	 2.000000	 flanked_rf_freq_8_amplitude_0.1133_rep_2_r_N_2.0.png	 N	 r	 r	 n.a.	 4.015093e-01
8	 1	 316	 flanked	 rf	 5	 0.216700	 2.000000	 flanked_rf_freq_5_amplitude_0.2167_rep_5_r_H_2.0.png	 H	 r	 r	 n.a.	 3.495622e-01
8	 1	 317	 flanked	 rf	 5	 0.113300	 2.000000	 flanked_rf_freq_5_amplitude_0.1133_rep_1_b_N_2.0.png	 N	 b	 b	 n.a.	 6.120732e-01
8	 1	 318	 flanked	 rf	 2	 0.061700	 2.000000	 flanked_rf_freq_2_amplitude_0.0617_rep_4_r_H_2.0.png	 H	 r	 t	 n.a.	 6.861355e-01
8	 1	 319	 flanked	 rf	 8	 0.061700	 2.000000	 flanked_rf_freq_8_amplitude_0.0617_rep_8_l_H_2.0.png	 H	 l	 b	 n.a.	 2.827455e-01
8	 1	 320	 flanked	 rf	 12	 0.268300	 2.000000	 flanked_rf_freq_12_amplitude_0.2683_rep_1_b_H_2.0.png	 H	 b	 b	 n.a.	 3.020294e-01
8	 1	 321	 flanked	 rf	 3	 0.113300	 2.000000	 flanked_rf_freq_3_amplitude_0.1133_rep_2_l_K_2.0.png	 K	 l	 l	 n.a.	 4.557908e-01
8	 1	 322	 flanked	 rf	 8	 0.113300	 2.000000	 flanked_rf_freq_8_amplitude_0.1133_rep_3_l_H_2.0.png	 H	 l	 l	 n.a.	 4.853359e-01
8	 1	 323	 flanked	 rf	 12	 0.320000	 2.000000	 flanked_rf_freq_12_amplitude_0.32_rep_5_l_H_2.0.png	 H	 l	 l	 n.a.	 3.186694e-01
8	 1	 324	 flanked	 rf	 4	 0.216700	 2.000000	 flanked_rf_freq_4_amplitude_0.2167_rep_0_r_K_2.0.png	 K	 r	 r	 n.a.	 4.507970e-01
8	 1	 325	 flanked	 rf	 12	 0.320000	 2.000000	 flanked_rf_freq_12_amplitude_0.32_rep_0_l_D_2.0.png	 D	 l	 l	 n.a.	 2.467178e-01
8	 1	 326	 flanked	 rf	 12	 0.113300	 2.000000	 flanked_rf_freq_12_amplitude_0.1133_rep_0_b_N_2.0.png	 N	 b	 b	 n.a.	 3.044932e-01
8	 1	 327	 flanked	 rf	 12	 0.113300	 2.000000	 flanked_rf_freq_12_amplitude_0.1133_rep_3_b_H_2.0.png	 H	 b	 b	 n.a.	 3.113764e-01
8	 1	 328	 flanked	 rf	 5	 0.010000	 2.000000	 flanked_rf_freq_5_amplitude_0.01_rep_3_t_D_2.0.png	 D	 t	 l	 n.a.	 3.780457e-01
8	 1	 329	 flanked	 rf	 3	 0.165000	 2.000000	 flanked_rf_freq_3_amplitude_0.165_rep_2_t_D_2.0.png	 D	 t	 b	 n.a.	 3.277000e-01
8	 1	 330	 flanked	 rf	 5	 0.268300	 2.000000	 flanked_rf_freq_5_amplitude_0.2683_rep_6_b_N_2.0.png	 N	 b	 b	 n.a.	 4.478021e-01
8	 1	 331	 flanked	 rf	 3	 0.165000	 2.000000	 flanked_rf_freq_3_amplitude_0.165_rep_4_r_K_2.0.png	 K	 r	 r	 n.a.	 3.524589e-01
8	 1	 332	 flanked	 rf	 2	 0.113300	 2.000000	 flanked_rf_freq_2_amplitude_0.1133_rep_4_b_D_2.0.png	 D	 b	 b	 n.a.	 4.865903e-01
8	 1	 333	 flanked	 rf	 12	 0.010000	 2.000000	 flanked_rf_freq_12_amplitude_0.01_rep_8_b_K_2.0.png	 K	 b	 b	 n.a.	 4.547253e-01
8	 1	 334	 flanked	 rf	 4	 0.216700	 2.000000	 flanked_rf_freq_4_amplitude_0.2167_rep_6_b_N_2.0.png	 N	 b	 b	 n.a.	 4.164179e-01
8	 1	 335	 flanked	 rf	 8	 0.268300	 2.000000	 flanked_rf_freq_8_amplitude_0.2683_rep_5_b_D_2.0.png	 D	 b	 b	 n.a.	 2.819836e-01
8	 1	 336	 flanked	 rf	 8	 0.165000	 2.000000	 flanked_rf_freq_8_amplitude_0.165_rep_9_l_D_2.0.png	 D	 l	 l	 n.a.	 2.551162e-01
8	 1	 337	 flanked	 rf	 3	 0.113300	 2.000000	 flanked_rf_freq_3_amplitude_0.1133_rep_5_t_K_2.0.png	 K	 t	 l	 n.a.	 3.832191e-01
8	 1	 338	 flanked	 rf	 5	 0.320000	 2.000000	 flanked_rf_freq_5_amplitude_0.32_rep_3_l_D_2.0.png	 D	 l	 l	 n.a.	 5.783227e-01
8	 1	 339	 flanked	 rf	 2	 0.113300	 2.000000	 flanked_rf_freq_2_amplitude_0.1133_rep_8_r_N_2.0.png	 N	 r	 b	 n.a.	 5.701117e-01
8	 1	 340	 flanked	 rf	 2	 0.216700	 2.000000	 flanked_rf_freq_2_amplitude_0.2167_rep_4_t_N_2.0.png	 N	 t	 l	 n.a.	 2.807731e-01
8	 1	 341	 flanked	 rf	 3	 0.165000	 2.000000	 flanked_rf_freq_3_amplitude_0.165_rep_0_t_H_2.0.png	 H	 t	 b	 n.a.	 5.625826e-01
8	 1	 342	 flanked	 rf	 8	 0.113300	 2.000000	 flanked_rf_freq_8_amplitude_0.1133_rep_0_l_D_2.0.png	 D	 l	 l	 n.a.	 3.661046e-01
8	 1	 343	 flanked	 rf	 4	 0.113300	 2.000000	 flanked_rf_freq_4_amplitude_0.1133_rep_9_r_H_2.0.png	 H	 r	 r	 n.a.	 8.354201e-01
8	 1	 344	 flanked	 rf	 8	 0.061700	 2.000000	 flanked_rf_freq_8_amplitude_0.0617_rep_1_l_N_2.0.png	 N	 l	 t	 n.a.	 9.712024e-01
8	 1	 345	 flanked	 rf	 4	 0.010000	 2.000000	 flanked_rf_freq_4_amplitude_0.01_rep_8_b_H_2.0.png	 H	 b	 b	 n.a.	 4.842118e-01
8	 1	 346	 flanked	 rf	 5	 0.268300	 2.000000	 flanked_rf_freq_5_amplitude_0.2683_rep_1_b_H_2.0.png	 H	 b	 b	 n.a.	 3.677222e-01
8	 1	 347	 flanked	 rf	 8	 0.061700	 2.000000	 flanked_rf_freq_8_amplitude_0.0617_rep_3_b_H_2.0.png	 H	 b	 b	 n.a.	 5.772571e-01
8	 1	 348	 flanked	 rf	 12	 0.113300	 2.000000	 flanked_rf_freq_12_amplitude_0.1133_rep_2_l_H_2.0.png	 H	 l	 l	 n.a.	 2.610684e-01
8	 1	 349	 flanked	 rf	 12	 0.268300	 2.000000	 flanked_rf_freq_12_amplitude_0.2683_rep_3_l_K_2.0.png	 K	 l	 l	 n.a.	 2.748732e-01
8	 1	 350	 flanked	 rf	 2	 0.061700	 2.000000	 flanked_rf_freq_2_amplitude_0.0617_rep_5_t_K_2.0.png	 K	 t	 b	 n.a.	 4.318372e-01
8	 1	 351	 flanked	 rf	 3	 0.010000	 2.000000	 flanked_rf_freq_3_amplitude_0.01_rep_6_b_H_2.0.png	 H	 b	 r	 n.a.	 5.986503e-01
8	 1	 352	 flanked	 rf	 4	 0.216700	 2.000000	 flanked_rf_freq_4_amplitude_0.2167_rep_8_b_H_2.0.png	 H	 b	 b	 n.a.	 4.022019e-01
8	 1	 353	 flanked	 rf	 12	 0.061700	 2.000000	 flanked_rf_freq_12_amplitude_0.0617_rep_9_l_H_2.0.png	 H	 l	 b	 n.a.	 3.680847e-01
8	 1	 354	 flanked	 rf	 3	 0.165000	 2.000000	 flanked_rf_freq_3_amplitude_0.165_rep_8_b_H_2.0.png	 H	 b	 l	 n.a.	 2.327004e-01
8	 1	 355	 flanked	 rf	 2	 0.216700	 2.000000	 flanked_rf_freq_2_amplitude_0.2167_rep_7_l_K_2.0.png	 K	 l	 b	 n.a.	 5.148634e-01
8	 1	 356	 flanked	 rf	 5	 0.010000	 2.000000	 flanked_rf_freq_5_amplitude_0.01_rep_2_b_N_2.0.png	 N	 b	 t	 n.a.	 2.478767e-01
8	 1	 357	 flanked	 rf	 4	 0.268300	 2.000000	 flanked_rf_freq_4_amplitude_0.2683_rep_2_r_D_2.0.png	 D	 r	 r	 n.a.	 3.732737e-01
8	 1	 358	 flanked	 rf	 12	 0.216700	 2.000000	 flanked_rf_freq_12_amplitude_0.2167_rep_2_b_N_2.0.png	 N	 b	 b	 n.a.	 3.082388e-01
8	 1	 359	 flanked	 rf	 3	 0.061700	 2.000000	 flanked_rf_freq_3_amplitude_0.0617_rep_6_r_H_2.0.png	 H	 r	 b	 n.a.	 3.138266e-01
8	 1	 360	 flanked	 rf	 3	 0.216700	 2.000000	 flanked_rf_freq_3_amplitude_0.2167_rep_7_l_H_2.0.png	 H	 l	 l	 n.a.	 3.652528e-01
8	 1	 361	 flanked	 rf	 2	 0.268300	 2.000000	 flanked_rf_freq_2_amplitude_0.2683_rep_4_r_N_2.0.png	 N	 r	 t	 n.a.	 4.243176e-01
8	 1	 362	 flanked	 rf	 8	 0.010000	 2.000000	 flanked_rf_freq_8_amplitude_0.01_rep_4_r_H_2.0.png	 H	 r	 b	 n.a.	 2.763203e-01
8	 1	 363	 flanked	 rf	 4	 0.216700	 2.000000	 flanked_rf_freq_4_amplitude_0.2167_rep_1_l_D_2.0.png	 D	 l	 r	 n.a.	 3.561472e-01
8	 1	 364	 flanked	 rf	 12	 0.010000	 2.000000	 flanked_rf_freq_12_amplitude_0.01_rep_5_t_H_2.0.png	 H	 t	 l	 n.a.	 2.505805e-01
8	 1	 365	 flanked	 rf	 3	 0.320000	 2.000000	 flanked_rf_freq_3_amplitude_0.32_rep_0_b_K_2.0.png	 K	 b	 b	 n.a.	 2.680479e-01
8	 1	 366	 flanked	 rf	 12	 0.268300	 2.000000	 flanked_rf_freq_12_amplitude_0.2683_rep_8_l_D_2.0.png	 D	 l	 l	 n.a.	 2.389618e-01
8	 1	 367	 flanked	 rf	 4	 0.165000	 2.000000	 flanked_rf_freq_4_amplitude_0.165_rep_7_r_D_2.0.png	 D	 r	 b	 n.a.	 4.588581e-01
8	 1	 368	 flanked	 rf	 3	 0.010000	 2.000000	 flanked_rf_freq_3_amplitude_0.01_rep_9_b_K_2.0.png	 K	 b	 b	 n.a.	 8.440494e-01
8	 1	 369	 flanked	 rf	 4	 0.320000	 2.000000	 flanked_rf_freq_4_amplitude_0.32_rep_8_r_N_2.0.png	 N	 r	 r	 n.a.	 2.667841e-01
8	 1	 370	 flanked	 rf	 8	 0.010000	 2.000000	 flanked_rf_freq_8_amplitude_0.01_rep_7_b_D_2.0.png	 D	 b	 t	 n.a.	 5.580252e-01
8	 1	 371	 flanked	 rf	 4	 0.010000	 2.000000	 flanked_rf_freq_4_amplitude_0.01_rep_9_r_H_2.0.png	 H	 r	 b	 n.a.	 3.052993e-01
8	 1	 372	 flanked	 rf	 5	 0.216700	 2.000000	 flanked_rf_freq_5_amplitude_0.2167_rep_9_b_D_2.0.png	 D	 b	 b	 n.a.	 3.404905e-01
8	 1	 373	 flanked	 rf	 8	 0.113300	 2.000000	 flanked_rf_freq_8_amplitude_0.1133_rep_4_r_H_2.0.png	 H	 r	 r	 n.a.	 3.837467e-01
8	 1	 374	 flanked	 rf	 5	 0.113300	 2.000000	 flanked_rf_freq_5_amplitude_0.1133_rep_7_r_D_2.0.png	 D	 r	 t	 n.a.	 4.296348e-01
8	 1	 375	 flanked	 rf	 5	 0.113300	 2.000000	 flanked_rf_freq_5_amplitude_0.1133_rep_0_t_K_2.0.png	 K	 t	 t	 n.a.	 4.448332e-01
8	 1	 376	 flanked	 rf	 12	 0.320000	 2.000000	 flanked_rf_freq_12_amplitude_0.32_rep_1_b_H_2.0.png	 H	 b	 b	 n.a.	 2.361825e-01
8	 1	 377	 flanked	 rf	 4	 0.165000	 2.000000	 flanked_rf_freq_4_amplitude_0.165_rep_8_r_H_2.0.png	 H	 r	 r	 n.a.	 3.348727e-01
8	 1	 378	 flanked	 rf	 12	 0.061700	 2.000000	 flanked_rf_freq_12_amplitude_0.0617_rep_2_b_D_2.0.png	 D	 b	 b	 n.a.	 4.029561e-01
8	 1	 379	 flanked	 rf	 2	 0.216700	 2.000000	 flanked_rf_freq_2_amplitude_0.2167_rep_2_b_D_2.0.png	 D	 b	 b	 n.a.	 6.556516e-01
8	 1	 380	 flanked	 rf	 3	 0.113300	 2.000000	 flanked_rf_freq_3_amplitude_0.1133_rep_8_r_N_2.0.png	 N	 r	 t	 n.a.	 6.025753e-01
8	 1	 381	 flanked	 rf	 2	 0.268300	 2.000000	 flanked_rf_freq_2_amplitude_0.2683_rep_5_b_H_2.0.png	 H	 b	 b	 n.a.	 3.432216e-01
8	 1	 382	 flanked	 rf	 2	 0.320000	 2.000000	 flanked_rf_freq_2_amplitude_0.32_rep_3_r_D_2.0.png	 D	 r	 r	 n.a.	 2.724257e-01
8	 1	 383	 flanked	 rf	 3	 0.010000	 2.000000	 flanked_rf_freq_3_amplitude_0.01_rep_4_r_D_2.0.png	 D	 r	 t	 n.a.	 3.560997e-01
8	 1	 384	 flanked	 rf	 5	 0.061700	 2.000000	 flanked_rf_freq_5_amplitude_0.0617_rep_1_t_K_2.0.png	 K	 t	 l	 n.a.	 2.778354e-01
8	 1	 385	 flanked	 rf	 8	 0.320000	 2.000000	 flanked_rf_freq_8_amplitude_0.32_rep_1_t_N_2.0.png	 N	 t	 t	 n.a.	 2.092084e-01
8	 1	 386	 flanked	 rf	 8	 0.320000	 2.000000	 flanked_rf_freq_8_amplitude_0.32_rep_3_r_N_2.0.png	 N	 r	 r	 n.a.	 2.769979e-01
8	 1	 387	 flanked	 rf	 3	 0.113300	 2.000000	 flanked_rf_freq_3_amplitude_0.1133_rep_4_t_H_2.0.png	 H	 t	 b	 n.a.	 4.685892e-01
8	 1	 388	 flanked	 rf	 8	 0.165000	 2.000000	 flanked_rf_freq_8_amplitude_0.165_rep_5_l_D_2.0.png	 D	 l	 l	 n.a.	 3.852363e-01
8	 1	 389	 flanked	 rf	 4	 0.061700	 2.000000	 flanked_rf_freq_4_amplitude_0.0617_rep_5_l_H_2.0.png	 H	 l	 t	 n.a.	 5.190628e-01
8	 1	 390	 flanked	 rf	 8	 0.165000	 2.000000	 flanked_rf_freq_8_amplitude_0.165_rep_6_l_H_2.0.png	 H	 l	 l	 n.a.	 2.146915e-01
8	 1	 391	 flanked	 rf	 2	 0.165000	 2.000000	 flanked_rf_freq_2_amplitude_0.165_rep_3_b_K_2.0.png	 K	 b	 b	 n.a.	 3.120152e-01
8	 1	 392	 flanked	 rf	 8	 0.320000	 2.000000	 flanked_rf_freq_8_amplitude_0.32_rep_5_t_D_2.0.png	 D	 t	 t	 n.a.	 2.541386e-01
8	 1	 393	 flanked	 rf	 2	 0.320000	 2.000000	 flanked_rf_freq_2_amplitude_0.32_rep_6_t_D_2.0.png	 D	 t	 r	 n.a.	 4.917041e-01
8	 1	 394	 flanked	 rf	 3	 0.165000	 2.000000	 flanked_rf_freq_3_amplitude_0.165_rep_5_r_H_2.0.png	 H	 r	 r	 n.a.	 3.623615e-01
8	 1	 395	 flanked	 rf	 4	 0.268300	 2.000000	 flanked_rf_freq_4_amplitude_0.2683_rep_6_l_N_2.0.png	 N	 l	 l	 n.a.	 2.935173e-01
8	 1	 396	 flanked	 rf	 5	 0.268300	 2.000000	 flanked_rf_freq_5_amplitude_0.2683_rep_5_l_K_2.0.png	 K	 l	 l	 n.a.	 3.938180e-01
8	 1	 397	 flanked	 rf	 8	 0.165000	 2.000000	 flanked_rf_freq_8_amplitude_0.165_rep_2_t_N_2.0.png	 N	 t	 t	 n.a.	 2.432265e-01
8	 1	 398	 flanked	 rf	 5	 0.113300	 2.000000	 flanked_rf_freq_5_amplitude_0.1133_rep_8_l_D_2.0.png	 D	 l	 l	 n.a.	 2.779669e-01
8	 1	 399	 flanked	 rf	 5	 0.320000	 2.000000	 flanked_rf_freq_5_amplitude_0.32_rep_1_l_H_2.0.png	 H	 l	 b	 n.a.	 2.379571e-01
8	 1	 400	 flanked	 rf	 8	 0.268300	 2.000000	 flanked_rf_freq_8_amplitude_0.2683_rep_0_b_D_2.0.png	 D	 b	 b	 n.a.	 2.678920e-01
8	 1	 401	 flanked	 rf	 12	 0.216700	 2.000000	 flanked_rf_freq_12_amplitude_0.2167_rep_6_t_K_2.0.png	 K	 t	 t	 n.a.	 2.815645e-01
8	 1	 402	 flanked	 rf	 2	 0.320000	 2.000000	 flanked_rf_freq_2_amplitude_0.32_rep_9_t_K_2.0.png	 K	 t	 t	 n.a.	 2.660152e-01
8	 1	 403	 flanked	 rf	 5	 0.113300	 2.000000	 flanked_rf_freq_5_amplitude_0.1133_rep_9_r_N_2.0.png	 N	 r	 t	 n.a.	 2.718765e-01
8	 1	 404	 flanked	 rf	 2	 0.165000	 2.000000	 flanked_rf_freq_2_amplitude_0.165_rep_5_b_H_2.0.png	 H	 b	 l	 n.a.	 9.308513e-01
8	 1	 405	 flanked	 rf	 3	 0.010000	 2.000000	 flanked_rf_freq_3_amplitude_0.01_rep_1_r_K_2.0.png	 K	 r	 b	 n.a.	 3.112904e-01
8	 1	 406	 flanked	 rf	 4	 0.113300	 2.000000	 flanked_rf_freq_4_amplitude_0.1133_rep_7_b_D_2.0.png	 D	 b	 b	 n.a.	 3.555604e-01
8	 1	 407	 flanked	 rf	 2	 0.165000	 2.000000	 flanked_rf_freq_2_amplitude_0.165_rep_7_b_H_2.0.png	 H	 b	 t	 n.a.	 2.763011e-01
8	 1	 408	 flanked	 rf	 4	 0.268300	 2.000000	 flanked_rf_freq_4_amplitude_0.2683_rep_4_b_H_2.0.png	 H	 b	 b	 n.a.	 3.499554e-01
8	 1	 409	 flanked	 rf	 4	 0.010000	 2.000000	 flanked_rf_freq_4_amplitude_0.01_rep_3_t_K_2.0.png	 K	 t	 t	 n.a.	 1.046412e+00
8	 1	 410	 flanked	 rf	 3	 0.320000	 2.000000	 flanked_rf_freq_3_amplitude_0.32_rep_4_r_D_2.0.png	 D	 r	 t	 n.a.	 5.699147e-01
8	 1	 411	 flanked	 rf	 4	 0.268300	 2.000000	 flanked_rf_freq_4_amplitude_0.2683_rep_9_b_D_2.0.png	 D	 b	 b	 n.a.	 3.581458e-01
8	 1	 412	 flanked	 rf	 4	 0.165000	 2.000000	 flanked_rf_freq_4_amplitude_0.165_rep_2_t_N_2.0.png	 N	 t	 b	 n.a.	 7.682270e-01
8	 1	 413	 flanked	 rf	 2	 0.216700	 2.000000	 flanked_rf_freq_2_amplitude_0.2167_rep_6_l_K_2.0.png	 K	 l	 t	 n.a.	 3.886004e-01
8	 1	 414	 flanked	 rf	 3	 0.216700	 2.000000	 flanked_rf_freq_3_amplitude_0.2167_rep_4_l_D_2.0.png	 D	 l	 l	 n.a.	 2.906213e-01
8	 1	 415	 flanked	 rf	 3	 0.268300	 2.000000	 flanked_rf_freq_3_amplitude_0.2683_rep_5_b_K_2.0.png	 K	 b	 b	 n.a.	 3.768405e-01
8	 1	 416	 flanked	 rf	 12	 0.268300	 2.000000	 flanked_rf_freq_12_amplitude_0.2683_rep_5_b_K_2.0.png	 K	 b	 b	 n.a.	 3.386822e-01
8	 1	 417	 flanked	 rf	 5	 0.061700	 2.000000	 flanked_rf_freq_5_amplitude_0.0617_rep_5_b_D_2.0.png	 D	 b	 t	 n.a.	 9.359398e-01
8	 1	 418	 flanked	 rf	 5	 0.061700	 2.000000	 flanked_rf_freq_5_amplitude_0.0617_rep_8_r_D_2.0.png	 D	 r	 b	 n.a.	 1.945616e-01
8	 1	 419	 flanked	 rf	 5	 0.061700	 2.000000	 flanked_rf_freq_5_amplitude_0.0617_rep_9_l_K_2.0.png	 K	 l	 t	 n.a.	 7.337012e-01
8	 1	 420	 flanked	 rf	 4	 0.061700	 2.000000	 flanked_rf_freq_4_amplitude_0.0617_rep_7_b_K_2.0.png	 K	 b	 t	 n.a.	 3.277489e-01
