subject	 session	 trial	 flanked	 distortion	 freq	 amplitude	 spacing	 im_name	 targ_letter	 targ_pos	 response	 eyemovement	 RT
5	 7	 1	 flanked	 bex	 4	 2.500000	 2.000000	 flanked_bex_freq_4_amplitude_2.5_rep_1_l_N_2.0.png	 N	 l	 l	 n.a.	 3.247721e-01
5	 7	 2	 flanked	 bex	 2	 2.500000	 2.000000	 flanked_bex_freq_2_amplitude_2.5_rep_6_t_K_2.0.png	 K	 t	 t	 n.a.	 5.203526e-01
5	 7	 3	 flanked	 bex	 32	 1.000000	 2.000000	 flanked_bex_freq_32_amplitude_1_rep_5_b_N_2.0.png	 N	 b	 r	 n.a.	 4.583442e-01
5	 7	 4	 flanked	 bex	 2	 2.500000	 2.000000	 flanked_bex_freq_2_amplitude_2.5_rep_4_b_N_2.0.png	 N	 b	 t	 n.a.	 4.314682e-01
5	 7	 5	 flanked	 bex	 2	 0.250000	 2.000000	 flanked_bex_freq_2_amplitude_0.25_rep_2_r_N_2.0.png	 N	 r	 t	 n.a.	 6.075879e-01
5	 7	 6	 flanked	 bex	 4	 0.250000	 2.000000	 flanked_bex_freq_4_amplitude_0.25_rep_8_l_D_2.0.png	 D	 l	 b	 n.a.	 4.640139e-01
5	 7	 7	 flanked	 bex	 32	 1.500000	 2.000000	 flanked_bex_freq_32_amplitude_1.5_rep_0_b_H_2.0.png	 H	 b	 r	 n.a.	 7.364613e-01
5	 7	 8	 flanked	 bex	 32	 1.000000	 2.000000	 flanked_bex_freq_32_amplitude_1_rep_2_l_H_2.0.png	 H	 l	 t	 n.a.	 6.995156e-01
5	 7	 9	 flanked	 bex	 6	 0.250000	 2.000000	 flanked_bex_freq_6_amplitude_0.25_rep_4_r_N_2.0.png	 N	 r	 t	 n.a.	 1.047947e+00
5	 7	 10	 flanked	 bex	 6	 2.000000	 2.000000	 flanked_bex_freq_6_amplitude_2_rep_2_l_D_2.0.png	 D	 l	 l	 n.a.	 3.458618e-01
5	 7	 11	 flanked	 bex	 16	 2.500000	 2.000000	 flanked_bex_freq_16_amplitude_2.5_rep_1_r_H_2.0.png	 H	 r	 r	 n.a.	 2.712992e-01
5	 7	 12	 flanked	 bex	 32	 3.000000	 2.000000	 flanked_bex_freq_32_amplitude_3_rep_8_b_K_2.0.png	 K	 b	 r	 n.a.	 4.956851e-01
5	 7	 13	 flanked	 bex	 6	 0.500000	 2.000000	 flanked_bex_freq_6_amplitude_0.5_rep_0_r_N_2.0.png	 N	 r	 t	 n.a.	 5.125122e-01
5	 7	 14	 flanked	 bex	 4	 0.250000	 2.000000	 flanked_bex_freq_4_amplitude_0.25_rep_3_r_K_2.0.png	 K	 r	 t	 n.a.	 5.745225e-01
5	 7	 15	 flanked	 bex	 32	 1.000000	 2.000000	 flanked_bex_freq_32_amplitude_1_rep_6_t_D_2.0.png	 D	 t	 r	 n.a.	 8.631471e-01
5	 7	 16	 flanked	 bex	 8	 2.500000	 2.000000	 flanked_bex_freq_8_amplitude_2.5_rep_2_l_D_2.0.png	 D	 l	 l	 n.a.	 2.687784e-01
5	 7	 17	 flanked	 bex	 4	 1.000000	 2.000000	 flanked_bex_freq_4_amplitude_1_rep_9_b_D_2.0.png	 D	 b	 r	 n.a.	 7.736912e-01
5	 7	 18	 flanked	 bex	 16	 0.500000	 2.000000	 flanked_bex_freq_16_amplitude_0.5_rep_8_t_H_2.0.png	 H	 t	 r	 n.a.	 6.919001e-01
5	 7	 19	 flanked	 bex	 4	 1.500000	 2.000000	 flanked_bex_freq_4_amplitude_1.5_rep_8_r_N_2.0.png	 N	 r	 r	 n.a.	 5.713773e-01
5	 7	 20	 flanked	 bex	 32	 1.500000	 2.000000	 flanked_bex_freq_32_amplitude_1.5_rep_6_l_N_2.0.png	 N	 l	 l	 n.a.	 6.216901e-01
5	 7	 21	 flanked	 bex	 32	 1.500000	 2.000000	 flanked_bex_freq_32_amplitude_1.5_rep_7_t_H_2.0.png	 H	 t	 t	 n.a.	 4.210239e-01
5	 7	 22	 flanked	 bex	 16	 2.000000	 2.000000	 flanked_bex_freq_16_amplitude_2_rep_2_l_N_2.0.png	 N	 l	 l	 n.a.	 3.097898e-01
5	 7	 23	 flanked	 bex	 8	 2.500000	 2.000000	 flanked_bex_freq_8_amplitude_2.5_rep_3_l_N_2.0.png	 N	 l	 l	 n.a.	 2.931901e-01
5	 7	 24	 flanked	 bex	 6	 0.500000	 2.000000	 flanked_bex_freq_6_amplitude_0.5_rep_4_t_D_2.0.png	 D	 t	 r	 n.a.	 6.244618e-01
5	 7	 25	 flanked	 bex	 6	 1.000000	 2.000000	 flanked_bex_freq_6_amplitude_1_rep_4_r_H_2.0.png	 H	 r	 r	 n.a.	 3.771032e-01
5	 7	 26	 flanked	 bex	 8	 0.250000	 2.000000	 flanked_bex_freq_8_amplitude_0.25_rep_7_l_H_2.0.png	 H	 l	 b	 n.a.	 7.131455e-01
5	 7	 27	 flanked	 bex	 8	 1.500000	 2.000000	 flanked_bex_freq_8_amplitude_1.5_rep_3_t_K_2.0.png	 K	 t	 t	 n.a.	 8.027924e-01
5	 7	 28	 flanked	 bex	 6	 2.000000	 2.000000	 flanked_bex_freq_6_amplitude_2_rep_8_r_D_2.0.png	 D	 r	 r	 n.a.	 3.087125e-01
5	 7	 29	 flanked	 bex	 4	 0.250000	 2.000000	 flanked_bex_freq_4_amplitude_0.25_rep_0_r_K_2.0.png	 K	 r	 b	 n.a.	 5.470832e-01
5	 7	 30	 flanked	 bex	 32	 0.500000	 2.000000	 flanked_bex_freq_32_amplitude_0.5_rep_8_b_N_2.0.png	 N	 b	 r	 n.a.	 4.952926e-01
5	 7	 31	 flanked	 bex	 16	 0.500000	 2.000000	 flanked_bex_freq_16_amplitude_0.5_rep_2_l_H_2.0.png	 H	 l	 r	 n.a.	 1.227393e+00
5	 7	 32	 flanked	 bex	 2	 2.500000	 2.000000	 flanked_bex_freq_2_amplitude_2.5_rep_2_l_K_2.0.png	 K	 l	 b	 n.a.	 6.894338e-01
5	 7	 33	 flanked	 bex	 8	 3.000000	 2.000000	 flanked_bex_freq_8_amplitude_3_rep_5_t_H_2.0.png	 H	 t	 t	 n.a.	 4.180745e-01
5	 7	 34	 flanked	 bex	 2	 0.500000	 2.000000	 flanked_bex_freq_2_amplitude_0.5_rep_3_t_N_2.0.png	 N	 t	 r	 n.a.	 6.433412e-01
5	 7	 35	 flanked	 bex	 2	 2.000000	 2.000000	 flanked_bex_freq_2_amplitude_2_rep_2_r_N_2.0.png	 N	 r	 r	 n.a.	 5.602424e-01
5	 7	 36	 flanked	 bex	 8	 1.000000	 2.000000	 flanked_bex_freq_8_amplitude_1_rep_9_b_D_2.0.png	 D	 b	 t	 n.a.	 5.814123e-01
5	 7	 37	 flanked	 bex	 8	 0.250000	 2.000000	 flanked_bex_freq_8_amplitude_0.25_rep_4_l_K_2.0.png	 K	 l	 b	 n.a.	 5.924331e-01
5	 7	 38	 flanked	 bex	 6	 3.000000	 2.000000	 flanked_bex_freq_6_amplitude_3_rep_3_l_H_2.0.png	 H	 l	 l	 n.a.	 2.868177e-01
5	 7	 39	 flanked	 bex	 32	 1.500000	 2.000000	 flanked_bex_freq_32_amplitude_1.5_rep_8_l_D_2.0.png	 D	 l	 l	 n.a.	 5.294798e-01
5	 7	 40	 flanked	 bex	 6	 2.000000	 2.000000	 flanked_bex_freq_6_amplitude_2_rep_0_r_H_2.0.png	 H	 r	 r	 n.a.	 3.476702e-01
5	 7	 41	 flanked	 bex	 4	 3.000000	 2.000000	 flanked_bex_freq_4_amplitude_3_rep_7_b_D_2.0.png	 D	 b	 t	 n.a.	 6.374778e-01
5	 7	 42	 flanked	 bex	 32	 1.000000	 2.000000	 flanked_bex_freq_32_amplitude_1_rep_0_r_D_2.0.png	 D	 r	 l	 n.a.	 9.343496e-01
5	 7	 43	 flanked	 bex	 2	 0.250000	 2.000000	 flanked_bex_freq_2_amplitude_0.25_rep_9_t_D_2.0.png	 D	 t	 r	 n.a.	 5.077052e-01
5	 7	 44	 flanked	 bex	 8	 0.500000	 2.000000	 flanked_bex_freq_8_amplitude_0.5_rep_8_l_D_2.0.png	 D	 l	 t	 n.a.	 7.560404e-01
5	 7	 45	 flanked	 bex	 8	 0.500000	 2.000000	 flanked_bex_freq_8_amplitude_0.5_rep_7_t_K_2.0.png	 K	 t	 t	 n.a.	 4.925136e-01
5	 7	 46	 flanked	 bex	 2	 1.500000	 2.000000	 flanked_bex_freq_2_amplitude_1.5_rep_2_b_H_2.0.png	 H	 b	 t	 n.a.	 7.756851e-01
5	 7	 47	 flanked	 bex	 16	 2.000000	 2.000000	 flanked_bex_freq_16_amplitude_2_rep_1_b_K_2.0.png	 K	 b	 t	 n.a.	 8.755431e-01
5	 7	 48	 flanked	 bex	 6	 1.000000	 2.000000	 flanked_bex_freq_6_amplitude_1_rep_3_r_D_2.0.png	 D	 r	 r	 n.a.	 5.752448e-01
5	 7	 49	 flanked	 bex	 2	 2.000000	 2.000000	 flanked_bex_freq_2_amplitude_2_rep_7_t_H_2.0.png	 H	 t	 l	 n.a.	 1.430528e+00
5	 7	 50	 flanked	 bex	 4	 3.000000	 2.000000	 flanked_bex_freq_4_amplitude_3_rep_4_t_D_2.0.png	 D	 t	 r	 n.a.	 8.331058e-01
5	 7	 51	 flanked	 bex	 32	 3.000000	 2.000000	 flanked_bex_freq_32_amplitude_3_rep_6_t_N_2.0.png	 N	 t	 t	 n.a.	 5.011774e-01
5	 7	 52	 flanked	 bex	 32	 1.000000	 2.000000	 flanked_bex_freq_32_amplitude_1_rep_9_t_K_2.0.png	 K	 t	 r	 n.a.	 5.600658e-01
5	 7	 53	 flanked	 bex	 6	 1.500000	 2.000000	 flanked_bex_freq_6_amplitude_1.5_rep_8_b_K_2.0.png	 K	 b	 r	 n.a.	 4.532128e-01
5	 7	 54	 flanked	 bex	 8	 2.000000	 2.000000	 flanked_bex_freq_8_amplitude_2_rep_4_l_N_2.0.png	 N	 l	 l	 n.a.	 2.753790e-01
5	 7	 55	 flanked	 bex	 2	 3.000000	 2.000000	 flanked_bex_freq_2_amplitude_3_rep_1_b_K_2.0.png	 K	 b	 b	 n.a.	 3.512824e-01
5	 7	 56	 flanked	 bex	 2	 2.000000	 2.000000	 flanked_bex_freq_2_amplitude_2_rep_0_t_N_2.0.png	 N	 t	 t	 n.a.	 4.681214e-01
5	 7	 57	 flanked	 bex	 2	 2.500000	 2.000000	 flanked_bex_freq_2_amplitude_2.5_rep_8_r_H_2.0.png	 H	 r	 r	 n.a.	 6.683763e-01
5	 7	 58	 flanked	 bex	 16	 2.500000	 2.000000	 flanked_bex_freq_16_amplitude_2.5_rep_3_l_N_2.0.png	 N	 l	 l	 n.a.	 2.390765e-01
5	 7	 59	 flanked	 bex	 2	 0.250000	 2.000000	 flanked_bex_freq_2_amplitude_0.25_rep_0_l_K_2.0.png	 K	 l	 r	 n.a.	 3.522196e-01
5	 7	 60	 flanked	 bex	 8	 2.000000	 2.000000	 flanked_bex_freq_8_amplitude_2_rep_8_l_D_2.0.png	 D	 l	 l	 n.a.	 2.208545e-01
5	 7	 61	 flanked	 bex	 4	 3.000000	 2.000000	 flanked_bex_freq_4_amplitude_3_rep_8_b_N_2.0.png	 N	 b	 r	 n.a.	 6.243967e-01
5	 7	 62	 flanked	 bex	 6	 1.500000	 2.000000	 flanked_bex_freq_6_amplitude_1.5_rep_5_b_K_2.0.png	 K	 b	 t	 n.a.	 5.116485e-01
5	 7	 63	 flanked	 bex	 4	 2.000000	 2.000000	 flanked_bex_freq_4_amplitude_2_rep_3_r_H_2.0.png	 H	 r	 r	 n.a.	 3.213099e-01
5	 7	 64	 flanked	 bex	 32	 2.500000	 2.000000	 flanked_bex_freq_32_amplitude_2.5_rep_3_t_N_2.0.png	 N	 t	 t	 n.a.	 6.116799e-01
5	 7	 65	 flanked	 bex	 16	 2.500000	 2.000000	 flanked_bex_freq_16_amplitude_2.5_rep_8_l_N_2.0.png	 N	 l	 l	 n.a.	 2.742138e-01
5	 7	 66	 flanked	 bex	 8	 2.000000	 2.000000	 flanked_bex_freq_8_amplitude_2_rep_7_l_D_2.0.png	 D	 l	 l	 n.a.	 2.787711e-01
5	 7	 67	 flanked	 bex	 2	 0.500000	 2.000000	 flanked_bex_freq_2_amplitude_0.5_rep_6_b_H_2.0.png	 H	 b	 t	 n.a.	 4.598182e-01
5	 7	 68	 flanked	 bex	 6	 3.000000	 2.000000	 flanked_bex_freq_6_amplitude_3_rep_2_t_D_2.0.png	 D	 t	 t	 n.a.	 3.741741e-01
5	 7	 69	 flanked	 bex	 4	 0.250000	 2.000000	 flanked_bex_freq_4_amplitude_0.25_rep_2_l_H_2.0.png	 H	 l	 b	 n.a.	 6.792790e-01
5	 7	 70	 flanked	 bex	 2	 3.000000	 2.000000	 flanked_bex_freq_2_amplitude_3_rep_0_l_H_2.0.png	 H	 l	 t	 n.a.	 4.706590e-01
5	 7	 71	 flanked	 bex	 4	 2.000000	 2.000000	 flanked_bex_freq_4_amplitude_2_rep_8_t_H_2.0.png	 H	 t	 r	 n.a.	 4.364411e-01
5	 7	 72	 flanked	 bex	 32	 2.500000	 2.000000	 flanked_bex_freq_32_amplitude_2.5_rep_9_l_N_2.0.png	 N	 l	 l	 n.a.	 4.588472e-01
5	 7	 73	 flanked	 bex	 16	 3.000000	 2.000000	 flanked_bex_freq_16_amplitude_3_rep_6_b_N_2.0.png	 N	 b	 b	 n.a.	 4.017500e-01
5	 7	 74	 flanked	 bex	 4	 1.500000	 2.000000	 flanked_bex_freq_4_amplitude_1.5_rep_2_b_K_2.0.png	 K	 b	 b	 n.a.	 4.467764e-01
5	 7	 75	 flanked	 bex	 32	 0.500000	 2.000000	 flanked_bex_freq_32_amplitude_0.5_rep_9_b_D_2.0.png	 D	 b	 t	 n.a.	 5.116857e-01
5	 7	 76	 flanked	 bex	 16	 1.000000	 2.000000	 flanked_bex_freq_16_amplitude_1_rep_2_l_K_2.0.png	 K	 l	 r	 n.a.	 5.897533e-01
5	 7	 77	 flanked	 bex	 6	 1.000000	 2.000000	 flanked_bex_freq_6_amplitude_1_rep_9_t_K_2.0.png	 K	 t	 b	 n.a.	 4.105423e-01
5	 7	 78	 flanked	 bex	 16	 0.250000	 2.000000	 flanked_bex_freq_16_amplitude_0.25_rep_2_l_H_2.0.png	 H	 l	 t	 n.a.	 8.062409e-01
5	 7	 79	 flanked	 bex	 4	 1.500000	 2.000000	 flanked_bex_freq_4_amplitude_1.5_rep_4_l_N_2.0.png	 N	 l	 l	 n.a.	 4.793349e-01
5	 7	 80	 flanked	 bex	 4	 2.500000	 2.000000	 flanked_bex_freq_4_amplitude_2.5_rep_0_t_K_2.0.png	 K	 t	 t	 n.a.	 4.905734e-01
5	 7	 81	 flanked	 bex	 2	 2.500000	 2.000000	 flanked_bex_freq_2_amplitude_2.5_rep_7_l_K_2.0.png	 K	 l	 l	 n.a.	 3.769147e-01
5	 7	 82	 flanked	 bex	 8	 1.500000	 2.000000	 flanked_bex_freq_8_amplitude_1.5_rep_7_b_N_2.0.png	 N	 b	 r	 n.a.	 5.371591e-01
5	 7	 83	 flanked	 bex	 6	 1.500000	 2.000000	 flanked_bex_freq_6_amplitude_1.5_rep_0_b_N_2.0.png	 N	 b	 l	 n.a.	 5.147930e-01
5	 7	 84	 flanked	 bex	 16	 0.500000	 2.000000	 flanked_bex_freq_16_amplitude_0.5_rep_5_r_N_2.0.png	 N	 r	 t	 n.a.	 4.481939e-01
5	 7	 85	 flanked	 bex	 16	 3.000000	 2.000000	 flanked_bex_freq_16_amplitude_3_rep_1_b_H_2.0.png	 H	 b	 b	 n.a.	 6.937042e-01
5	 7	 86	 flanked	 bex	 16	 0.250000	 2.000000	 flanked_bex_freq_16_amplitude_0.25_rep_4_l_H_2.0.png	 H	 l	 t	 n.a.	 7.428237e-01
5	 7	 87	 flanked	 bex	 4	 3.000000	 2.000000	 flanked_bex_freq_4_amplitude_3_rep_9_r_H_2.0.png	 H	 r	 r	 n.a.	 3.152762e-01
5	 7	 88	 flanked	 bex	 16	 3.000000	 2.000000	 flanked_bex_freq_16_amplitude_3_rep_0_b_N_2.0.png	 N	 b	 b	 n.a.	 5.693214e-01
5	 7	 89	 flanked	 bex	 8	 2.000000	 2.000000	 flanked_bex_freq_8_amplitude_2_rep_2_r_H_2.0.png	 H	 r	 r	 n.a.	 4.007448e-01
5	 7	 90	 flanked	 bex	 32	 1.000000	 2.000000	 flanked_bex_freq_32_amplitude_1_rep_7_t_D_2.0.png	 D	 t	 l	 n.a.	 5.652507e-01
5	 7	 91	 flanked	 bex	 4	 0.500000	 2.000000	 flanked_bex_freq_4_amplitude_0.5_rep_3_l_K_2.0.png	 K	 l	 r	 n.a.	 6.871551e-01
5	 7	 92	 flanked	 bex	 32	 2.000000	 2.000000	 flanked_bex_freq_32_amplitude_2_rep_5_t_K_2.0.png	 K	 t	 t	 n.a.	 5.406950e-01
5	 7	 93	 flanked	 bex	 2	 2.500000	 2.000000	 flanked_bex_freq_2_amplitude_2.5_rep_5_t_N_2.0.png	 N	 t	 r	 n.a.	 3.928283e-01
5	 7	 94	 flanked	 bex	 2	 3.000000	 2.000000	 flanked_bex_freq_2_amplitude_3_rep_5_r_D_2.0.png	 D	 r	 r	 n.a.	 3.470633e-01
5	 7	 95	 flanked	 bex	 6	 2.500000	 2.000000	 flanked_bex_freq_6_amplitude_2.5_rep_1_l_H_2.0.png	 H	 l	 l	 n.a.	 2.743027e-01
5	 7	 96	 flanked	 bex	 32	 2.000000	 2.000000	 flanked_bex_freq_32_amplitude_2_rep_6_l_D_2.0.png	 D	 l	 l	 n.a.	 6.883428e-01
5	 7	 97	 flanked	 bex	 4	 0.500000	 2.000000	 flanked_bex_freq_4_amplitude_0.5_rep_5_r_K_2.0.png	 K	 r	 r	 n.a.	 5.276464e-01
5	 7	 98	 flanked	 bex	 6	 3.000000	 2.000000	 flanked_bex_freq_6_amplitude_3_rep_9_l_D_2.0.png	 D	 l	 l	 n.a.	 3.030344e-01
5	 7	 99	 flanked	 bex	 16	 1.500000	 2.000000	 flanked_bex_freq_16_amplitude_1.5_rep_2_l_N_2.0.png	 N	 l	 l	 n.a.	 1.167497e+00
5	 7	 100	 flanked	 bex	 32	 3.000000	 2.000000	 flanked_bex_freq_32_amplitude_3_rep_7_b_D_2.0.png	 D	 b	 r	 n.a.	 6.043732e-01
5	 7	 101	 flanked	 bex	 6	 2.000000	 2.000000	 flanked_bex_freq_6_amplitude_2_rep_5_t_D_2.0.png	 D	 t	 r	 n.a.	 1.069981e+00
5	 7	 102	 flanked	 bex	 6	 2.500000	 2.000000	 flanked_bex_freq_6_amplitude_2.5_rep_8_l_D_2.0.png	 D	 l	 l	 n.a.	 2.812768e-01
5	 7	 103	 flanked	 bex	 2	 1.000000	 2.000000	 flanked_bex_freq_2_amplitude_1_rep_8_l_K_2.0.png	 K	 l	 b	 n.a.	 7.626710e-01
5	 7	 104	 flanked	 bex	 32	 2.000000	 2.000000	 flanked_bex_freq_32_amplitude_2_rep_0_t_K_2.0.png	 K	 t	 t	 n.a.	 5.253476e-01
5	 7	 105	 flanked	 bex	 4	 2.000000	 2.000000	 flanked_bex_freq_4_amplitude_2_rep_1_t_D_2.0.png	 D	 t	 r	 n.a.	 8.496349e-01
5	 7	 106	 flanked	 bex	 4	 2.000000	 2.000000	 flanked_bex_freq_4_amplitude_2_rep_2_l_K_2.0.png	 K	 l	 l	 n.a.	 1.043749e+00
5	 7	 107	 flanked	 bex	 2	 2.500000	 2.000000	 flanked_bex_freq_2_amplitude_2.5_rep_0_r_K_2.0.png	 K	 r	 r	 n.a.	 4.032984e-01
5	 7	 108	 flanked	 bex	 6	 3.000000	 2.000000	 flanked_bex_freq_6_amplitude_3_rep_4_t_D_2.0.png	 D	 t	 r	 n.a.	 8.798087e-01
5	 7	 109	 flanked	 bex	 8	 1.000000	 2.000000	 flanked_bex_freq_8_amplitude_1_rep_8_r_K_2.0.png	 K	 r	 r	 n.a.	 4.789157e-01
5	 7	 110	 flanked	 bex	 6	 0.250000	 2.000000	 flanked_bex_freq_6_amplitude_0.25_rep_3_t_K_2.0.png	 K	 t	 t	 n.a.	 7.222718e-01
5	 7	 111	 flanked	 bex	 16	 2.500000	 2.000000	 flanked_bex_freq_16_amplitude_2.5_rep_5_t_K_2.0.png	 K	 t	 t	 n.a.	 4.354786e-01
5	 7	 112	 flanked	 bex	 2	 2.000000	 2.000000	 flanked_bex_freq_2_amplitude_2_rep_4_b_N_2.0.png	 N	 b	 r	 n.a.	 9.437154e-01
5	 7	 113	 flanked	 bex	 2	 2.000000	 2.000000	 flanked_bex_freq_2_amplitude_2_rep_1_b_D_2.0.png	 D	 b	 r	 n.a.	 9.989989e-01
5	 7	 114	 flanked	 bex	 8	 3.000000	 2.000000	 flanked_bex_freq_8_amplitude_3_rep_9_l_K_2.0.png	 K	 l	 l	 n.a.	 3.168229e-01
5	 7	 115	 flanked	 bex	 2	 3.000000	 2.000000	 flanked_bex_freq_2_amplitude_3_rep_9_r_N_2.0.png	 N	 r	 b	 n.a.	 9.257450e-01
5	 7	 116	 flanked	 bex	 2	 2.500000	 2.000000	 flanked_bex_freq_2_amplitude_2.5_rep_9_r_N_2.0.png	 N	 r	 r	 n.a.	 3.742819e-01
5	 7	 117	 flanked	 bex	 8	 0.500000	 2.000000	 flanked_bex_freq_8_amplitude_0.5_rep_9_t_D_2.0.png	 D	 t	 b	 n.a.	 1.018877e+00
5	 7	 118	 flanked	 bex	 2	 0.250000	 2.000000	 flanked_bex_freq_2_amplitude_0.25_rep_8_b_K_2.0.png	 K	 b	 r	 n.a.	 6.336455e-01
5	 7	 119	 flanked	 bex	 6	 1.500000	 2.000000	 flanked_bex_freq_6_amplitude_1.5_rep_4_r_H_2.0.png	 H	 r	 r	 n.a.	 3.080686e-01
5	 7	 120	 flanked	 bex	 4	 2.000000	 2.000000	 flanked_bex_freq_4_amplitude_2_rep_0_t_H_2.0.png	 H	 t	 t	 n.a.	 4.909686e-01
5	 7	 121	 flanked	 bex	 16	 2.500000	 2.000000	 flanked_bex_freq_16_amplitude_2.5_rep_9_r_N_2.0.png	 N	 r	 r	 n.a.	 2.821824e-01
5	 7	 122	 flanked	 bex	 6	 2.500000	 2.000000	 flanked_bex_freq_6_amplitude_2.5_rep_6_t_D_2.0.png	 D	 t	 t	 n.a.	 4.569145e-01
5	 7	 123	 flanked	 bex	 6	 0.250000	 2.000000	 flanked_bex_freq_6_amplitude_0.25_rep_6_l_H_2.0.png	 H	 l	 r	 n.a.	 9.125369e-01
5	 7	 124	 flanked	 bex	 6	 1.000000	 2.000000	 flanked_bex_freq_6_amplitude_1_rep_6_b_K_2.0.png	 K	 b	 b	 n.a.	 8.443186e-01
5	 7	 125	 flanked	 bex	 8	 1.500000	 2.000000	 flanked_bex_freq_8_amplitude_1.5_rep_5_l_N_2.0.png	 N	 l	 l	 n.a.	 3.802110e-01
5	 7	 126	 flanked	 bex	 4	 2.500000	 2.000000	 flanked_bex_freq_4_amplitude_2.5_rep_7_t_D_2.0.png	 D	 t	 t	 n.a.	 6.156957e-01
5	 7	 127	 flanked	 bex	 8	 1.000000	 2.000000	 flanked_bex_freq_8_amplitude_1_rep_4_t_N_2.0.png	 N	 t	 r	 n.a.	 7.393309e-01
5	 7	 128	 flanked	 bex	 2	 2.000000	 2.000000	 flanked_bex_freq_2_amplitude_2_rep_5_t_D_2.0.png	 D	 t	 t	 n.a.	 1.179176e+00
5	 7	 129	 flanked	 bex	 2	 1.500000	 2.000000	 flanked_bex_freq_2_amplitude_1.5_rep_4_r_N_2.0.png	 N	 r	 r	 n.a.	 8.042494e-01
5	 7	 130	 flanked	 bex	 16	 2.000000	 2.000000	 flanked_bex_freq_16_amplitude_2_rep_3_b_H_2.0.png	 H	 b	 r	 n.a.	 4.404348e-01
5	 7	 131	 flanked	 bex	 8	 3.000000	 2.000000	 flanked_bex_freq_8_amplitude_3_rep_8_t_N_2.0.png	 N	 t	 t	 n.a.	 3.976237e-01
5	 7	 132	 flanked	 bex	 32	 0.500000	 2.000000	 flanked_bex_freq_32_amplitude_0.5_rep_7_t_D_2.0.png	 D	 t	 r	 n.a.	 7.375299e-01
5	 7	 133	 flanked	 bex	 8	 1.000000	 2.000000	 flanked_bex_freq_8_amplitude_1_rep_3_t_K_2.0.png	 K	 t	 t	 n.a.	 5.209420e-01
5	 7	 134	 flanked	 bex	 4	 2.500000	 2.000000	 flanked_bex_freq_4_amplitude_2.5_rep_2_t_N_2.0.png	 N	 t	 t	 n.a.	 1.172611e+00
5	 7	 135	 flanked	 bex	 8	 0.500000	 2.000000	 flanked_bex_freq_8_amplitude_0.5_rep_4_l_D_2.0.png	 D	 l	 t	 n.a.	 7.602821e-01
5	 7	 136	 flanked	 bex	 4	 1.000000	 2.000000	 flanked_bex_freq_4_amplitude_1_rep_0_b_D_2.0.png	 D	 b	 r	 n.a.	 6.982305e-01
5	 7	 137	 flanked	 bex	 8	 2.000000	 2.000000	 flanked_bex_freq_8_amplitude_2_rep_3_b_D_2.0.png	 D	 b	 t	 n.a.	 4.407934e-01
5	 7	 138	 flanked	 bex	 8	 0.250000	 2.000000	 flanked_bex_freq_8_amplitude_0.25_rep_5_l_H_2.0.png	 H	 l	 b	 n.a.	 9.333904e-01
5	 7	 139	 flanked	 bex	 4	 1.500000	 2.000000	 flanked_bex_freq_4_amplitude_1.5_rep_5_l_H_2.0.png	 H	 l	 b	 n.a.	 5.617542e-01
5	 7	 140	 flanked	 bex	 16	 3.000000	 2.000000	 flanked_bex_freq_16_amplitude_3_rep_2_r_N_2.0.png	 N	 r	 r	 n.a.	 3.329794e-01
5	 7	 141	 flanked	 bex	 32	 3.000000	 2.000000	 flanked_bex_freq_32_amplitude_3_rep_2_r_N_2.0.png	 N	 r	 r	 n.a.	 3.403551e-01
5	 7	 142	 flanked	 bex	 8	 3.000000	 2.000000	 flanked_bex_freq_8_amplitude_3_rep_2_r_D_2.0.png	 D	 r	 r	 n.a.	 2.509722e-01
5	 7	 143	 flanked	 bex	 4	 1.000000	 2.000000	 flanked_bex_freq_4_amplitude_1_rep_5_r_K_2.0.png	 K	 r	 r	 n.a.	 3.511028e-01
5	 7	 144	 flanked	 bex	 32	 0.250000	 2.000000	 flanked_bex_freq_32_amplitude_0.25_rep_8_l_N_2.0.png	 N	 l	 r	 n.a.	 9.032097e-01
5	 7	 145	 flanked	 bex	 4	 1.500000	 2.000000	 flanked_bex_freq_4_amplitude_1.5_rep_3_l_D_2.0.png	 D	 l	 b	 n.a.	 6.712156e-01
5	 7	 146	 flanked	 bex	 6	 1.500000	 2.000000	 flanked_bex_freq_6_amplitude_1.5_rep_1_l_D_2.0.png	 D	 l	 r	 n.a.	 8.973401e-01
5	 7	 147	 flanked	 bex	 4	 3.000000	 2.000000	 flanked_bex_freq_4_amplitude_3_rep_6_l_H_2.0.png	 H	 l	 l	 n.a.	 3.967369e-01
5	 7	 148	 flanked	 bex	 32	 2.000000	 2.000000	 flanked_bex_freq_32_amplitude_2_rep_9_l_N_2.0.png	 N	 l	 l	 n.a.	 4.995001e-01
5	 7	 149	 flanked	 bex	 32	 1.500000	 2.000000	 flanked_bex_freq_32_amplitude_1.5_rep_2_l_K_2.0.png	 K	 l	 b	 n.a.	 6.392957e-01
5	 7	 150	 flanked	 bex	 16	 0.500000	 2.000000	 flanked_bex_freq_16_amplitude_0.5_rep_1_l_D_2.0.png	 D	 l	 b	 n.a.	 3.692690e-01
5	 7	 151	 flanked	 bex	 4	 2.000000	 2.000000	 flanked_bex_freq_4_amplitude_2_rep_9_r_D_2.0.png	 D	 r	 r	 n.a.	 3.397748e-01
5	 7	 152	 flanked	 bex	 2	 1.500000	 2.000000	 flanked_bex_freq_2_amplitude_1.5_rep_9_t_D_2.0.png	 D	 t	 t	 n.a.	 1.068235e+00
5	 7	 153	 flanked	 bex	 8	 2.500000	 2.000000	 flanked_bex_freq_8_amplitude_2.5_rep_8_r_N_2.0.png	 N	 r	 r	 n.a.	 3.925534e-01
5	 7	 154	 flanked	 bex	 2	 1.000000	 2.000000	 flanked_bex_freq_2_amplitude_1_rep_7_b_N_2.0.png	 N	 b	 b	 n.a.	 4.863044e-01
5	 7	 155	 flanked	 bex	 16	 2.500000	 2.000000	 flanked_bex_freq_16_amplitude_2.5_rep_6_r_D_2.0.png	 D	 r	 r	 n.a.	 3.137259e-01
5	 7	 156	 flanked	 bex	 4	 0.500000	 2.000000	 flanked_bex_freq_4_amplitude_0.5_rep_6_l_H_2.0.png	 H	 l	 r	 n.a.	 6.031251e-01
5	 7	 157	 flanked	 bex	 6	 1.000000	 2.000000	 flanked_bex_freq_6_amplitude_1_rep_1_b_K_2.0.png	 K	 b	 b	 n.a.	 4.753745e-01
5	 7	 158	 flanked	 bex	 6	 1.500000	 2.000000	 flanked_bex_freq_6_amplitude_1.5_rep_7_b_H_2.0.png	 H	 b	 b	 n.a.	 5.400164e-01
5	 7	 159	 flanked	 bex	 2	 3.000000	 2.000000	 flanked_bex_freq_2_amplitude_3_rep_7_r_H_2.0.png	 H	 r	 r	 n.a.	 3.909674e-01
5	 7	 160	 flanked	 bex	 32	 0.250000	 2.000000	 flanked_bex_freq_32_amplitude_0.25_rep_1_t_K_2.0.png	 K	 t	 r	 n.a.	 4.396115e-01
5	 7	 161	 flanked	 bex	 32	 0.500000	 2.000000	 flanked_bex_freq_32_amplitude_0.5_rep_2_b_H_2.0.png	 H	 b	 t	 n.a.	 6.338187e-01
5	 7	 162	 flanked	 bex	 8	 2.500000	 2.000000	 flanked_bex_freq_8_amplitude_2.5_rep_6_t_H_2.0.png	 H	 t	 b	 n.a.	 6.735543e-01
5	 7	 163	 flanked	 bex	 2	 1.500000	 2.000000	 flanked_bex_freq_2_amplitude_1.5_rep_8_l_D_2.0.png	 D	 l	 r	 n.a.	 4.637922e-01
5	 7	 164	 flanked	 bex	 6	 1.500000	 2.000000	 flanked_bex_freq_6_amplitude_1.5_rep_3_t_N_2.0.png	 N	 t	 t	 n.a.	 7.123511e-01
5	 7	 165	 flanked	 bex	 6	 0.250000	 2.000000	 flanked_bex_freq_6_amplitude_0.25_rep_9_l_K_2.0.png	 K	 l	 b	 n.a.	 8.739634e-01
5	 7	 166	 flanked	 bex	 32	 2.500000	 2.000000	 flanked_bex_freq_32_amplitude_2.5_rep_8_b_H_2.0.png	 H	 b	 r	 n.a.	 3.558057e-01
5	 7	 167	 flanked	 bex	 8	 1.500000	 2.000000	 flanked_bex_freq_8_amplitude_1.5_rep_9_t_D_2.0.png	 D	 t	 r	 n.a.	 6.201130e-01
5	 7	 168	 flanked	 bex	 2	 2.500000	 2.000000	 flanked_bex_freq_2_amplitude_2.5_rep_3_b_K_2.0.png	 K	 b	 t	 n.a.	 5.917808e-01
5	 7	 169	 flanked	 bex	 16	 1.500000	 2.000000	 flanked_bex_freq_16_amplitude_1.5_rep_3_t_H_2.0.png	 H	 t	 r	 n.a.	 6.557683e-01
5	 7	 170	 flanked	 bex	 6	 1.500000	 2.000000	 flanked_bex_freq_6_amplitude_1.5_rep_6_b_N_2.0.png	 N	 b	 t	 n.a.	 6.379594e-01
5	 7	 171	 flanked	 bex	 2	 1.500000	 2.000000	 flanked_bex_freq_2_amplitude_1.5_rep_5_r_H_2.0.png	 H	 r	 r	 n.a.	 4.113762e-01
5	 7	 172	 flanked	 bex	 4	 0.500000	 2.000000	 flanked_bex_freq_4_amplitude_0.5_rep_9_t_K_2.0.png	 K	 t	 t	 n.a.	 8.295033e-01
5	 7	 173	 flanked	 bex	 16	 1.000000	 2.000000	 flanked_bex_freq_16_amplitude_1_rep_9_t_D_2.0.png	 D	 t	 b	 n.a.	 7.364561e-01
5	 7	 174	 flanked	 bex	 2	 1.500000	 2.000000	 flanked_bex_freq_2_amplitude_1.5_rep_7_t_K_2.0.png	 K	 t	 t	 n.a.	 5.113157e-01
5	 7	 175	 flanked	 bex	 8	 0.250000	 2.000000	 flanked_bex_freq_8_amplitude_0.25_rep_2_r_N_2.0.png	 N	 r	 r	 n.a.	 4.997609e-01
5	 7	 176	 flanked	 bex	 4	 1.500000	 2.000000	 flanked_bex_freq_4_amplitude_1.5_rep_6_l_N_2.0.png	 N	 l	 l	 n.a.	 4.099964e-01
5	 7	 177	 flanked	 bex	 16	 3.000000	 2.000000	 flanked_bex_freq_16_amplitude_3_rep_5_r_K_2.0.png	 K	 r	 r	 n.a.	 2.572499e-01
5	 7	 178	 flanked	 bex	 2	 1.500000	 2.000000	 flanked_bex_freq_2_amplitude_1.5_rep_1_b_K_2.0.png	 K	 b	 b	 n.a.	 4.777179e-01
5	 7	 179	 flanked	 bex	 16	 3.000000	 2.000000	 flanked_bex_freq_16_amplitude_3_rep_8_b_H_2.0.png	 H	 b	 b	 n.a.	 1.043034e+00
5	 7	 180	 flanked	 bex	 8	 3.000000	 2.000000	 flanked_bex_freq_8_amplitude_3_rep_7_l_K_2.0.png	 K	 l	 l	 n.a.	 2.758810e-01
5	 7	 181	 flanked	 bex	 16	 0.250000	 2.000000	 flanked_bex_freq_16_amplitude_0.25_rep_7_t_N_2.0.png	 N	 t	 t	 n.a.	 5.308083e-01
5	 7	 182	 flanked	 bex	 2	 2.000000	 2.000000	 flanked_bex_freq_2_amplitude_2_rep_6_t_N_2.0.png	 N	 t	 l	 n.a.	 5.749814e-01
5	 7	 183	 flanked	 bex	 32	 0.250000	 2.000000	 flanked_bex_freq_32_amplitude_0.25_rep_7_t_H_2.0.png	 H	 t	 b	 n.a.	 6.792697e-01
5	 7	 184	 flanked	 bex	 2	 2.000000	 2.000000	 flanked_bex_freq_2_amplitude_2_rep_3_l_H_2.0.png	 H	 l	 t	 n.a.	 8.214808e-01
5	 7	 185	 flanked	 bex	 4	 0.250000	 2.000000	 flanked_bex_freq_4_amplitude_0.25_rep_5_b_D_2.0.png	 D	 b	 t	 n.a.	 4.135146e-01
5	 7	 186	 flanked	 bex	 6	 0.250000	 2.000000	 flanked_bex_freq_6_amplitude_0.25_rep_1_b_H_2.0.png	 H	 b	 l	 n.a.	 4.692521e-01
5	 7	 187	 flanked	 bex	 16	 2.000000	 2.000000	 flanked_bex_freq_16_amplitude_2_rep_8_b_K_2.0.png	 K	 b	 b	 n.a.	 5.405047e-01
5	 7	 188	 flanked	 bex	 16	 0.500000	 2.000000	 flanked_bex_freq_16_amplitude_0.5_rep_6_t_N_2.0.png	 N	 t	 b	 n.a.	 8.168987e-01
5	 7	 189	 flanked	 bex	 32	 2.500000	 2.000000	 flanked_bex_freq_32_amplitude_2.5_rep_6_r_K_2.0.png	 K	 r	 r	 n.a.	 3.902593e-01
5	 7	 190	 flanked	 bex	 6	 1.500000	 2.000000	 flanked_bex_freq_6_amplitude_1.5_rep_9_b_H_2.0.png	 H	 b	 r	 n.a.	 5.889793e-01
5	 7	 191	 flanked	 bex	 4	 0.250000	 2.000000	 flanked_bex_freq_4_amplitude_0.25_rep_1_l_H_2.0.png	 H	 l	 t	 n.a.	 6.500595e-01
5	 7	 192	 flanked	 bex	 32	 1.500000	 2.000000	 flanked_bex_freq_32_amplitude_1.5_rep_5_l_N_2.0.png	 N	 l	 b	 n.a.	 6.061522e-01
5	 7	 193	 flanked	 bex	 32	 1.500000	 2.000000	 flanked_bex_freq_32_amplitude_1.5_rep_4_b_H_2.0.png	 H	 b	 r	 n.a.	 7.031357e-01
5	 7	 194	 flanked	 bex	 4	 2.500000	 2.000000	 flanked_bex_freq_4_amplitude_2.5_rep_6_l_N_2.0.png	 N	 l	 l	 n.a.	 3.271393e-01
5	 7	 195	 flanked	 bex	 2	 0.500000	 2.000000	 flanked_bex_freq_2_amplitude_0.5_rep_9_r_K_2.0.png	 K	 r	 r	 n.a.	 6.218447e-01
5	 7	 196	 flanked	 bex	 4	 1.000000	 2.000000	 flanked_bex_freq_4_amplitude_1_rep_7_l_D_2.0.png	 D	 l	 t	 n.a.	 5.084450e-01
5	 7	 197	 flanked	 bex	 8	 1.500000	 2.000000	 flanked_bex_freq_8_amplitude_1.5_rep_8_b_H_2.0.png	 H	 b	 b	 n.a.	 4.746763e-01
5	 7	 198	 flanked	 bex	 2	 1.500000	 2.000000	 flanked_bex_freq_2_amplitude_1.5_rep_3_b_N_2.0.png	 N	 b	 l	 n.a.	 6.295138e-01
5	 7	 199	 flanked	 bex	 6	 2.000000	 2.000000	 flanked_bex_freq_6_amplitude_2_rep_6_b_D_2.0.png	 D	 b	 t	 n.a.	 4.747735e-01
5	 7	 200	 flanked	 bex	 6	 0.500000	 2.000000	 flanked_bex_freq_6_amplitude_0.5_rep_5_r_D_2.0.png	 D	 r	 b	 n.a.	 4.377243e-01
5	 7	 201	 flanked	 bex	 8	 2.500000	 2.000000	 flanked_bex_freq_8_amplitude_2.5_rep_5_r_K_2.0.png	 K	 r	 r	 n.a.	 2.897214e-01
5	 7	 202	 flanked	 bex	 2	 1.000000	 2.000000	 flanked_bex_freq_2_amplitude_1_rep_2_l_N_2.0.png	 N	 l	 b	 n.a.	 8.165889e-01
5	 7	 203	 flanked	 bex	 8	 0.500000	 2.000000	 flanked_bex_freq_8_amplitude_0.5_rep_5_r_K_2.0.png	 K	 r	 t	 n.a.	 4.703686e-01
5	 7	 204	 flanked	 bex	 32	 1.000000	 2.000000	 flanked_bex_freq_32_amplitude_1_rep_8_t_K_2.0.png	 K	 t	 r	 n.a.	 8.139005e-01
5	 7	 205	 flanked	 bex	 32	 2.500000	 2.000000	 flanked_bex_freq_32_amplitude_2.5_rep_0_l_D_2.0.png	 D	 l	 l	 n.a.	 5.169884e-01
5	 7	 206	 flanked	 bex	 32	 1.000000	 2.000000	 flanked_bex_freq_32_amplitude_1_rep_1_b_K_2.0.png	 K	 b	 b	 n.a.	 5.344446e-01
5	 7	 207	 flanked	 bex	 32	 0.250000	 2.000000	 flanked_bex_freq_32_amplitude_0.25_rep_4_b_D_2.0.png	 D	 b	 r	 n.a.	 1.208191e+00
5	 7	 208	 flanked	 bex	 16	 3.000000	 2.000000	 flanked_bex_freq_16_amplitude_3_rep_4_r_H_2.0.png	 H	 r	 r	 n.a.	 2.820401e-01
5	 7	 209	 flanked	 bex	 8	 2.000000	 2.000000	 flanked_bex_freq_8_amplitude_2_rep_9_l_D_2.0.png	 D	 l	 l	 n.a.	 3.993997e-01
5	 7	 210	 flanked	 bex	 16	 2.500000	 2.000000	 flanked_bex_freq_16_amplitude_2.5_rep_4_t_H_2.0.png	 H	 t	 t	 n.a.	 4.704517e-01
5	 7	 211	 flanked	 bex	 16	 1.500000	 2.000000	 flanked_bex_freq_16_amplitude_1.5_rep_1_l_N_2.0.png	 N	 l	 b	 n.a.	 8.913789e-01
5	 7	 212	 flanked	 bex	 2	 3.000000	 2.000000	 flanked_bex_freq_2_amplitude_3_rep_6_b_N_2.0.png	 N	 b	 r	 n.a.	 1.988521e-01
5	 7	 213	 flanked	 bex	 32	 2.000000	 2.000000	 flanked_bex_freq_32_amplitude_2_rep_4_r_K_2.0.png	 K	 r	 r	 n.a.	 3.665285e-01
5	 7	 214	 flanked	 bex	 2	 2.000000	 2.000000	 flanked_bex_freq_2_amplitude_2_rep_8_b_K_2.0.png	 K	 b	 b	 n.a.	 4.486295e-01
5	 7	 215	 flanked	 bex	 6	 2.000000	 2.000000	 flanked_bex_freq_6_amplitude_2_rep_9_t_H_2.0.png	 H	 t	 t	 n.a.	 4.624042e-01
5	 7	 216	 flanked	 bex	 16	 1.000000	 2.000000	 flanked_bex_freq_16_amplitude_1_rep_3_l_K_2.0.png	 K	 l	 r	 n.a.	 7.275179e-01
5	 7	 217	 flanked	 bex	 16	 0.250000	 2.000000	 flanked_bex_freq_16_amplitude_0.25_rep_9_b_N_2.0.png	 N	 b	 b	 n.a.	 3.834141e-01
5	 7	 218	 flanked	 bex	 4	 2.500000	 2.000000	 flanked_bex_freq_4_amplitude_2.5_rep_8_b_D_2.0.png	 D	 b	 r	 n.a.	 6.086274e-01
5	 7	 219	 flanked	 bex	 4	 3.000000	 2.000000	 flanked_bex_freq_4_amplitude_3_rep_5_r_D_2.0.png	 D	 r	 r	 n.a.	 3.225336e-01
5	 7	 220	 flanked	 bex	 2	 0.250000	 2.000000	 flanked_bex_freq_2_amplitude_0.25_rep_7_r_H_2.0.png	 H	 r	 b	 n.a.	 5.231404e-01
5	 7	 221	 flanked	 bex	 6	 2.500000	 2.000000	 flanked_bex_freq_6_amplitude_2.5_rep_5_b_H_2.0.png	 H	 b	 r	 n.a.	 9.045433e-01
5	 7	 222	 flanked	 bex	 2	 0.500000	 2.000000	 flanked_bex_freq_2_amplitude_0.5_rep_0_b_H_2.0.png	 H	 b	 t	 n.a.	 3.565856e-01
5	 7	 223	 flanked	 bex	 8	 0.250000	 2.000000	 flanked_bex_freq_8_amplitude_0.25_rep_6_b_K_2.0.png	 K	 b	 b	 n.a.	 8.469302e-01
5	 7	 224	 flanked	 bex	 2	 0.500000	 2.000000	 flanked_bex_freq_2_amplitude_0.5_rep_5_l_D_2.0.png	 D	 l	 r	 n.a.	 4.597783e-01
5	 7	 225	 flanked	 bex	 16	 1.000000	 2.000000	 flanked_bex_freq_16_amplitude_1_rep_4_r_H_2.0.png	 H	 r	 r	 n.a.	 7.989585e-01
5	 7	 226	 flanked	 bex	 2	 3.000000	 2.000000	 flanked_bex_freq_2_amplitude_3_rep_8_b_D_2.0.png	 D	 b	 t	 n.a.	 1.209184e+00
5	 7	 227	 flanked	 bex	 8	 1.000000	 2.000000	 flanked_bex_freq_8_amplitude_1_rep_0_r_H_2.0.png	 H	 r	 r	 n.a.	 4.964920e-01
5	 7	 228	 flanked	 bex	 8	 0.500000	 2.000000	 flanked_bex_freq_8_amplitude_0.5_rep_0_b_D_2.0.png	 D	 b	 l	 n.a.	 8.684557e-01
5	 7	 229	 flanked	 bex	 16	 2.000000	 2.000000	 flanked_bex_freq_16_amplitude_2_rep_5_b_N_2.0.png	 N	 b	 t	 n.a.	 8.612897e-01
5	 7	 230	 flanked	 bex	 6	 0.250000	 2.000000	 flanked_bex_freq_6_amplitude_0.25_rep_5_r_D_2.0.png	 D	 r	 t	 n.a.	 7.981330e-01
5	 7	 231	 flanked	 bex	 8	 2.500000	 2.000000	 flanked_bex_freq_8_amplitude_2.5_rep_9_b_K_2.0.png	 K	 b	 b	 n.a.	 4.717233e-01
5	 7	 232	 flanked	 bex	 4	 1.500000	 2.000000	 flanked_bex_freq_4_amplitude_1.5_rep_0_b_H_2.0.png	 H	 b	 r	 n.a.	 7.215794e-01
5	 7	 233	 flanked	 bex	 2	 1.000000	 2.000000	 flanked_bex_freq_2_amplitude_1_rep_4_l_K_2.0.png	 K	 l	 l	 n.a.	 5.983997e-01
5	 7	 234	 flanked	 bex	 16	 1.500000	 2.000000	 flanked_bex_freq_16_amplitude_1.5_rep_9_r_H_2.0.png	 H	 r	 l	 n.a.	 5.961814e-01
5	 7	 235	 flanked	 bex	 32	 2.000000	 2.000000	 flanked_bex_freq_32_amplitude_2_rep_7_b_K_2.0.png	 K	 b	 b	 n.a.	 5.378580e-01
5	 7	 236	 flanked	 bex	 32	 0.500000	 2.000000	 flanked_bex_freq_32_amplitude_0.5_rep_6_r_K_2.0.png	 K	 r	 t	 n.a.	 1.186357e+00
5	 7	 237	 flanked	 bex	 16	 2.000000	 2.000000	 flanked_bex_freq_16_amplitude_2_rep_7_t_D_2.0.png	 D	 t	 t	 n.a.	 7.905167e-01
5	 7	 238	 flanked	 bex	 16	 2.000000	 2.000000	 flanked_bex_freq_16_amplitude_2_rep_9_l_H_2.0.png	 H	 l	 r	 n.a.	 9.777887e-01
5	 7	 239	 flanked	 bex	 32	 0.500000	 2.000000	 flanked_bex_freq_32_amplitude_0.5_rep_5_r_K_2.0.png	 K	 r	 b	 n.a.	 5.099028e-01
5	 7	 240	 flanked	 bex	 4	 2.500000	 2.000000	 flanked_bex_freq_4_amplitude_2.5_rep_5_r_H_2.0.png	 H	 r	 r	 n.a.	 3.846167e-01
5	 7	 241	 flanked	 bex	 4	 1.500000	 2.000000	 flanked_bex_freq_4_amplitude_1.5_rep_7_b_H_2.0.png	 H	 b	 l	 n.a.	 8.255025e-01
5	 7	 242	 flanked	 bex	 8	 2.500000	 2.000000	 flanked_bex_freq_8_amplitude_2.5_rep_1_l_D_2.0.png	 D	 l	 l	 n.a.	 2.857230e-01
5	 7	 243	 flanked	 bex	 4	 0.500000	 2.000000	 flanked_bex_freq_4_amplitude_0.5_rep_2_r_N_2.0.png	 N	 r	 r	 n.a.	 7.578039e-01
5	 7	 244	 flanked	 bex	 4	 1.500000	 2.000000	 flanked_bex_freq_4_amplitude_1.5_rep_9_b_K_2.0.png	 K	 b	 b	 n.a.	 6.148888e-01
5	 7	 245	 flanked	 bex	 2	 1.000000	 2.000000	 flanked_bex_freq_2_amplitude_1_rep_5_r_N_2.0.png	 N	 r	 t	 n.a.	 6.414522e-01
5	 7	 246	 flanked	 bex	 8	 0.250000	 2.000000	 flanked_bex_freq_8_amplitude_0.25_rep_9_b_D_2.0.png	 D	 b	 t	 n.a.	 4.489799e-01
5	 7	 247	 flanked	 bex	 16	 1.500000	 2.000000	 flanked_bex_freq_16_amplitude_1.5_rep_5_t_H_2.0.png	 H	 t	 r	 n.a.	 6.551719e-01
5	 7	 248	 flanked	 bex	 16	 1.000000	 2.000000	 flanked_bex_freq_16_amplitude_1_rep_1_l_K_2.0.png	 K	 l	 l	 n.a.	 9.340468e-01
5	 7	 249	 flanked	 bex	 2	 0.250000	 2.000000	 flanked_bex_freq_2_amplitude_0.25_rep_1_t_D_2.0.png	 D	 t	 t	 n.a.	 7.100443e-01
5	 7	 250	 flanked	 bex	 6	 2.000000	 2.000000	 flanked_bex_freq_6_amplitude_2_rep_7_t_N_2.0.png	 N	 t	 r	 n.a.	 7.882859e-01
5	 7	 251	 flanked	 bex	 8	 2.000000	 2.000000	 flanked_bex_freq_8_amplitude_2_rep_6_t_K_2.0.png	 K	 t	 t	 n.a.	 4.376240e-01
5	 7	 252	 flanked	 bex	 6	 2.000000	 2.000000	 flanked_bex_freq_6_amplitude_2_rep_3_r_K_2.0.png	 K	 r	 r	 n.a.	 3.212758e-01
5	 7	 253	 flanked	 bex	 8	 0.250000	 2.000000	 flanked_bex_freq_8_amplitude_0.25_rep_0_r_D_2.0.png	 D	 r	 t	 n.a.	 8.308783e-01
5	 7	 254	 flanked	 bex	 4	 3.000000	 2.000000	 flanked_bex_freq_4_amplitude_3_rep_1_l_H_2.0.png	 H	 l	 l	 n.a.	 3.379334e-01
5	 7	 255	 flanked	 bex	 32	 2.500000	 2.000000	 flanked_bex_freq_32_amplitude_2.5_rep_5_r_N_2.0.png	 N	 r	 r	 n.a.	 4.280153e-01
5	 7	 256	 flanked	 bex	 2	 1.000000	 2.000000	 flanked_bex_freq_2_amplitude_1_rep_9_t_D_2.0.png	 D	 t	 r	 n.a.	 4.462160e-01
5	 7	 257	 flanked	 bex	 16	 2.000000	 2.000000	 flanked_bex_freq_16_amplitude_2_rep_4_l_K_2.0.png	 K	 l	 l	 n.a.	 4.302042e-01
5	 7	 258	 flanked	 bex	 6	 1.000000	 2.000000	 flanked_bex_freq_6_amplitude_1_rep_2_l_H_2.0.png	 H	 l	 b	 n.a.	 4.887181e-01
5	 7	 259	 flanked	 bex	 6	 0.500000	 2.000000	 flanked_bex_freq_6_amplitude_0.5_rep_6_r_K_2.0.png	 K	 r	 r	 n.a.	 4.440262e-01
5	 7	 260	 flanked	 bex	 8	 1.500000	 2.000000	 flanked_bex_freq_8_amplitude_1.5_rep_4_l_D_2.0.png	 D	 l	 l	 n.a.	 3.621248e-01
5	 7	 261	 flanked	 bex	 8	 1.500000	 2.000000	 flanked_bex_freq_8_amplitude_1.5_rep_1_b_H_2.0.png	 H	 b	 b	 n.a.	 5.773858e-01
5	 7	 262	 flanked	 bex	 2	 0.500000	 2.000000	 flanked_bex_freq_2_amplitude_0.5_rep_1_l_D_2.0.png	 D	 l	 r	 n.a.	 5.229374e-01
5	 7	 263	 flanked	 bex	 8	 3.000000	 2.000000	 flanked_bex_freq_8_amplitude_3_rep_6_r_H_2.0.png	 H	 r	 r	 n.a.	 2.627165e-01
5	 7	 264	 flanked	 bex	 2	 0.500000	 2.000000	 flanked_bex_freq_2_amplitude_0.5_rep_8_r_N_2.0.png	 N	 r	 r	 n.a.	 4.153626e-01
5	 7	 265	 flanked	 bex	 16	 0.500000	 2.000000	 flanked_bex_freq_16_amplitude_0.5_rep_3_l_D_2.0.png	 D	 l	 l	 n.a.	 4.425499e-01
5	 7	 266	 flanked	 bex	 4	 1.000000	 2.000000	 flanked_bex_freq_4_amplitude_1_rep_4_l_K_2.0.png	 K	 l	 r	 n.a.	 8.273249e-01
5	 7	 267	 flanked	 bex	 32	 1.500000	 2.000000	 flanked_bex_freq_32_amplitude_1.5_rep_9_l_K_2.0.png	 K	 l	 t	 n.a.	 5.416877e-01
5	 7	 268	 flanked	 bex	 6	 1.000000	 2.000000	 flanked_bex_freq_6_amplitude_1_rep_7_l_D_2.0.png	 D	 l	 b	 n.a.	 4.237960e-01
5	 7	 269	 flanked	 bex	 32	 0.250000	 2.000000	 flanked_bex_freq_32_amplitude_0.25_rep_9_t_H_2.0.png	 H	 t	 r	 n.a.	 4.593607e-01
5	 7	 270	 flanked	 bex	 2	 3.000000	 2.000000	 flanked_bex_freq_2_amplitude_3_rep_2_l_K_2.0.png	 K	 l	 l	 n.a.	 3.741564e-01
5	 7	 271	 flanked	 bex	 6	 3.000000	 2.000000	 flanked_bex_freq_6_amplitude_3_rep_1_b_N_2.0.png	 N	 b	 b	 n.a.	 3.733605e-01
5	 7	 272	 flanked	 bex	 32	 3.000000	 2.000000	 flanked_bex_freq_32_amplitude_3_rep_9_l_D_2.0.png	 D	 l	 l	 n.a.	 5.580651e-01
5	 7	 273	 flanked	 bex	 4	 1.000000	 2.000000	 flanked_bex_freq_4_amplitude_1_rep_1_r_N_2.0.png	 N	 r	 r	 n.a.	 4.509035e-01
5	 7	 274	 flanked	 bex	 6	 2.000000	 2.000000	 flanked_bex_freq_6_amplitude_2_rep_1_t_K_2.0.png	 K	 t	 l	 n.a.	 5.449661e-01
5	 7	 275	 flanked	 bex	 32	 0.250000	 2.000000	 flanked_bex_freq_32_amplitude_0.25_rep_0_r_N_2.0.png	 N	 r	 r	 n.a.	 3.553516e-01
5	 7	 276	 flanked	 bex	 6	 3.000000	 2.000000	 flanked_bex_freq_6_amplitude_3_rep_0_b_K_2.0.png	 K	 b	 b	 n.a.	 3.932962e-01
5	 7	 277	 flanked	 bex	 32	 3.000000	 2.000000	 flanked_bex_freq_32_amplitude_3_rep_1_t_K_2.0.png	 K	 t	 r	 n.a.	 6.612283e-01
5	 7	 278	 flanked	 bex	 4	 2.500000	 2.000000	 flanked_bex_freq_4_amplitude_2.5_rep_4_l_H_2.0.png	 H	 l	 l	 n.a.	 3.529825e-01
5	 7	 279	 flanked	 bex	 32	 3.000000	 2.000000	 flanked_bex_freq_32_amplitude_3_rep_0_t_H_2.0.png	 H	 t	 r	 n.a.	 3.909818e-01
5	 7	 280	 flanked	 bex	 8	 1.000000	 2.000000	 flanked_bex_freq_8_amplitude_1_rep_7_t_D_2.0.png	 D	 t	 r	 n.a.	 2.851516e-01
5	 7	 281	 flanked	 bex	 32	 2.500000	 2.000000	 flanked_bex_freq_32_amplitude_2.5_rep_1_r_D_2.0.png	 D	 r	 r	 n.a.	 2.483881e-01
5	 7	 282	 flanked	 bex	 6	 2.500000	 2.000000	 flanked_bex_freq_6_amplitude_2.5_rep_0_r_N_2.0.png	 N	 r	 r	 n.a.	 2.356892e-01
5	 7	 283	 flanked	 bex	 32	 1.000000	 2.000000	 flanked_bex_freq_32_amplitude_1_rep_4_r_N_2.0.png	 N	 r	 r	 n.a.	 3.908726e-01
5	 7	 284	 flanked	 bex	 4	 0.500000	 2.000000	 flanked_bex_freq_4_amplitude_0.5_rep_1_r_H_2.0.png	 H	 r	 t	 n.a.	 1.217754e+00
5	 7	 285	 flanked	 bex	 4	 3.000000	 2.000000	 flanked_bex_freq_4_amplitude_3_rep_3_r_D_2.0.png	 D	 r	 r	 n.a.	 2.738553e-01
5	 7	 286	 flanked	 bex	 6	 0.500000	 2.000000	 flanked_bex_freq_6_amplitude_0.5_rep_9_r_N_2.0.png	 N	 r	 b	 n.a.	 4.790412e-01
5	 7	 287	 flanked	 bex	 8	 3.000000	 2.000000	 flanked_bex_freq_8_amplitude_3_rep_3_b_D_2.0.png	 D	 b	 r	 n.a.	 3.690862e-01
5	 7	 288	 flanked	 bex	 2	 1.000000	 2.000000	 flanked_bex_freq_2_amplitude_1_rep_1_b_D_2.0.png	 D	 b	 l	 n.a.	 1.172558e+00
5	 7	 289	 flanked	 bex	 2	 0.500000	 2.000000	 flanked_bex_freq_2_amplitude_0.5_rep_4_b_H_2.0.png	 H	 b	 t	 n.a.	 1.059446e+00
5	 7	 290	 flanked	 bex	 16	 2.500000	 2.000000	 flanked_bex_freq_16_amplitude_2.5_rep_7_r_D_2.0.png	 D	 r	 r	 n.a.	 2.393658e-01
5	 7	 291	 flanked	 bex	 6	 0.500000	 2.000000	 flanked_bex_freq_6_amplitude_0.5_rep_1_t_D_2.0.png	 D	 t	 r	 n.a.	 5.820410e-01
5	 7	 292	 flanked	 bex	 8	 2.000000	 2.000000	 flanked_bex_freq_8_amplitude_2_rep_5_t_D_2.0.png	 D	 t	 t	 n.a.	 4.829295e-01
5	 7	 293	 flanked	 bex	 6	 0.250000	 2.000000	 flanked_bex_freq_6_amplitude_0.25_rep_0_r_H_2.0.png	 H	 r	 b	 n.a.	 4.887637e-01
5	 7	 294	 flanked	 bex	 8	 2.000000	 2.000000	 flanked_bex_freq_8_amplitude_2_rep_1_l_K_2.0.png	 K	 l	 l	 n.a.	 2.725832e-01
5	 7	 295	 flanked	 bex	 16	 1.000000	 2.000000	 flanked_bex_freq_16_amplitude_1_rep_8_l_K_2.0.png	 K	 l	 l	 n.a.	 4.453856e-01
5	 7	 296	 flanked	 bex	 4	 0.250000	 2.000000	 flanked_bex_freq_4_amplitude_0.25_rep_9_b_N_2.0.png	 N	 b	 l	 n.a.	 6.815062e-01
5	 7	 297	 flanked	 bex	 2	 1.000000	 2.000000	 flanked_bex_freq_2_amplitude_1_rep_6_b_D_2.0.png	 D	 b	 t	 n.a.	 6.606390e-01
5	 7	 298	 flanked	 bex	 6	 0.500000	 2.000000	 flanked_bex_freq_6_amplitude_0.5_rep_7_r_K_2.0.png	 K	 r	 l	 n.a.	 4.105812e-01
5	 7	 299	 flanked	 bex	 6	 0.250000	 2.000000	 flanked_bex_freq_6_amplitude_0.25_rep_2_l_D_2.0.png	 D	 l	 t	 n.a.	 9.730428e-01
5	 7	 300	 flanked	 bex	 4	 2.500000	 2.000000	 flanked_bex_freq_4_amplitude_2.5_rep_3_t_D_2.0.png	 D	 t	 l	 n.a.	 4.523741e-01
5	 7	 301	 flanked	 bex	 6	 3.000000	 2.000000	 flanked_bex_freq_6_amplitude_3_rep_7_t_K_2.0.png	 K	 t	 t	 n.a.	 4.497843e-01
5	 7	 302	 flanked	 bex	 32	 0.500000	 2.000000	 flanked_bex_freq_32_amplitude_0.5_rep_1_r_N_2.0.png	 N	 r	 t	 n.a.	 4.369903e-01
5	 7	 303	 flanked	 bex	 16	 1.500000	 2.000000	 flanked_bex_freq_16_amplitude_1.5_rep_4_r_K_2.0.png	 K	 r	 r	 n.a.	 2.988002e-01
5	 7	 304	 flanked	 bex	 4	 0.500000	 2.000000	 flanked_bex_freq_4_amplitude_0.5_rep_0_b_H_2.0.png	 H	 b	 t	 n.a.	 4.561971e-01
5	 7	 305	 flanked	 bex	 2	 2.000000	 2.000000	 flanked_bex_freq_2_amplitude_2_rep_9_l_H_2.0.png	 H	 l	 l	 n.a.	 4.905869e-01
5	 7	 306	 flanked	 bex	 8	 1.000000	 2.000000	 flanked_bex_freq_8_amplitude_1_rep_2_r_N_2.0.png	 N	 r	 r	 n.a.	 4.338656e-01
5	 7	 307	 flanked	 bex	 8	 3.000000	 2.000000	 flanked_bex_freq_8_amplitude_3_rep_0_b_K_2.0.png	 K	 b	 b	 n.a.	 4.035736e-01
5	 7	 308	 flanked	 bex	 16	 2.500000	 2.000000	 flanked_bex_freq_16_amplitude_2.5_rep_0_l_K_2.0.png	 K	 l	 l	 n.a.	 2.832591e-01
5	 7	 309	 flanked	 bex	 32	 2.500000	 2.000000	 flanked_bex_freq_32_amplitude_2.5_rep_4_l_N_2.0.png	 N	 l	 l	 n.a.	 2.900842e-01
5	 7	 310	 flanked	 bex	 4	 1.500000	 2.000000	 flanked_bex_freq_4_amplitude_1.5_rep_1_l_N_2.0.png	 N	 l	 l	 n.a.	 3.623348e-01
5	 7	 311	 flanked	 bex	 6	 0.500000	 2.000000	 flanked_bex_freq_6_amplitude_0.5_rep_8_t_K_2.0.png	 K	 t	 l	 n.a.	 1.089504e+00
5	 7	 312	 flanked	 bex	 6	 3.000000	 2.000000	 flanked_bex_freq_6_amplitude_3_rep_8_b_D_2.0.png	 D	 b	 b	 n.a.	 5.189802e-01
5	 7	 313	 flanked	 bex	 8	 0.250000	 2.000000	 flanked_bex_freq_8_amplitude_0.25_rep_8_r_H_2.0.png	 H	 r	 b	 n.a.	 8.029256e-01
5	 7	 314	 flanked	 bex	 6	 1.000000	 2.000000	 flanked_bex_freq_6_amplitude_1_rep_0_t_K_2.0.png	 K	 t	 l	 n.a.	 4.755616e-01
5	 7	 315	 flanked	 bex	 32	 1.500000	 2.000000	 flanked_bex_freq_32_amplitude_1.5_rep_1_r_K_2.0.png	 K	 r	 r	 n.a.	 3.242709e-01
5	 7	 316	 flanked	 bex	 4	 2.000000	 2.000000	 flanked_bex_freq_4_amplitude_2_rep_7_t_D_2.0.png	 D	 t	 t	 n.a.	 5.317743e-01
5	 7	 317	 flanked	 bex	 16	 0.250000	 2.000000	 flanked_bex_freq_16_amplitude_0.25_rep_8_t_N_2.0.png	 N	 t	 t	 n.a.	 1.074426e+00
5	 7	 318	 flanked	 bex	 32	 0.500000	 2.000000	 flanked_bex_freq_32_amplitude_0.5_rep_3_t_N_2.0.png	 N	 t	 l	 n.a.	 1.228923e+00
5	 7	 319	 flanked	 bex	 6	 2.500000	 2.000000	 flanked_bex_freq_6_amplitude_2.5_rep_7_b_N_2.0.png	 N	 b	 b	 n.a.	 3.948510e-01
5	 7	 320	 flanked	 bex	 4	 3.000000	 2.000000	 flanked_bex_freq_4_amplitude_3_rep_2_t_N_2.0.png	 N	 t	 t	 n.a.	 4.932602e-01
5	 7	 321	 flanked	 bex	 16	 0.500000	 2.000000	 flanked_bex_freq_16_amplitude_0.5_rep_7_l_N_2.0.png	 N	 l	 l	 n.a.	 3.518383e-01
5	 7	 322	 flanked	 bex	 8	 0.500000	 2.000000	 flanked_bex_freq_8_amplitude_0.5_rep_6_t_N_2.0.png	 N	 t	 r	 n.a.	 7.146456e-01
5	 7	 323	 flanked	 bex	 16	 1.500000	 2.000000	 flanked_bex_freq_16_amplitude_1.5_rep_6_b_K_2.0.png	 K	 b	 t	 n.a.	 4.724534e-01
5	 7	 324	 flanked	 bex	 16	 0.250000	 2.000000	 flanked_bex_freq_16_amplitude_0.25_rep_0_b_K_2.0.png	 K	 b	 l	 n.a.	 8.260660e-01
5	 7	 325	 flanked	 bex	 4	 2.500000	 2.000000	 flanked_bex_freq_4_amplitude_2.5_rep_9_l_H_2.0.png	 H	 l	 l	 n.a.	 3.443027e-01
5	 7	 326	 flanked	 bex	 32	 2.000000	 2.000000	 flanked_bex_freq_32_amplitude_2_rep_8_l_N_2.0.png	 N	 l	 l	 n.a.	 7.495995e-01
5	 7	 327	 flanked	 bex	 4	 3.000000	 2.000000	 flanked_bex_freq_4_amplitude_3_rep_0_l_K_2.0.png	 K	 l	 l	 n.a.	 5.466609e-01
5	 7	 328	 flanked	 bex	 4	 0.250000	 2.000000	 flanked_bex_freq_4_amplitude_0.25_rep_7_b_D_2.0.png	 D	 b	 r	 n.a.	 7.410400e-01
5	 7	 329	 flanked	 bex	 2	 0.500000	 2.000000	 flanked_bex_freq_2_amplitude_0.5_rep_2_b_K_2.0.png	 K	 b	 b	 n.a.	 5.374829e-01
5	 7	 330	 flanked	 bex	 16	 1.000000	 2.000000	 flanked_bex_freq_16_amplitude_1_rep_0_t_K_2.0.png	 K	 t	 b	 n.a.	 1.030218e+00
5	 7	 331	 flanked	 bex	 2	 0.250000	 2.000000	 flanked_bex_freq_2_amplitude_0.25_rep_3_t_H_2.0.png	 H	 t	 t	 n.a.	 5.183366e-01
5	 7	 332	 flanked	 bex	 4	 0.500000	 2.000000	 flanked_bex_freq_4_amplitude_0.5_rep_4_b_N_2.0.png	 N	 b	 b	 n.a.	 9.515477e-01
5	 7	 333	 flanked	 bex	 32	 1.500000	 2.000000	 flanked_bex_freq_32_amplitude_1.5_rep_3_r_D_2.0.png	 D	 r	 r	 n.a.	 4.042771e-01
5	 7	 334	 flanked	 bex	 16	 0.250000	 2.000000	 flanked_bex_freq_16_amplitude_0.25_rep_3_b_D_2.0.png	 D	 b	 r	 n.a.	 3.914125e-01
5	 7	 335	 flanked	 bex	 32	 0.250000	 2.000000	 flanked_bex_freq_32_amplitude_0.25_rep_3_l_N_2.0.png	 N	 l	 t	 n.a.	 3.881456e-01
5	 7	 336	 flanked	 bex	 2	 2.500000	 2.000000	 flanked_bex_freq_2_amplitude_2.5_rep_1_t_H_2.0.png	 H	 t	 l	 n.a.	 3.353915e-01
5	 7	 337	 flanked	 bex	 8	 0.500000	 2.000000	 flanked_bex_freq_8_amplitude_0.5_rep_3_t_H_2.0.png	 H	 t	 r	 n.a.	 6.004276e-01
5	 7	 338	 flanked	 bex	 8	 2.500000	 2.000000	 flanked_bex_freq_8_amplitude_2.5_rep_7_b_N_2.0.png	 N	 b	 b	 n.a.	 4.690003e-01
5	 7	 339	 flanked	 bex	 6	 2.000000	 2.000000	 flanked_bex_freq_6_amplitude_2_rep_4_t_D_2.0.png	 D	 t	 l	 n.a.	 5.584576e-01
5	 7	 340	 flanked	 bex	 16	 2.500000	 2.000000	 flanked_bex_freq_16_amplitude_2.5_rep_2_r_H_2.0.png	 H	 r	 r	 n.a.	 2.988442e-01
5	 7	 341	 flanked	 bex	 16	 0.250000	 2.000000	 flanked_bex_freq_16_amplitude_0.25_rep_6_b_H_2.0.png	 H	 b	 r	 n.a.	 3.940169e-01
5	 7	 342	 flanked	 bex	 32	 3.000000	 2.000000	 flanked_bex_freq_32_amplitude_3_rep_3_t_D_2.0.png	 D	 t	 t	 n.a.	 3.727715e-01
5	 7	 343	 flanked	 bex	 8	 2.500000	 2.000000	 flanked_bex_freq_8_amplitude_2.5_rep_4_b_D_2.0.png	 D	 b	 b	 n.a.	 5.466903e-01
5	 7	 344	 flanked	 bex	 16	 0.500000	 2.000000	 flanked_bex_freq_16_amplitude_0.5_rep_0_t_N_2.0.png	 N	 t	 l	 n.a.	 6.284321e-01
5	 7	 345	 flanked	 bex	 8	 0.250000	 2.000000	 flanked_bex_freq_8_amplitude_0.25_rep_1_t_N_2.0.png	 N	 t	 r	 n.a.	 5.036137e-01
5	 7	 346	 flanked	 bex	 32	 0.250000	 2.000000	 flanked_bex_freq_32_amplitude_0.25_rep_5_r_K_2.0.png	 K	 r	 t	 n.a.	 6.470659e-01
5	 7	 347	 flanked	 bex	 4	 2.000000	 2.000000	 flanked_bex_freq_4_amplitude_2_rep_6_l_D_2.0.png	 D	 l	 l	 n.a.	 4.753122e-01
5	 7	 348	 flanked	 bex	 8	 2.000000	 2.000000	 flanked_bex_freq_8_amplitude_2_rep_0_t_D_2.0.png	 D	 t	 r	 n.a.	 7.438017e-01
5	 7	 349	 flanked	 bex	 8	 1.500000	 2.000000	 flanked_bex_freq_8_amplitude_1.5_rep_6_r_N_2.0.png	 N	 r	 r	 n.a.	 3.900091e-01
5	 7	 350	 flanked	 bex	 8	 0.500000	 2.000000	 flanked_bex_freq_8_amplitude_0.5_rep_1_l_H_2.0.png	 H	 l	 r	 n.a.	 4.810874e-01
5	 7	 351	 flanked	 bex	 2	 1.500000	 2.000000	 flanked_bex_freq_2_amplitude_1.5_rep_6_l_H_2.0.png	 H	 l	 l	 n.a.	 3.745802e-01
5	 7	 352	 flanked	 bex	 6	 2.500000	 2.000000	 flanked_bex_freq_6_amplitude_2.5_rep_2_r_D_2.0.png	 D	 r	 r	 n.a.	 2.264036e-01
5	 7	 353	 flanked	 bex	 6	 0.500000	 2.000000	 flanked_bex_freq_6_amplitude_0.5_rep_2_t_K_2.0.png	 K	 t	 l	 n.a.	 4.443252e-01
5	 7	 354	 flanked	 bex	 8	 1.500000	 2.000000	 flanked_bex_freq_8_amplitude_1.5_rep_0_r_H_2.0.png	 H	 r	 r	 n.a.	 2.571372e-01
5	 7	 355	 flanked	 bex	 2	 1.000000	 2.000000	 flanked_bex_freq_2_amplitude_1_rep_3_b_K_2.0.png	 K	 b	 r	 n.a.	 7.987815e-01
5	 7	 356	 flanked	 bex	 32	 2.000000	 2.000000	 flanked_bex_freq_32_amplitude_2_rep_1_b_H_2.0.png	 H	 b	 l	 n.a.	 8.008678e-01
5	 7	 357	 flanked	 bex	 16	 3.000000	 2.000000	 flanked_bex_freq_16_amplitude_3_rep_9_r_K_2.0.png	 K	 r	 r	 n.a.	 2.945563e-01
5	 7	 358	 flanked	 bex	 6	 2.500000	 2.000000	 flanked_bex_freq_6_amplitude_2.5_rep_4_t_K_2.0.png	 K	 t	 t	 n.a.	 3.177649e-01
5	 7	 359	 flanked	 bex	 2	 0.250000	 2.000000	 flanked_bex_freq_2_amplitude_0.25_rep_4_t_D_2.0.png	 D	 t	 b	 n.a.	 5.608640e-01
5	 7	 360	 flanked	 bex	 8	 1.000000	 2.000000	 flanked_bex_freq_8_amplitude_1_rep_5_r_N_2.0.png	 N	 r	 r	 n.a.	 3.223445e-01
5	 7	 361	 flanked	 bex	 4	 1.000000	 2.000000	 flanked_bex_freq_4_amplitude_1_rep_6_r_D_2.0.png	 D	 r	 r	 n.a.	 5.416268e-01
5	 7	 362	 flanked	 bex	 16	 1.000000	 2.000000	 flanked_bex_freq_16_amplitude_1_rep_6_l_N_2.0.png	 N	 l	 l	 n.a.	 5.459030e-01
5	 7	 363	 flanked	 bex	 4	 0.500000	 2.000000	 flanked_bex_freq_4_amplitude_0.5_rep_8_l_H_2.0.png	 H	 l	 t	 n.a.	 6.243453e-01
5	 7	 364	 flanked	 bex	 32	 2.000000	 2.000000	 flanked_bex_freq_32_amplitude_2_rep_2_b_N_2.0.png	 N	 b	 l	 n.a.	 6.679751e-01
5	 7	 365	 flanked	 bex	 6	 3.000000	 2.000000	 flanked_bex_freq_6_amplitude_3_rep_5_b_K_2.0.png	 K	 b	 b	 n.a.	 2.901557e-01
5	 7	 366	 flanked	 bex	 8	 0.500000	 2.000000	 flanked_bex_freq_8_amplitude_0.5_rep_2_t_D_2.0.png	 D	 t	 r	 n.a.	 7.738024e-01
5	 7	 367	 flanked	 bex	 2	 1.500000	 2.000000	 flanked_bex_freq_2_amplitude_1.5_rep_0_b_D_2.0.png	 D	 b	 t	 n.a.	 7.423183e-01
5	 7	 368	 flanked	 bex	 8	 3.000000	 2.000000	 flanked_bex_freq_8_amplitude_3_rep_1_b_K_2.0.png	 K	 b	 b	 n.a.	 3.701762e-01
5	 7	 369	 flanked	 bex	 32	 0.250000	 2.000000	 flanked_bex_freq_32_amplitude_0.25_rep_2_l_N_2.0.png	 N	 l	 b	 n.a.	 6.070380e-01
5	 7	 370	 flanked	 bex	 16	 3.000000	 2.000000	 flanked_bex_freq_16_amplitude_3_rep_3_r_N_2.0.png	 N	 r	 r	 n.a.	 2.848718e-01
5	 7	 371	 flanked	 bex	 32	 2.500000	 2.000000	 flanked_bex_freq_32_amplitude_2.5_rep_7_l_H_2.0.png	 H	 l	 l	 n.a.	 3.368126e-01
5	 7	 372	 flanked	 bex	 4	 0.500000	 2.000000	 flanked_bex_freq_4_amplitude_0.5_rep_7_t_K_2.0.png	 K	 t	 b	 n.a.	 6.395817e-01
5	 7	 373	 flanked	 bex	 32	 0.250000	 2.000000	 flanked_bex_freq_32_amplitude_0.25_rep_6_t_N_2.0.png	 N	 t	 r	 n.a.	 8.503296e-01
5	 7	 374	 flanked	 bex	 2	 3.000000	 2.000000	 flanked_bex_freq_2_amplitude_3_rep_3_b_H_2.0.png	 H	 b	 b	 n.a.	 4.455875e-01
5	 7	 375	 flanked	 bex	 16	 2.000000	 2.000000	 flanked_bex_freq_16_amplitude_2_rep_6_t_D_2.0.png	 D	 t	 r	 n.a.	 5.447801e-01
5	 7	 376	 flanked	 bex	 32	 0.500000	 2.000000	 flanked_bex_freq_32_amplitude_0.5_rep_0_b_K_2.0.png	 K	 b	 r	 n.a.	 7.352291e-01
5	 7	 377	 flanked	 bex	 4	 1.000000	 2.000000	 flanked_bex_freq_4_amplitude_1_rep_8_t_H_2.0.png	 H	 t	 t	 n.a.	 5.085213e-01
5	 7	 378	 flanked	 bex	 6	 0.250000	 2.000000	 flanked_bex_freq_6_amplitude_0.25_rep_8_l_D_2.0.png	 D	 l	 t	 n.a.	 8.341170e-01
5	 7	 379	 flanked	 bex	 8	 2.500000	 2.000000	 flanked_bex_freq_8_amplitude_2.5_rep_0_l_N_2.0.png	 N	 l	 l	 n.a.	 2.372886e-01
5	 7	 380	 flanked	 bex	 4	 1.000000	 2.000000	 flanked_bex_freq_4_amplitude_1_rep_3_b_H_2.0.png	 H	 b	 b	 n.a.	 4.046764e-01
5	 7	 381	 flanked	 bex	 16	 0.500000	 2.000000	 flanked_bex_freq_16_amplitude_0.5_rep_4_r_K_2.0.png	 K	 r	 t	 n.a.	 5.611465e-01
5	 7	 382	 flanked	 bex	 4	 1.000000	 2.000000	 flanked_bex_freq_4_amplitude_1_rep_2_b_D_2.0.png	 D	 b	 b	 n.a.	 5.522190e-01
5	 7	 383	 flanked	 bex	 6	 3.000000	 2.000000	 flanked_bex_freq_6_amplitude_3_rep_6_l_D_2.0.png	 D	 l	 l	 n.a.	 2.385073e-01
5	 7	 384	 flanked	 bex	 8	 1.000000	 2.000000	 flanked_bex_freq_8_amplitude_1_rep_6_r_D_2.0.png	 D	 r	 r	 n.a.	 3.488221e-01
5	 7	 385	 flanked	 bex	 32	 1.000000	 2.000000	 flanked_bex_freq_32_amplitude_1_rep_3_l_H_2.0.png	 H	 l	 t	 n.a.	 4.528155e-01
5	 7	 386	 flanked	 bex	 2	 0.250000	 2.000000	 flanked_bex_freq_2_amplitude_0.25_rep_5_t_N_2.0.png	 N	 t	 r	 n.a.	 5.951859e-01
5	 7	 387	 flanked	 bex	 32	 2.500000	 2.000000	 flanked_bex_freq_32_amplitude_2.5_rep_2_b_H_2.0.png	 H	 b	 r	 n.a.	 5.279957e-01
5	 7	 388	 flanked	 bex	 6	 1.500000	 2.000000	 flanked_bex_freq_6_amplitude_1.5_rep_2_t_N_2.0.png	 N	 t	 t	 n.a.	 4.630006e-01
5	 7	 389	 flanked	 bex	 16	 1.500000	 2.000000	 flanked_bex_freq_16_amplitude_1.5_rep_0_b_K_2.0.png	 K	 b	 b	 n.a.	 5.441098e-01
5	 7	 390	 flanked	 bex	 4	 2.000000	 2.000000	 flanked_bex_freq_4_amplitude_2_rep_5_t_D_2.0.png	 D	 t	 t	 n.a.	 7.965674e-01
5	 7	 391	 flanked	 bex	 2	 0.500000	 2.000000	 flanked_bex_freq_2_amplitude_0.5_rep_7_r_D_2.0.png	 D	 r	 t	 n.a.	 5.923875e-01
5	 7	 392	 flanked	 bex	 2	 3.000000	 2.000000	 flanked_bex_freq_2_amplitude_3_rep_4_r_D_2.0.png	 D	 r	 r	 n.a.	 4.328900e-01
5	 7	 393	 flanked	 bex	 2	 1.000000	 2.000000	 flanked_bex_freq_2_amplitude_1_rep_0_t_K_2.0.png	 K	 t	 t	 n.a.	 5.885832e-01
5	 7	 394	 flanked	 bex	 6	 0.250000	 2.000000	 flanked_bex_freq_6_amplitude_0.25_rep_7_l_K_2.0.png	 K	 l	 t	 n.a.	 6.811673e-01
5	 7	 395	 flanked	 bex	 16	 0.500000	 2.000000	 flanked_bex_freq_16_amplitude_0.5_rep_9_b_N_2.0.png	 N	 b	 l	 n.a.	 4.448770e-01
5	 7	 396	 flanked	 bex	 8	 1.500000	 2.000000	 flanked_bex_freq_8_amplitude_1.5_rep_2_b_D_2.0.png	 D	 b	 r	 n.a.	 4.543181e-01
5	 7	 397	 flanked	 bex	 32	 0.500000	 2.000000	 flanked_bex_freq_32_amplitude_0.5_rep_4_t_H_2.0.png	 H	 t	 t	 n.a.	 8.544044e-01
5	 7	 398	 flanked	 bex	 4	 0.250000	 2.000000	 flanked_bex_freq_4_amplitude_0.25_rep_4_l_K_2.0.png	 K	 l	 b	 n.a.	 1.119236e+00
5	 7	 399	 flanked	 bex	 4	 2.000000	 2.000000	 flanked_bex_freq_4_amplitude_2_rep_4_l_N_2.0.png	 N	 l	 l	 n.a.	 5.654486e-01
5	 7	 400	 flanked	 bex	 6	 2.500000	 2.000000	 flanked_bex_freq_6_amplitude_2.5_rep_9_l_K_2.0.png	 K	 l	 l	 n.a.	 2.879137e-01
5	 7	 401	 flanked	 bex	 4	 0.250000	 2.000000	 flanked_bex_freq_4_amplitude_0.25_rep_6_l_D_2.0.png	 D	 l	 r	 n.a.	 4.319045e-01
5	 7	 402	 flanked	 bex	 6	 1.000000	 2.000000	 flanked_bex_freq_6_amplitude_1_rep_8_b_D_2.0.png	 D	 b	 b	 n.a.	 5.947973e-01
5	 7	 403	 flanked	 bex	 16	 1.000000	 2.000000	 flanked_bex_freq_16_amplitude_1_rep_7_t_H_2.0.png	 H	 t	 r	 n.a.	 4.715236e-01
5	 7	 404	 flanked	 bex	 16	 1.500000	 2.000000	 flanked_bex_freq_16_amplitude_1.5_rep_8_l_N_2.0.png	 N	 l	 t	 n.a.	 3.909142e-01
5	 7	 405	 flanked	 bex	 32	 2.000000	 2.000000	 flanked_bex_freq_32_amplitude_2_rep_3_b_K_2.0.png	 K	 b	 b	 n.a.	 5.654731e-01
5	 7	 406	 flanked	 bex	 16	 2.000000	 2.000000	 flanked_bex_freq_16_amplitude_2_rep_0_r_N_2.0.png	 N	 r	 r	 n.a.	 3.172018e-01
5	 7	 407	 flanked	 bex	 16	 3.000000	 2.000000	 flanked_bex_freq_16_amplitude_3_rep_7_r_H_2.0.png	 H	 r	 r	 n.a.	 2.822004e-01
5	 7	 408	 flanked	 bex	 6	 2.500000	 2.000000	 flanked_bex_freq_6_amplitude_2.5_rep_3_l_H_2.0.png	 H	 l	 l	 n.a.	 2.428996e-01
5	 7	 409	 flanked	 bex	 6	 0.500000	 2.000000	 flanked_bex_freq_6_amplitude_0.5_rep_3_t_K_2.0.png	 K	 t	 t	 n.a.	 8.041722e-01
5	 7	 410	 flanked	 bex	 8	 1.000000	 2.000000	 flanked_bex_freq_8_amplitude_1_rep_1_t_H_2.0.png	 H	 t	 r	 n.a.	 8.431013e-01
5	 7	 411	 flanked	 bex	 8	 3.000000	 2.000000	 flanked_bex_freq_8_amplitude_3_rep_4_r_D_2.0.png	 D	 r	 r	 n.a.	 2.672463e-01
5	 7	 412	 flanked	 bex	 6	 1.000000	 2.000000	 flanked_bex_freq_6_amplitude_1_rep_5_b_K_2.0.png	 K	 b	 b	 n.a.	 3.572804e-01
5	 7	 413	 flanked	 bex	 32	 3.000000	 2.000000	 flanked_bex_freq_32_amplitude_3_rep_5_l_K_2.0.png	 K	 l	 l	 n.a.	 3.722730e-01
5	 7	 414	 flanked	 bex	 2	 0.250000	 2.000000	 flanked_bex_freq_2_amplitude_0.25_rep_6_t_H_2.0.png	 H	 t	 t	 n.a.	 6.581442e-01
5	 7	 415	 flanked	 bex	 8	 0.250000	 2.000000	 flanked_bex_freq_8_amplitude_0.25_rep_3_b_D_2.0.png	 D	 b	 t	 n.a.	 4.232118e-01
5	 7	 416	 flanked	 bex	 16	 0.250000	 2.000000	 flanked_bex_freq_16_amplitude_0.25_rep_5_t_H_2.0.png	 H	 t	 b	 n.a.	 4.740187e-01
5	 7	 417	 flanked	 bex	 16	 1.000000	 2.000000	 flanked_bex_freq_16_amplitude_1_rep_5_l_D_2.0.png	 D	 l	 b	 n.a.	 1.028150e+00
5	 7	 418	 flanked	 bex	 16	 0.250000	 2.000000	 flanked_bex_freq_16_amplitude_0.25_rep_1_t_D_2.0.png	 D	 t	 t	 n.a.	 9.621556e-01
5	 7	 419	 flanked	 bex	 16	 1.500000	 2.000000	 flanked_bex_freq_16_amplitude_1.5_rep_7_l_H_2.0.png	 H	 l	 l	 n.a.	 3.013163e-01
5	 7	 420	 flanked	 bex	 32	 3.000000	 2.000000	 flanked_bex_freq_32_amplitude_3_rep_4_b_N_2.0.png	 N	 b	 t	 n.a.	 5.033054e-01
