subject	 session	 trial	 flanked	 distortion	 freq	 amplitude	 spacing	 im_name	 targ_letter	 targ_pos	 response	 eyemovement	 RT
7	 4	 1	 unflanked	 bex	 4	 2.000000	 0.000000	 unflanked_bex_freq_4_amplitude_2_rep_6_l_D.png	 D	 l	 l	 n.a.	 4.046246e-01
7	 4	 2	 unflanked	 bex	 2	 2.500000	 0.000000	 unflanked_bex_freq_2_amplitude_2.5_rep_1_b_K.png	 K	 b	 t	 n.a.	 7.051717e-01
7	 4	 3	 unflanked	 bex	 32	 1.000000	 0.000000	 unflanked_bex_freq_32_amplitude_1_rep_0_t_D.png	 D	 t	 t	 n.a.	 5.555740e-01
7	 4	 4	 unflanked	 bex	 2	 2.000000	 0.000000	 unflanked_bex_freq_2_amplitude_2_rep_9_b_N.png	 N	 b	 r	 n.a.	 7.665244e-01
7	 4	 5	 unflanked	 bex	 4	 0.250000	 0.000000	 unflanked_bex_freq_4_amplitude_0.25_rep_3_l_D.png	 D	 l	 t	 n.a.	 5.415867e-01
7	 4	 6	 unflanked	 bex	 32	 1.000000	 0.000000	 unflanked_bex_freq_32_amplitude_1_rep_5_l_D.png	 D	 l	 b	 n.a.	 5.164484e-01
7	 4	 7	 unflanked	 bex	 32	 0.500000	 0.000000	 unflanked_bex_freq_32_amplitude_0.5_rep_7_l_N.png	 N	 l	 t	 n.a.	 8.164946e-01
7	 4	 8	 unflanked	 bex	 4	 3.000000	 0.000000	 unflanked_bex_freq_4_amplitude_3_rep_9_t_H.png	 H	 t	 t	 n.a.	 6.371531e-01
7	 4	 9	 unflanked	 bex	 6	 1.500000	 0.000000	 unflanked_bex_freq_6_amplitude_1.5_rep_7_b_K.png	 K	 b	 t	 n.a.	 6.444236e-01
7	 4	 10	 unflanked	 bex	 16	 2.000000	 0.000000	 unflanked_bex_freq_16_amplitude_2_rep_6_l_N.png	 N	 l	 l	 n.a.	 3.655846e-01
7	 4	 11	 unflanked	 bex	 32	 3.000000	 0.000000	 unflanked_bex_freq_32_amplitude_3_rep_3_r_H.png	 H	 r	 r	 n.a.	 5.072261e-01
7	 4	 12	 unflanked	 bex	 6	 0.250000	 0.000000	 unflanked_bex_freq_6_amplitude_0.25_rep_5_l_D.png	 D	 l	 t	 n.a.	 5.176013e-01
7	 4	 13	 unflanked	 bex	 2	 3.000000	 0.000000	 unflanked_bex_freq_2_amplitude_3_rep_8_t_K.png	 K	 t	 t	 n.a.	 5.062743e-01
7	 4	 14	 unflanked	 bex	 32	 1.000000	 0.000000	 unflanked_bex_freq_32_amplitude_1_rep_1_l_K.png	 K	 l	 l	 n.a.	 6.327572e-01
7	 4	 15	 unflanked	 bex	 8	 2.000000	 0.000000	 unflanked_bex_freq_8_amplitude_2_rep_7_r_N.png	 N	 r	 r	 n.a.	 4.316818e-01
7	 4	 16	 unflanked	 bex	 4	 1.000000	 0.000000	 unflanked_bex_freq_4_amplitude_1_rep_4_b_N.png	 N	 b	 t	 n.a.	 6.846757e-01
7	 4	 17	 unflanked	 bex	 16	 0.500000	 0.000000	 unflanked_bex_freq_16_amplitude_0.5_rep_3_r_K.png	 K	 r	 b	 n.a.	 4.571036e-01
7	 4	 18	 unflanked	 bex	 4	 1.500000	 0.000000	 unflanked_bex_freq_4_amplitude_1.5_rep_3_b_K.png	 K	 b	 t	 n.a.	 4.407727e-01
7	 4	 19	 unflanked	 bex	 32	 1.500000	 0.000000	 unflanked_bex_freq_32_amplitude_1.5_rep_1_l_K.png	 K	 l	 l	 n.a.	 5.424382e-01
7	 4	 20	 unflanked	 bex	 32	 1.500000	 0.000000	 unflanked_bex_freq_32_amplitude_1.5_rep_2_l_D.png	 D	 l	 l	 n.a.	 4.947809e-01
7	 4	 21	 unflanked	 bex	 16	 1.500000	 0.000000	 unflanked_bex_freq_16_amplitude_1.5_rep_7_r_K.png	 K	 r	 b	 n.a.	 5.875492e-01
7	 4	 22	 unflanked	 bex	 8	 2.000000	 0.000000	 unflanked_bex_freq_8_amplitude_2_rep_8_t_K.png	 K	 t	 r	 n.a.	 7.284111e-01
7	 4	 23	 unflanked	 bex	 6	 0.250000	 0.000000	 unflanked_bex_freq_6_amplitude_0.25_rep_9_t_H.png	 H	 t	 t	 n.a.	 6.337527e-01
7	 4	 24	 unflanked	 bex	 6	 0.500000	 0.000000	 unflanked_bex_freq_6_amplitude_0.5_rep_9_t_H.png	 H	 t	 t	 n.a.	 6.490920e-01
7	 4	 25	 unflanked	 bex	 8	 0.250000	 0.000000	 unflanked_bex_freq_8_amplitude_0.25_rep_2_t_D.png	 D	 t	 l	 n.a.	 8.086464e-01
7	 4	 26	 unflanked	 bex	 8	 1.000000	 0.000000	 unflanked_bex_freq_8_amplitude_1_rep_8_b_D.png	 D	 b	 r	 n.a.	 8.502483e-01
7	 4	 27	 unflanked	 bex	 6	 2.000000	 0.000000	 unflanked_bex_freq_6_amplitude_2_rep_3_t_K.png	 K	 t	 t	 n.a.	 4.933636e-01
7	 4	 28	 unflanked	 bex	 2	 3.000000	 0.000000	 unflanked_bex_freq_2_amplitude_3_rep_5_r_K.png	 K	 r	 t	 n.a.	 7.226149e-01
7	 4	 29	 unflanked	 bex	 32	 0.500000	 0.000000	 unflanked_bex_freq_32_amplitude_0.5_rep_3_t_N.png	 N	 t	 r	 n.a.	 6.511907e-01
7	 4	 30	 unflanked	 bex	 16	 0.250000	 0.000000	 unflanked_bex_freq_16_amplitude_0.25_rep_7_l_D.png	 D	 l	 l	 n.a.	 8.451722e-01
7	 4	 31	 unflanked	 bex	 2	 2.000000	 0.000000	 unflanked_bex_freq_2_amplitude_2_rep_7_b_H.png	 H	 b	 b	 n.a.	 1.038131e+00
7	 4	 32	 unflanked	 bex	 8	 3.000000	 0.000000	 unflanked_bex_freq_8_amplitude_3_rep_0_b_D.png	 D	 b	 b	 n.a.	 6.567076e-01
7	 4	 33	 unflanked	 bex	 2	 0.250000	 0.000000	 unflanked_bex_freq_2_amplitude_0.25_rep_8_l_N.png	 N	 l	 t	 n.a.	 1.084673e+00
7	 4	 34	 unflanked	 bex	 2	 1.500000	 0.000000	 unflanked_bex_freq_2_amplitude_1.5_rep_7_b_N.png	 N	 b	 b	 n.a.	 8.411268e-01
7	 4	 35	 unflanked	 bex	 8	 1.000000	 0.000000	 unflanked_bex_freq_8_amplitude_1_rep_4_b_H.png	 H	 b	 t	 n.a.	 8.454598e-01
7	 4	 36	 unflanked	 bex	 6	 3.000000	 0.000000	 unflanked_bex_freq_6_amplitude_3_rep_9_l_K.png	 K	 l	 l	 n.a.	 4.541386e-01
7	 4	 37	 unflanked	 bex	 6	 2.500000	 0.000000	 unflanked_bex_freq_6_amplitude_2.5_rep_8_r_N.png	 N	 r	 r	 n.a.	 5.257555e-01
7	 4	 38	 unflanked	 bex	 32	 1.500000	 0.000000	 unflanked_bex_freq_32_amplitude_1.5_rep_3_l_N.png	 N	 l	 l	 n.a.	 5.277644e-01
7	 4	 39	 unflanked	 bex	 6	 1.500000	 0.000000	 unflanked_bex_freq_6_amplitude_1.5_rep_5_b_N.png	 N	 b	 l	 n.a.	 8.301530e-01
7	 4	 40	 unflanked	 bex	 4	 3.000000	 0.000000	 unflanked_bex_freq_4_amplitude_3_rep_2_t_D.png	 D	 t	 t	 n.a.	 3.665778e-01
7	 4	 41	 unflanked	 bex	 32	 0.500000	 0.000000	 unflanked_bex_freq_32_amplitude_0.5_rep_5_l_D.png	 D	 l	 l	 n.a.	 8.044204e-01
7	 4	 42	 unflanked	 bex	 2	 0.250000	 0.000000	 unflanked_bex_freq_2_amplitude_0.25_rep_4_r_N.png	 N	 r	 b	 n.a.	 6.233416e-01
7	 4	 43	 unflanked	 bex	 8	 0.500000	 0.000000	 unflanked_bex_freq_8_amplitude_0.5_rep_3_t_N.png	 N	 t	 t	 n.a.	 4.402618e-01
7	 4	 44	 unflanked	 bex	 8	 0.500000	 0.000000	 unflanked_bex_freq_8_amplitude_0.5_rep_2_b_K.png	 K	 b	 l	 n.a.	 1.011587e+00
7	 4	 45	 unflanked	 bex	 32	 3.000000	 0.000000	 unflanked_bex_freq_32_amplitude_3_rep_5_r_N.png	 N	 r	 r	 n.a.	 5.372256e-01
7	 4	 46	 unflanked	 bex	 2	 1.000000	 0.000000	 unflanked_bex_freq_2_amplitude_1_rep_7_t_K.png	 K	 t	 r	 n.a.	 9.227933e-01
7	 4	 47	 unflanked	 bex	 16	 1.500000	 0.000000	 unflanked_bex_freq_16_amplitude_1.5_rep_6_t_N.png	 N	 t	 t	 n.a.	 5.958615e-01
7	 4	 48	 unflanked	 bex	 6	 0.500000	 0.000000	 unflanked_bex_freq_6_amplitude_0.5_rep_8_r_K.png	 K	 r	 l	 n.a.	 4.847175e-01
7	 4	 49	 unflanked	 bex	 2	 2.000000	 0.000000	 unflanked_bex_freq_2_amplitude_2_rep_2_r_D.png	 D	 r	 r	 n.a.	 4.137950e-01
7	 4	 50	 unflanked	 bex	 4	 2.500000	 0.000000	 unflanked_bex_freq_4_amplitude_2.5_rep_9_l_H.png	 H	 l	 l	 n.a.	 4.607148e-01
7	 4	 51	 unflanked	 bex	 32	 3.000000	 0.000000	 unflanked_bex_freq_32_amplitude_3_rep_1_l_K.png	 K	 l	 l	 n.a.	 4.060436e-01
7	 4	 52	 unflanked	 bex	 32	 1.000000	 0.000000	 unflanked_bex_freq_32_amplitude_1_rep_4_r_D.png	 D	 r	 r	 n.a.	 4.295625e-01
7	 4	 53	 unflanked	 bex	 6	 1.500000	 0.000000	 unflanked_bex_freq_6_amplitude_1.5_rep_3_t_N.png	 N	 t	 t	 n.a.	 6.321343e-01
7	 4	 54	 unflanked	 bex	 8	 1.500000	 0.000000	 unflanked_bex_freq_8_amplitude_1.5_rep_9_t_H.png	 H	 t	 r	 n.a.	 5.137073e-01
7	 4	 55	 unflanked	 bex	 2	 2.500000	 0.000000	 unflanked_bex_freq_2_amplitude_2.5_rep_6_l_H.png	 H	 l	 l	 n.a.	 4.967278e-01
7	 4	 56	 unflanked	 bex	 2	 1.500000	 0.000000	 unflanked_bex_freq_2_amplitude_1.5_rep_5_l_H.png	 H	 l	 t	 n.a.	 4.792172e-01
7	 4	 57	 unflanked	 bex	 2	 2.500000	 0.000000	 unflanked_bex_freq_2_amplitude_2.5_rep_3_b_K.png	 K	 b	 l	 n.a.	 6.470990e-01
7	 4	 58	 unflanked	 bex	 16	 2.000000	 0.000000	 unflanked_bex_freq_16_amplitude_2_rep_8_b_D.png	 D	 b	 b	 n.a.	 4.533520e-01
7	 4	 59	 unflanked	 bex	 8	 2.000000	 0.000000	 unflanked_bex_freq_8_amplitude_2_rep_3_t_H.png	 H	 t	 t	 n.a.	 4.960222e-01
7	 4	 60	 unflanked	 bex	 4	 3.000000	 0.000000	 unflanked_bex_freq_4_amplitude_3_rep_3_b_D.png	 D	 b	 b	 n.a.	 4.152712e-01
7	 4	 61	 unflanked	 bex	 6	 1.500000	 0.000000	 unflanked_bex_freq_6_amplitude_1.5_rep_0_t_D.png	 D	 t	 t	 n.a.	 4.863164e-01
7	 4	 62	 unflanked	 bex	 4	 1.500000	 0.000000	 unflanked_bex_freq_4_amplitude_1.5_rep_8_t_K.png	 K	 t	 b	 n.a.	 4.548765e-01
7	 4	 63	 unflanked	 bex	 32	 2.000000	 0.000000	 unflanked_bex_freq_32_amplitude_2_rep_8_b_H.png	 H	 b	 t	 n.a.	 4.380788e-01
7	 4	 64	 unflanked	 bex	 16	 2.500000	 0.000000	 unflanked_bex_freq_16_amplitude_2.5_rep_3_l_N.png	 N	 l	 l	 n.a.	 3.419532e-01
7	 4	 65	 unflanked	 bex	 8	 2.000000	 0.000000	 unflanked_bex_freq_8_amplitude_2_rep_2_t_N.png	 N	 t	 t	 n.a.	 4.133281e-01
7	 4	 66	 unflanked	 bex	 2	 0.500000	 0.000000	 unflanked_bex_freq_2_amplitude_0.5_rep_1_r_H.png	 H	 r	 t	 n.a.	 5.375826e-01
7	 4	 67	 unflanked	 bex	 6	 2.500000	 0.000000	 unflanked_bex_freq_6_amplitude_2.5_rep_7_r_N.png	 N	 r	 r	 n.a.	 4.331341e-01
7	 4	 68	 unflanked	 bex	 2	 3.000000	 0.000000	 unflanked_bex_freq_2_amplitude_3_rep_7_r_D.png	 D	 r	 r	 n.a.	 5.394994e-01
7	 4	 69	 unflanked	 bex	 2	 2.500000	 0.000000	 unflanked_bex_freq_2_amplitude_2.5_rep_5_b_K.png	 K	 b	 t	 n.a.	 5.547815e-01
7	 4	 70	 unflanked	 bex	 4	 2.000000	 0.000000	 unflanked_bex_freq_4_amplitude_2_rep_3_r_H.png	 H	 r	 r	 n.a.	 4.590233e-01
7	 4	 71	 unflanked	 bex	 32	 2.500000	 0.000000	 unflanked_bex_freq_32_amplitude_2.5_rep_4_r_N.png	 N	 r	 r	 n.a.	 4.845576e-01
7	 4	 72	 unflanked	 bex	 16	 3.000000	 0.000000	 unflanked_bex_freq_16_amplitude_3_rep_1_r_K.png	 K	 r	 r	 n.a.	 3.837440e-01
7	 4	 73	 unflanked	 bex	 4	 1.000000	 0.000000	 unflanked_bex_freq_4_amplitude_1_rep_7_l_K.png	 K	 l	 t	 n.a.	 4.689807e-01
7	 4	 74	 unflanked	 bex	 32	 0.500000	 0.000000	 unflanked_bex_freq_32_amplitude_0.5_rep_4_b_H.png	 H	 b	 t	 n.a.	 6.127873e-01
7	 4	 75	 unflanked	 bex	 16	 0.500000	 0.000000	 unflanked_bex_freq_16_amplitude_0.5_rep_7_t_D.png	 D	 t	 l	 n.a.	 6.129685e-01
7	 4	 76	 unflanked	 bex	 6	 1.000000	 0.000000	 unflanked_bex_freq_6_amplitude_1_rep_4_l_K.png	 K	 l	 l	 n.a.	 9.139322e-01
7	 4	 77	 unflanked	 bex	 8	 3.000000	 0.000000	 unflanked_bex_freq_8_amplitude_3_rep_7_t_D.png	 D	 t	 t	 n.a.	 4.542532e-01
7	 4	 78	 unflanked	 bex	 4	 1.000000	 0.000000	 unflanked_bex_freq_4_amplitude_1_rep_9_t_K.png	 K	 t	 t	 n.a.	 8.624586e-01
7	 4	 79	 unflanked	 bex	 4	 2.000000	 0.000000	 unflanked_bex_freq_4_amplitude_2_rep_5_t_H.png	 H	 t	 t	 n.a.	 6.764606e-01
7	 4	 80	 unflanked	 bex	 2	 2.500000	 0.000000	 unflanked_bex_freq_2_amplitude_2.5_rep_2_b_D.png	 D	 b	 r	 n.a.	 7.614307e-01
7	 4	 81	 unflanked	 bex	 8	 1.500000	 0.000000	 unflanked_bex_freq_8_amplitude_1.5_rep_2_l_H.png	 H	 l	 l	 n.a.	 4.599666e-01
7	 4	 82	 unflanked	 bex	 6	 1.000000	 0.000000	 unflanked_bex_freq_6_amplitude_1_rep_5_b_N.png	 N	 b	 b	 n.a.	 8.153881e-01
7	 4	 83	 unflanked	 bex	 16	 0.500000	 0.000000	 unflanked_bex_freq_16_amplitude_0.5_rep_0_r_N.png	 N	 r	 t	 n.a.	 9.198127e-01
7	 4	 84	 unflanked	 bex	 16	 2.500000	 0.000000	 unflanked_bex_freq_16_amplitude_2.5_rep_6_r_K.png	 K	 r	 r	 n.a.	 3.901035e-01
7	 4	 85	 unflanked	 bex	 8	 3.000000	 0.000000	 unflanked_bex_freq_8_amplitude_3_rep_9_b_N.png	 N	 b	 b	 n.a.	 4.070315e-01
7	 4	 86	 unflanked	 bex	 4	 3.000000	 0.000000	 unflanked_bex_freq_4_amplitude_3_rep_4_b_H.png	 H	 b	 b	 n.a.	 5.448924e-01
7	 4	 87	 unflanked	 bex	 16	 2.500000	 0.000000	 unflanked_bex_freq_16_amplitude_2.5_rep_5_l_N.png	 N	 l	 l	 n.a.	 3.852714e-01
7	 4	 88	 unflanked	 bex	 8	 1.500000	 0.000000	 unflanked_bex_freq_8_amplitude_1.5_rep_7_r_K.png	 K	 r	 t	 n.a.	 6.716624e-01
7	 4	 89	 unflanked	 bex	 32	 1.000000	 0.000000	 unflanked_bex_freq_32_amplitude_1_rep_2_t_N.png	 N	 t	 t	 n.a.	 6.678213e-01
7	 4	 90	 unflanked	 bex	 4	 0.250000	 0.000000	 unflanked_bex_freq_4_amplitude_0.25_rep_8_r_N.png	 N	 r	 r	 n.a.	 6.644021e-01
7	 4	 91	 unflanked	 bex	 32	 2.000000	 0.000000	 unflanked_bex_freq_32_amplitude_2_rep_0_r_N.png	 N	 r	 r	 n.a.	 5.846903e-01
7	 4	 92	 unflanked	 bex	 2	 2.500000	 0.000000	 unflanked_bex_freq_2_amplitude_2.5_rep_0_r_H.png	 H	 r	 r	 n.a.	 9.345422e-01
7	 4	 93	 unflanked	 bex	 2	 3.000000	 0.000000	 unflanked_bex_freq_2_amplitude_3_rep_0_t_H.png	 H	 t	 t	 n.a.	 4.958288e-01
7	 4	 94	 unflanked	 bex	 6	 2.000000	 0.000000	 unflanked_bex_freq_6_amplitude_2_rep_6_l_N.png	 N	 l	 l	 n.a.	 4.722698e-01
7	 4	 95	 unflanked	 bex	 32	 2.000000	 0.000000	 unflanked_bex_freq_32_amplitude_2_rep_1_r_K.png	 K	 r	 t	 n.a.	 5.888960e-01
7	 4	 96	 unflanked	 bex	 4	 0.500000	 0.000000	 unflanked_bex_freq_4_amplitude_0.5_rep_0_r_D.png	 D	 r	 r	 n.a.	 4.170541e-01
7	 4	 97	 unflanked	 bex	 6	 3.000000	 0.000000	 unflanked_bex_freq_6_amplitude_3_rep_4_l_N.png	 N	 l	 l	 n.a.	 3.864828e-01
7	 4	 98	 unflanked	 bex	 16	 1.000000	 0.000000	 unflanked_bex_freq_16_amplitude_1_rep_7_l_H.png	 H	 l	 t	 n.a.	 6.726525e-01
7	 4	 99	 unflanked	 bex	 32	 3.000000	 0.000000	 unflanked_bex_freq_32_amplitude_3_rep_2_l_N.png	 N	 l	 l	 n.a.	 2.691897e-01
7	 4	 100	 unflanked	 bex	 6	 2.000000	 0.000000	 unflanked_bex_freq_6_amplitude_2_rep_0_r_H.png	 H	 r	 r	 n.a.	 4.463917e-01
7	 4	 101	 unflanked	 bex	 6	 2.500000	 0.000000	 unflanked_bex_freq_6_amplitude_2.5_rep_3_b_K.png	 K	 b	 b	 n.a.	 7.614300e-01
7	 4	 102	 unflanked	 bex	 2	 1.000000	 0.000000	 unflanked_bex_freq_2_amplitude_1_rep_3_l_K.png	 K	 l	 t	 n.a.	 1.098818e+00
7	 4	 103	 unflanked	 bex	 32	 1.500000	 0.000000	 unflanked_bex_freq_32_amplitude_1.5_rep_5_t_H.png	 H	 t	 t	 n.a.	 7.981169e-01
7	 4	 104	 unflanked	 bex	 4	 1.500000	 0.000000	 unflanked_bex_freq_4_amplitude_1.5_rep_6_t_N.png	 N	 t	 t	 n.a.	 6.253148e-01
7	 4	 105	 unflanked	 bex	 4	 1.500000	 0.000000	 unflanked_bex_freq_4_amplitude_1.5_rep_7_b_N.png	 N	 b	 b	 n.a.	 5.264994e-01
7	 4	 106	 unflanked	 bex	 2	 2.000000	 0.000000	 unflanked_bex_freq_2_amplitude_2_rep_5_r_K.png	 K	 r	 t	 n.a.	 3.997655e-01
7	 4	 107	 unflanked	 bex	 6	 2.500000	 0.000000	 unflanked_bex_freq_6_amplitude_2.5_rep_9_r_H.png	 H	 r	 r	 n.a.	 2.691132e-01
7	 4	 108	 unflanked	 bex	 8	 1.000000	 0.000000	 unflanked_bex_freq_8_amplitude_1_rep_3_r_N.png	 N	 r	 t	 n.a.	 5.525726e-01
7	 4	 109	 unflanked	 bex	 4	 3.000000	 0.000000	 unflanked_bex_freq_4_amplitude_3_rep_8_l_N.png	 N	 l	 l	 n.a.	 2.676007e-01
7	 4	 110	 unflanked	 bex	 16	 2.500000	 0.000000	 unflanked_bex_freq_16_amplitude_2.5_rep_0_t_H.png	 H	 t	 t	 n.a.	 3.676850e-01
7	 4	 111	 unflanked	 bex	 2	 1.500000	 0.000000	 unflanked_bex_freq_2_amplitude_1.5_rep_9_t_H.png	 H	 t	 t	 n.a.	 6.483261e-01
7	 4	 112	 unflanked	 bex	 2	 1.500000	 0.000000	 unflanked_bex_freq_2_amplitude_1.5_rep_6_t_H.png	 H	 t	 t	 n.a.	 4.403569e-01
7	 4	 113	 unflanked	 bex	 8	 3.000000	 0.000000	 unflanked_bex_freq_8_amplitude_3_rep_4_b_N.png	 N	 b	 b	 n.a.	 4.046849e-01
7	 4	 114	 unflanked	 bex	 2	 3.000000	 0.000000	 unflanked_bex_freq_2_amplitude_3_rep_4_r_H.png	 H	 r	 t	 n.a.	 4.306514e-01
7	 4	 115	 unflanked	 bex	 2	 2.500000	 0.000000	 unflanked_bex_freq_2_amplitude_2.5_rep_4_l_D.png	 D	 l	 l	 n.a.	 3.258498e-01
7	 4	 116	 unflanked	 bex	 8	 0.500000	 0.000000	 unflanked_bex_freq_8_amplitude_0.5_rep_4_r_D.png	 D	 r	 t	 n.a.	 4.182150e-01
7	 4	 117	 unflanked	 bex	 2	 0.250000	 0.000000	 unflanked_bex_freq_2_amplitude_0.25_rep_3_l_H.png	 H	 l	 b	 n.a.	 4.487409e-01
7	 4	 118	 unflanked	 bex	 6	 1.000000	 0.000000	 unflanked_bex_freq_6_amplitude_1_rep_9_r_N.png	 N	 r	 r	 n.a.	 6.257236e-01
7	 4	 119	 unflanked	 bex	 4	 1.500000	 0.000000	 unflanked_bex_freq_4_amplitude_1.5_rep_5_r_K.png	 K	 r	 l	 n.a.	 4.769647e-01
7	 4	 120	 unflanked	 bex	 16	 2.500000	 0.000000	 unflanked_bex_freq_16_amplitude_2.5_rep_4_r_H.png	 H	 r	 r	 n.a.	 3.531904e-01
7	 4	 121	 unflanked	 bex	 6	 2.500000	 0.000000	 unflanked_bex_freq_6_amplitude_2.5_rep_1_b_H.png	 H	 b	 b	 n.a.	 4.134265e-01
7	 4	 122	 unflanked	 bex	 6	 0.250000	 0.000000	 unflanked_bex_freq_6_amplitude_0.25_rep_1_t_N.png	 N	 t	 t	 n.a.	 4.404578e-01
7	 4	 123	 unflanked	 bex	 6	 1.000000	 0.000000	 unflanked_bex_freq_6_amplitude_1_rep_1_l_N.png	 N	 l	 l	 n.a.	 5.452785e-01
7	 4	 124	 unflanked	 bex	 8	 1.500000	 0.000000	 unflanked_bex_freq_8_amplitude_1.5_rep_0_r_K.png	 K	 r	 r	 n.a.	 6.193054e-01
7	 4	 125	 unflanked	 bex	 4	 2.500000	 0.000000	 unflanked_bex_freq_4_amplitude_2.5_rep_2_t_N.png	 N	 t	 t	 n.a.	 3.694632e-01
7	 4	 126	 unflanked	 bex	 8	 0.500000	 0.000000	 unflanked_bex_freq_8_amplitude_0.5_rep_9_t_N.png	 N	 t	 t	 n.a.	 4.231233e-01
7	 4	 127	 unflanked	 bex	 2	 2.000000	 0.000000	 unflanked_bex_freq_2_amplitude_2_rep_0_r_N.png	 N	 r	 l	 n.a.	 4.442966e-01
7	 4	 128	 unflanked	 bex	 2	 1.000000	 0.000000	 unflanked_bex_freq_2_amplitude_1_rep_9_t_N.png	 N	 t	 t	 n.a.	 5.489437e-01
7	 4	 129	 unflanked	 bex	 16	 1.500000	 0.000000	 unflanked_bex_freq_16_amplitude_1.5_rep_8_r_D.png	 D	 r	 r	 n.a.	 4.205941e-01
7	 4	 130	 unflanked	 bex	 8	 3.000000	 0.000000	 unflanked_bex_freq_8_amplitude_3_rep_3_l_H.png	 H	 l	 l	 n.a.	 2.820125e-01
7	 4	 131	 unflanked	 bex	 32	 0.500000	 0.000000	 unflanked_bex_freq_32_amplitude_0.5_rep_2_r_D.png	 D	 r	 t	 n.a.	 7.489647e-01
7	 4	 132	 unflanked	 bex	 8	 0.500000	 0.000000	 unflanked_bex_freq_8_amplitude_0.5_rep_8_r_K.png	 K	 r	 l	 n.a.	 7.917625e-01
7	 4	 133	 unflanked	 bex	 4	 2.000000	 0.000000	 unflanked_bex_freq_4_amplitude_2_rep_7_l_N.png	 N	 l	 l	 n.a.	 3.919970e-01
7	 4	 134	 unflanked	 bex	 8	 0.250000	 0.000000	 unflanked_bex_freq_8_amplitude_0.25_rep_9_t_D.png	 D	 t	 t	 n.a.	 1.055147e+00
7	 4	 135	 unflanked	 bex	 4	 0.500000	 0.000000	 unflanked_bex_freq_4_amplitude_0.5_rep_5_r_K.png	 K	 r	 b	 n.a.	 7.523232e-01
7	 4	 136	 unflanked	 bex	 8	 1.500000	 0.000000	 unflanked_bex_freq_8_amplitude_1.5_rep_8_l_D.png	 D	 l	 l	 n.a.	 3.722685e-01
7	 4	 137	 unflanked	 bex	 8	 0.250000	 0.000000	 unflanked_bex_freq_8_amplitude_0.25_rep_0_t_D.png	 D	 t	 t	 n.a.	 5.678323e-01
7	 4	 138	 unflanked	 bex	 4	 1.500000	 0.000000	 unflanked_bex_freq_4_amplitude_1.5_rep_0_l_H.png	 H	 l	 l	 n.a.	 5.612997e-01
7	 4	 139	 unflanked	 bex	 16	 2.500000	 0.000000	 unflanked_bex_freq_16_amplitude_2.5_rep_7_b_K.png	 K	 b	 b	 n.a.	 4.331048e-01
7	 4	 140	 unflanked	 bex	 32	 2.500000	 0.000000	 unflanked_bex_freq_32_amplitude_2.5_rep_7_l_H.png	 H	 l	 t	 n.a.	 5.555424e-01
7	 4	 141	 unflanked	 bex	 8	 2.500000	 0.000000	 unflanked_bex_freq_8_amplitude_2.5_rep_7_t_K.png	 K	 t	 t	 n.a.	 3.556222e-01
7	 4	 142	 unflanked	 bex	 4	 1.000000	 0.000000	 unflanked_bex_freq_4_amplitude_1_rep_0_b_H.png	 H	 b	 r	 n.a.	 9.730136e-01
7	 4	 143	 unflanked	 bex	 32	 0.250000	 0.000000	 unflanked_bex_freq_32_amplitude_0.25_rep_3_r_H.png	 H	 r	 t	 n.a.	 5.116981e-01
7	 4	 144	 unflanked	 bex	 4	 1.000000	 0.000000	 unflanked_bex_freq_4_amplitude_1_rep_8_t_H.png	 H	 t	 b	 n.a.	 9.545632e-01
7	 4	 145	 unflanked	 bex	 6	 1.000000	 0.000000	 unflanked_bex_freq_6_amplitude_1_rep_6_r_N.png	 N	 r	 t	 n.a.	 5.402318e-01
7	 4	 146	 unflanked	 bex	 4	 3.000000	 0.000000	 unflanked_bex_freq_4_amplitude_3_rep_1_r_K.png	 K	 r	 l	 n.a.	 6.677678e-01
7	 4	 147	 unflanked	 bex	 32	 2.000000	 0.000000	 unflanked_bex_freq_32_amplitude_2_rep_4_t_H.png	 H	 t	 t	 n.a.	 5.264703e-01
7	 4	 148	 unflanked	 bex	 32	 1.000000	 0.000000	 unflanked_bex_freq_32_amplitude_1_rep_7_l_K.png	 K	 l	 l	 n.a.	 6.750322e-01
7	 4	 149	 unflanked	 bex	 16	 0.250000	 0.000000	 unflanked_bex_freq_16_amplitude_0.25_rep_6_l_N.png	 N	 l	 t	 n.a.	 6.633592e-01
7	 4	 150	 unflanked	 bex	 4	 2.000000	 0.000000	 unflanked_bex_freq_4_amplitude_2_rep_4_l_K.png	 K	 l	 l	 n.a.	 7.483959e-01
7	 4	 151	 unflanked	 bex	 2	 1.500000	 0.000000	 unflanked_bex_freq_2_amplitude_1.5_rep_4_r_H.png	 H	 r	 t	 n.a.	 1.133564e+00
7	 4	 152	 unflanked	 bex	 8	 2.500000	 0.000000	 unflanked_bex_freq_8_amplitude_2.5_rep_3_t_H.png	 H	 t	 t	 n.a.	 4.634356e-01
7	 4	 153	 unflanked	 bex	 2	 1.000000	 0.000000	 unflanked_bex_freq_2_amplitude_1_rep_2_r_K.png	 K	 r	 b	 n.a.	 9.023308e-01
7	 4	 154	 unflanked	 bex	 32	 3.000000	 0.000000	 unflanked_bex_freq_32_amplitude_3_rep_9_r_H.png	 H	 r	 r	 n.a.	 6.034754e-01
7	 4	 155	 unflanked	 bex	 16	 2.500000	 0.000000	 unflanked_bex_freq_16_amplitude_2.5_rep_1_t_N.png	 N	 t	 t	 n.a.	 4.442248e-01
7	 4	 156	 unflanked	 bex	 4	 0.500000	 0.000000	 unflanked_bex_freq_4_amplitude_0.5_rep_1_t_N.png	 N	 t	 t	 n.a.	 4.447614e-01
7	 4	 157	 unflanked	 bex	 6	 0.500000	 0.000000	 unflanked_bex_freq_6_amplitude_0.5_rep_6_t_N.png	 N	 t	 t	 n.a.	 5.127438e-01
7	 4	 158	 unflanked	 bex	 6	 1.500000	 0.000000	 unflanked_bex_freq_6_amplitude_1.5_rep_2_b_D.png	 D	 b	 b	 n.a.	 4.440257e-01
7	 4	 159	 unflanked	 bex	 2	 3.000000	 0.000000	 unflanked_bex_freq_2_amplitude_3_rep_2_r_K.png	 K	 r	 t	 n.a.	 6.452550e-01
7	 4	 160	 unflanked	 bex	 16	 3.000000	 0.000000	 unflanked_bex_freq_16_amplitude_3_rep_6_l_K.png	 K	 l	 l	 n.a.	 3.424919e-01
7	 4	 161	 unflanked	 bex	 32	 0.250000	 0.000000	 unflanked_bex_freq_32_amplitude_0.25_rep_7_l_H.png	 H	 l	 t	 n.a.	 4.627617e-01
7	 4	 162	 unflanked	 bex	 8	 2.500000	 0.000000	 unflanked_bex_freq_8_amplitude_2.5_rep_1_t_H.png	 H	 t	 t	 n.a.	 4.157829e-01
7	 4	 163	 unflanked	 bex	 2	 1.500000	 0.000000	 unflanked_bex_freq_2_amplitude_1.5_rep_3_b_H.png	 H	 b	 l	 n.a.	 9.968898e-01
7	 4	 164	 unflanked	 bex	 6	 1.000000	 0.000000	 unflanked_bex_freq_6_amplitude_1_rep_8_r_K.png	 K	 r	 t	 n.a.	 6.436878e-01
7	 4	 165	 unflanked	 bex	 6	 0.250000	 0.000000	 unflanked_bex_freq_6_amplitude_0.25_rep_4_b_N.png	 N	 b	 r	 n.a.	 7.146714e-01
7	 4	 166	 unflanked	 bex	 32	 2.500000	 0.000000	 unflanked_bex_freq_32_amplitude_2.5_rep_3_b_N.png	 N	 b	 t	 n.a.	 6.999581e-01
7	 4	 167	 unflanked	 bex	 8	 1.500000	 0.000000	 unflanked_bex_freq_8_amplitude_1.5_rep_4_r_N.png	 N	 r	 r	 n.a.	 4.255847e-01
7	 4	 168	 unflanked	 bex	 2	 2.000000	 0.000000	 unflanked_bex_freq_2_amplitude_2_rep_8_t_D.png	 D	 t	 t	 n.a.	 5.523619e-01
7	 4	 169	 unflanked	 bex	 16	 1.000000	 0.000000	 unflanked_bex_freq_16_amplitude_1_rep_8_t_H.png	 H	 t	 t	 n.a.	 9.032637e-01
7	 4	 170	 unflanked	 bex	 6	 1.500000	 0.000000	 unflanked_bex_freq_6_amplitude_1.5_rep_1_b_N.png	 N	 b	 b	 n.a.	 4.472741e-01
7	 4	 171	 unflanked	 bex	 2	 1.500000	 0.000000	 unflanked_bex_freq_2_amplitude_1.5_rep_0_b_K.png	 K	 b	 r	 n.a.	 5.725975e-01
7	 4	 172	 unflanked	 bex	 4	 0.500000	 0.000000	 unflanked_bex_freq_4_amplitude_0.5_rep_4_l_K.png	 K	 l	 b	 n.a.	 6.784080e-01
7	 4	 173	 unflanked	 bex	 16	 1.000000	 0.000000	 unflanked_bex_freq_16_amplitude_1_rep_4_t_K.png	 K	 t	 t	 n.a.	 6.792695e-01
7	 4	 174	 unflanked	 bex	 2	 1.500000	 0.000000	 unflanked_bex_freq_2_amplitude_1.5_rep_2_r_K.png	 K	 r	 r	 n.a.	 5.781531e-01
7	 4	 175	 unflanked	 bex	 6	 3.000000	 0.000000	 unflanked_bex_freq_6_amplitude_3_rep_7_l_H.png	 H	 l	 l	 n.a.	 4.182007e-01
7	 4	 176	 unflanked	 bex	 4	 1.500000	 0.000000	 unflanked_bex_freq_4_amplitude_1.5_rep_1_b_D.png	 D	 b	 b	 n.a.	 4.456569e-01
7	 4	 177	 unflanked	 bex	 16	 3.000000	 0.000000	 unflanked_bex_freq_16_amplitude_3_rep_0_b_K.png	 K	 b	 b	 n.a.	 4.168490e-01
7	 4	 178	 unflanked	 bex	 2	 1.000000	 0.000000	 unflanked_bex_freq_2_amplitude_1_rep_6_t_N.png	 N	 t	 t	 n.a.	 3.656472e-01
7	 4	 179	 unflanked	 bex	 16	 3.000000	 0.000000	 unflanked_bex_freq_16_amplitude_3_rep_3_b_N.png	 N	 b	 b	 n.a.	 3.610915e-01
7	 4	 180	 unflanked	 bex	 32	 3.000000	 0.000000	 unflanked_bex_freq_32_amplitude_3_rep_6_l_N.png	 N	 l	 l	 n.a.	 3.427061e-01
7	 4	 181	 unflanked	 bex	 8	 3.000000	 0.000000	 unflanked_bex_freq_8_amplitude_3_rep_2_l_D.png	 D	 l	 l	 n.a.	 3.245420e-01
7	 4	 182	 unflanked	 bex	 16	 0.250000	 0.000000	 unflanked_bex_freq_16_amplitude_0.25_rep_2_l_K.png	 K	 l	 t	 n.a.	 3.698285e-01
7	 4	 183	 unflanked	 bex	 2	 2.000000	 0.000000	 unflanked_bex_freq_2_amplitude_2_rep_1_t_N.png	 N	 t	 t	 n.a.	 4.570142e-01
7	 4	 184	 unflanked	 bex	 32	 0.250000	 0.000000	 unflanked_bex_freq_32_amplitude_0.25_rep_2_l_D.png	 D	 l	 l	 n.a.	 4.572003e-01
7	 4	 185	 unflanked	 bex	 2	 1.500000	 0.000000	 unflanked_bex_freq_2_amplitude_1.5_rep_8_l_K.png	 K	 l	 t	 n.a.	 5.389277e-01
7	 4	 186	 unflanked	 bex	 4	 0.250000	 0.000000	 unflanked_bex_freq_4_amplitude_0.25_rep_0_b_N.png	 N	 b	 r	 n.a.	 4.073017e-01
7	 4	 187	 unflanked	 bex	 4	 3.000000	 0.000000	 unflanked_bex_freq_4_amplitude_3_rep_6_b_N.png	 N	 b	 b	 n.a.	 3.249186e-01
7	 4	 188	 unflanked	 bex	 16	 2.000000	 0.000000	 unflanked_bex_freq_16_amplitude_2_rep_3_l_K.png	 K	 l	 l	 n.a.	 3.474566e-01
7	 4	 189	 unflanked	 bex	 16	 0.500000	 0.000000	 unflanked_bex_freq_16_amplitude_0.5_rep_1_r_H.png	 H	 r	 t	 n.a.	 4.212505e-01
7	 4	 190	 unflanked	 bex	 32	 2.500000	 0.000000	 unflanked_bex_freq_32_amplitude_2.5_rep_1_l_H.png	 H	 l	 l	 n.a.	 5.049518e-01
7	 4	 191	 unflanked	 bex	 6	 1.500000	 0.000000	 unflanked_bex_freq_6_amplitude_1.5_rep_4_b_N.png	 N	 b	 b	 n.a.	 3.758116e-01
7	 4	 192	 unflanked	 bex	 2	 3.000000	 0.000000	 unflanked_bex_freq_2_amplitude_3_rep_6_b_D.png	 D	 b	 t	 n.a.	 4.595868e-01
7	 4	 193	 unflanked	 bex	 32	 1.500000	 0.000000	 unflanked_bex_freq_32_amplitude_1.5_rep_0_l_D.png	 D	 l	 l	 n.a.	 3.519496e-01
7	 4	 194	 unflanked	 bex	 32	 1.000000	 0.000000	 unflanked_bex_freq_32_amplitude_1_rep_9_r_K.png	 K	 r	 t	 n.a.	 4.525002e-01
7	 4	 195	 unflanked	 bex	 4	 2.500000	 0.000000	 unflanked_bex_freq_4_amplitude_2.5_rep_1_r_H.png	 H	 r	 r	 n.a.	 3.344407e-01
7	 4	 196	 unflanked	 bex	 2	 0.500000	 0.000000	 unflanked_bex_freq_2_amplitude_0.5_rep_4_r_K.png	 K	 r	 b	 n.a.	 1.004406e+00
7	 4	 197	 unflanked	 bex	 4	 1.000000	 0.000000	 unflanked_bex_freq_4_amplitude_1_rep_2_r_H.png	 H	 r	 t	 n.a.	 5.943633e-01
7	 4	 198	 unflanked	 bex	 8	 1.500000	 0.000000	 unflanked_bex_freq_8_amplitude_1.5_rep_3_l_N.png	 N	 l	 l	 n.a.	 2.459567e-01
7	 4	 199	 unflanked	 bex	 2	 1.000000	 0.000000	 unflanked_bex_freq_2_amplitude_1_rep_8_l_D.png	 D	 l	 l	 n.a.	 6.877235e-01
7	 4	 200	 unflanked	 bex	 6	 2.000000	 0.000000	 unflanked_bex_freq_6_amplitude_2_rep_1_b_D.png	 D	 b	 b	 n.a.	 5.309171e-01
7	 4	 201	 unflanked	 bex	 6	 0.500000	 0.000000	 unflanked_bex_freq_6_amplitude_0.5_rep_0_t_N.png	 N	 t	 t	 n.a.	 4.621704e-01
7	 4	 202	 unflanked	 bex	 8	 2.500000	 0.000000	 unflanked_bex_freq_8_amplitude_2.5_rep_0_t_N.png	 N	 t	 t	 n.a.	 3.636262e-01
7	 4	 203	 unflanked	 bex	 2	 0.500000	 0.000000	 unflanked_bex_freq_2_amplitude_0.5_rep_7_r_K.png	 K	 r	 l	 n.a.	 7.779153e-01
7	 4	 204	 unflanked	 bex	 8	 0.500000	 0.000000	 unflanked_bex_freq_8_amplitude_0.5_rep_0_b_N.png	 N	 b	 t	 n.a.	 3.959204e-01
7	 4	 205	 unflanked	 bex	 32	 1.000000	 0.000000	 unflanked_bex_freq_32_amplitude_1_rep_3_l_H.png	 H	 l	 l	 n.a.	 4.946008e-01
7	 4	 206	 unflanked	 bex	 32	 2.000000	 0.000000	 unflanked_bex_freq_32_amplitude_2_rep_5_b_K.png	 K	 b	 t	 n.a.	 4.752937e-01
7	 4	 207	 unflanked	 bex	 32	 0.500000	 0.000000	 unflanked_bex_freq_32_amplitude_0.5_rep_6_t_N.png	 N	 t	 t	 n.a.	 6.722987e-01
7	 4	 208	 unflanked	 bex	 16	 3.000000	 0.000000	 unflanked_bex_freq_16_amplitude_3_rep_9_r_K.png	 K	 r	 r	 n.a.	 4.568929e-01
7	 4	 209	 unflanked	 bex	 16	 2.500000	 0.000000	 unflanked_bex_freq_16_amplitude_2.5_rep_9_l_D.png	 D	 l	 l	 n.a.	 3.609070e-01
7	 4	 210	 unflanked	 bex	 8	 2.000000	 0.000000	 unflanked_bex_freq_8_amplitude_2_rep_4_b_H.png	 H	 b	 b	 n.a.	 3.904974e-01
7	 4	 211	 unflanked	 bex	 16	 2.000000	 0.000000	 unflanked_bex_freq_16_amplitude_2_rep_9_r_H.png	 H	 r	 r	 n.a.	 2.714176e-01
7	 4	 212	 unflanked	 bex	 16	 1.000000	 0.000000	 unflanked_bex_freq_16_amplitude_1_rep_6_t_D.png	 D	 t	 t	 n.a.	 9.286894e-01
7	 4	 213	 unflanked	 bex	 2	 3.000000	 0.000000	 unflanked_bex_freq_2_amplitude_3_rep_1_l_K.png	 K	 l	 l	 n.a.	 7.232987e-01
7	 4	 214	 unflanked	 bex	 32	 1.500000	 0.000000	 unflanked_bex_freq_32_amplitude_1.5_rep_9_b_H.png	 H	 b	 t	 n.a.	 6.063156e-01
7	 4	 215	 unflanked	 bex	 2	 2.000000	 0.000000	 unflanked_bex_freq_2_amplitude_2_rep_3_l_D.png	 D	 l	 t	 n.a.	 6.537789e-01
7	 4	 216	 unflanked	 bex	 6	 2.000000	 0.000000	 unflanked_bex_freq_6_amplitude_2_rep_4_b_K.png	 K	 b	 b	 n.a.	 6.292542e-01
7	 4	 217	 unflanked	 bex	 16	 0.500000	 0.000000	 unflanked_bex_freq_16_amplitude_0.5_rep_8_l_D.png	 D	 l	 b	 n.a.	 7.279798e-01
7	 4	 218	 unflanked	 bex	 16	 0.250000	 0.000000	 unflanked_bex_freq_16_amplitude_0.25_rep_4_l_K.png	 K	 l	 b	 n.a.	 5.920073e-01
7	 4	 219	 unflanked	 bex	 4	 2.500000	 0.000000	 unflanked_bex_freq_4_amplitude_2.5_rep_3_r_H.png	 H	 r	 r	 n.a.	 2.865448e-01
7	 4	 220	 unflanked	 bex	 4	 3.000000	 0.000000	 unflanked_bex_freq_4_amplitude_3_rep_0_r_H.png	 H	 r	 r	 n.a.	 3.501992e-01
7	 4	 221	 unflanked	 bex	 2	 0.250000	 0.000000	 unflanked_bex_freq_2_amplitude_0.25_rep_2_b_D.png	 D	 b	 l	 n.a.	 4.399025e-01
7	 4	 222	 unflanked	 bex	 6	 2.500000	 0.000000	 unflanked_bex_freq_6_amplitude_2.5_rep_0_t_K.png	 K	 t	 t	 n.a.	 2.995931e-01
7	 4	 223	 unflanked	 bex	 2	 0.250000	 0.000000	 unflanked_bex_freq_2_amplitude_0.25_rep_5_l_K.png	 K	 l	 b	 n.a.	 9.255494e-01
7	 4	 224	 unflanked	 bex	 8	 0.250000	 0.000000	 unflanked_bex_freq_8_amplitude_0.25_rep_1_l_D.png	 D	 l	 r	 n.a.	 8.064093e-01
7	 4	 225	 unflanked	 bex	 2	 0.500000	 0.000000	 unflanked_bex_freq_2_amplitude_0.5_rep_0_l_N.png	 N	 l	 r	 n.a.	 8.222598e-01
7	 4	 226	 unflanked	 bex	 16	 0.500000	 0.000000	 unflanked_bex_freq_16_amplitude_0.5_rep_9_b_K.png	 K	 b	 r	 n.a.	 8.685270e-01
7	 4	 227	 unflanked	 bex	 2	 3.000000	 0.000000	 unflanked_bex_freq_2_amplitude_3_rep_3_r_N.png	 N	 r	 r	 n.a.	 5.306279e-01
7	 4	 228	 unflanked	 bex	 8	 0.500000	 0.000000	 unflanked_bex_freq_8_amplitude_0.5_rep_5_b_N.png	 N	 b	 t	 n.a.	 8.021308e-01
7	 4	 229	 unflanked	 bex	 8	 0.250000	 0.000000	 unflanked_bex_freq_8_amplitude_0.25_rep_5_l_D.png	 D	 l	 b	 n.a.	 7.765134e-01
7	 4	 230	 unflanked	 bex	 16	 2.000000	 0.000000	 unflanked_bex_freq_16_amplitude_2_rep_0_l_K.png	 K	 l	 l	 n.a.	 4.715543e-01
7	 4	 231	 unflanked	 bex	 6	 0.250000	 0.000000	 unflanked_bex_freq_6_amplitude_0.25_rep_0_l_D.png	 D	 l	 t	 n.a.	 5.407357e-01
7	 4	 232	 unflanked	 bex	 8	 2.500000	 0.000000	 unflanked_bex_freq_8_amplitude_2.5_rep_4_l_K.png	 K	 l	 l	 n.a.	 3.090678e-01
7	 4	 233	 unflanked	 bex	 4	 1.000000	 0.000000	 unflanked_bex_freq_4_amplitude_1_rep_5_l_D.png	 D	 l	 t	 n.a.	 6.825166e-01
7	 4	 234	 unflanked	 bex	 2	 0.500000	 0.000000	 unflanked_bex_freq_2_amplitude_0.5_rep_9_t_H.png	 H	 t	 r	 n.a.	 9.002397e-01
7	 4	 235	 unflanked	 bex	 16	 1.500000	 0.000000	 unflanked_bex_freq_16_amplitude_1.5_rep_4_l_D.png	 D	 l	 l	 n.a.	 3.530809e-01
7	 4	 236	 unflanked	 bex	 32	 2.000000	 0.000000	 unflanked_bex_freq_32_amplitude_2_rep_2_t_H.png	 H	 t	 l	 n.a.	 5.629914e-01
7	 4	 237	 unflanked	 bex	 32	 0.500000	 0.000000	 unflanked_bex_freq_32_amplitude_0.5_rep_1_b_K.png	 K	 b	 r	 n.a.	 6.024174e-01
7	 4	 238	 unflanked	 bex	 16	 2.000000	 0.000000	 unflanked_bex_freq_16_amplitude_2_rep_2_t_H.png	 H	 t	 l	 n.a.	 1.082408e+00
7	 4	 239	 unflanked	 bex	 16	 2.000000	 0.000000	 unflanked_bex_freq_16_amplitude_2_rep_4_b_D.png	 D	 b	 b	 n.a.	 4.281154e-01
7	 4	 240	 unflanked	 bex	 32	 0.500000	 0.000000	 unflanked_bex_freq_32_amplitude_0.5_rep_0_b_H.png	 H	 b	 l	 n.a.	 6.839242e-01
7	 4	 241	 unflanked	 bex	 4	 2.500000	 0.000000	 unflanked_bex_freq_4_amplitude_2.5_rep_0_b_K.png	 K	 b	 t	 n.a.	 7.065012e-01
7	 4	 242	 unflanked	 bex	 32	 3.000000	 0.000000	 unflanked_bex_freq_32_amplitude_3_rep_8_t_K.png	 K	 t	 r	 n.a.	 5.001418e-01
7	 4	 243	 unflanked	 bex	 4	 1.500000	 0.000000	 unflanked_bex_freq_4_amplitude_1.5_rep_2_t_H.png	 H	 t	 l	 n.a.	 6.668591e-01
7	 4	 244	 unflanked	 bex	 8	 2.000000	 0.000000	 unflanked_bex_freq_8_amplitude_2_rep_6_r_K.png	 K	 r	 r	 n.a.	 3.224361e-01
7	 4	 245	 unflanked	 bex	 4	 0.250000	 0.000000	 unflanked_bex_freq_4_amplitude_0.25_rep_7_b_N.png	 N	 b	 b	 n.a.	 1.031333e+00
7	 4	 246	 unflanked	 bex	 4	 1.500000	 0.000000	 unflanked_bex_freq_4_amplitude_1.5_rep_4_l_H.png	 H	 l	 r	 n.a.	 6.330891e-01
7	 4	 247	 unflanked	 bex	 2	 1.000000	 0.000000	 unflanked_bex_freq_2_amplitude_1_rep_0_r_D.png	 D	 r	 t	 n.a.	 1.116912e+00
7	 4	 248	 unflanked	 bex	 8	 0.250000	 0.000000	 unflanked_bex_freq_8_amplitude_0.25_rep_4_b_H.png	 H	 b	 r	 n.a.	 5.513542e-01
7	 4	 249	 unflanked	 bex	 16	 1.500000	 0.000000	 unflanked_bex_freq_16_amplitude_1.5_rep_0_b_H.png	 H	 b	 r	 n.a.	 5.352838e-01
7	 4	 250	 unflanked	 bex	 16	 0.500000	 0.000000	 unflanked_bex_freq_16_amplitude_0.5_rep_6_r_H.png	 H	 r	 r	 n.a.	 4.876360e-01
7	 4	 251	 unflanked	 bex	 6	 2.000000	 0.000000	 unflanked_bex_freq_6_amplitude_2_rep_2_l_K.png	 K	 l	 l	 n.a.	 4.529178e-01
7	 4	 252	 unflanked	 bex	 8	 2.000000	 0.000000	 unflanked_bex_freq_8_amplitude_2_rep_1_l_D.png	 D	 l	 l	 n.a.	 3.977251e-01
7	 4	 253	 unflanked	 bex	 6	 1.500000	 0.000000	 unflanked_bex_freq_6_amplitude_1.5_rep_8_l_H.png	 H	 l	 l	 n.a.	 4.512225e-01
7	 4	 254	 unflanked	 bex	 6	 3.000000	 0.000000	 unflanked_bex_freq_6_amplitude_3_rep_5_b_K.png	 K	 b	 b	 n.a.	 3.646771e-01
7	 4	 255	 unflanked	 bex	 4	 2.500000	 0.000000	 unflanked_bex_freq_4_amplitude_2.5_rep_6_l_K.png	 K	 l	 l	 n.a.	 3.417019e-01
7	 4	 256	 unflanked	 bex	 32	 2.500000	 0.000000	 unflanked_bex_freq_32_amplitude_2.5_rep_0_t_K.png	 K	 t	 t	 n.a.	 4.354612e-01
7	 4	 257	 unflanked	 bex	 2	 1.000000	 0.000000	 unflanked_bex_freq_2_amplitude_1_rep_4_b_D.png	 D	 b	 b	 n.a.	 5.366707e-01
7	 4	 258	 unflanked	 bex	 16	 1.500000	 0.000000	 unflanked_bex_freq_16_amplitude_1.5_rep_9_t_H.png	 H	 t	 b	 n.a.	 4.948175e-01
7	 4	 259	 unflanked	 bex	 6	 0.500000	 0.000000	 unflanked_bex_freq_6_amplitude_0.5_rep_7_l_D.png	 D	 l	 r	 n.a.	 5.017224e-01
7	 4	 260	 unflanked	 bex	 6	 0.500000	 0.000000	 unflanked_bex_freq_6_amplitude_0.5_rep_1_r_K.png	 K	 r	 b	 n.a.	 1.006873e+00
7	 4	 261	 unflanked	 bex	 8	 1.000000	 0.000000	 unflanked_bex_freq_8_amplitude_1_rep_9_b_K.png	 K	 b	 r	 n.a.	 3.979608e-01
7	 4	 262	 unflanked	 bex	 8	 1.000000	 0.000000	 unflanked_bex_freq_8_amplitude_1_rep_6_r_H.png	 H	 r	 r	 n.a.	 3.653629e-01
7	 4	 263	 unflanked	 bex	 2	 0.250000	 0.000000	 unflanked_bex_freq_2_amplitude_0.25_rep_6_l_H.png	 H	 l	 t	 n.a.	 8.400052e-01
7	 4	 264	 unflanked	 bex	 8	 3.000000	 0.000000	 unflanked_bex_freq_8_amplitude_3_rep_1_r_K.png	 K	 r	 r	 n.a.	 3.841637e-01
7	 4	 265	 unflanked	 bex	 2	 0.500000	 0.000000	 unflanked_bex_freq_2_amplitude_0.5_rep_3_r_H.png	 H	 r	 r	 n.a.	 3.794568e-01
7	 4	 266	 unflanked	 bex	 16	 0.250000	 0.000000	 unflanked_bex_freq_16_amplitude_0.25_rep_8_t_N.png	 N	 t	 r	 n.a.	 6.814527e-01
7	 4	 267	 unflanked	 bex	 4	 0.500000	 0.000000	 unflanked_bex_freq_4_amplitude_0.5_rep_9_r_K.png	 K	 r	 t	 n.a.	 4.808001e-01
7	 4	 268	 unflanked	 bex	 32	 1.500000	 0.000000	 unflanked_bex_freq_32_amplitude_1.5_rep_4_t_D.png	 D	 t	 r	 n.a.	 6.379076e-01
7	 4	 269	 unflanked	 bex	 6	 1.000000	 0.000000	 unflanked_bex_freq_6_amplitude_1_rep_2_b_D.png	 D	 b	 b	 n.a.	 5.829458e-01
7	 4	 270	 unflanked	 bex	 32	 0.250000	 0.000000	 unflanked_bex_freq_32_amplitude_0.25_rep_4_r_N.png	 N	 r	 t	 n.a.	 7.555285e-01
7	 4	 271	 unflanked	 bex	 2	 2.500000	 0.000000	 unflanked_bex_freq_2_amplitude_2.5_rep_7_t_K.png	 K	 t	 r	 n.a.	 5.542262e-01
7	 4	 272	 unflanked	 bex	 6	 2.500000	 0.000000	 unflanked_bex_freq_6_amplitude_2.5_rep_6_b_D.png	 D	 b	 b	 n.a.	 3.438385e-01
7	 4	 273	 unflanked	 bex	 32	 3.000000	 0.000000	 unflanked_bex_freq_32_amplitude_3_rep_4_t_D.png	 D	 t	 t	 n.a.	 6.506549e-01
7	 4	 274	 unflanked	 bex	 4	 0.500000	 0.000000	 unflanked_bex_freq_4_amplitude_0.5_rep_6_b_H.png	 H	 b	 l	 n.a.	 7.533864e-01
7	 4	 275	 unflanked	 bex	 6	 1.500000	 0.000000	 unflanked_bex_freq_6_amplitude_1.5_rep_6_t_K.png	 K	 t	 t	 n.a.	 1.243372e+00
7	 4	 276	 unflanked	 bex	 16	 3.000000	 0.000000	 unflanked_bex_freq_16_amplitude_3_rep_5_r_H.png	 H	 r	 r	 n.a.	 3.612640e-01
7	 4	 277	 unflanked	 bex	 6	 2.500000	 0.000000	 unflanked_bex_freq_6_amplitude_2.5_rep_5_t_K.png	 K	 t	 t	 n.a.	 3.337694e-01
7	 4	 278	 unflanked	 bex	 32	 2.500000	 0.000000	 unflanked_bex_freq_32_amplitude_2.5_rep_6_b_H.png	 H	 b	 b	 n.a.	 7.725821e-01
7	 4	 279	 unflanked	 bex	 4	 2.000000	 0.000000	 unflanked_bex_freq_4_amplitude_2_rep_9_l_K.png	 K	 l	 r	 n.a.	 5.752091e-01
7	 4	 280	 unflanked	 bex	 32	 2.500000	 0.000000	 unflanked_bex_freq_32_amplitude_2.5_rep_5_r_H.png	 H	 r	 r	 n.a.	 3.872712e-01
7	 4	 281	 unflanked	 bex	 8	 1.000000	 0.000000	 unflanked_bex_freq_8_amplitude_1_rep_2_l_K.png	 K	 l	 l	 n.a.	 4.355435e-01
7	 4	 282	 unflanked	 bex	 32	 2.000000	 0.000000	 unflanked_bex_freq_32_amplitude_2_rep_6_r_K.png	 K	 r	 t	 n.a.	 5.332726e-01
7	 4	 283	 unflanked	 bex	 6	 2.000000	 0.000000	 unflanked_bex_freq_6_amplitude_2_rep_5_l_N.png	 N	 l	 l	 n.a.	 3.656911e-01
7	 4	 284	 unflanked	 bex	 32	 0.500000	 0.000000	 unflanked_bex_freq_32_amplitude_0.5_rep_9_t_N.png	 N	 t	 t	 n.a.	 5.778779e-01
7	 4	 285	 unflanked	 bex	 4	 0.250000	 0.000000	 unflanked_bex_freq_4_amplitude_0.25_rep_6_t_N.png	 N	 t	 b	 n.a.	 7.705605e-01
7	 4	 286	 unflanked	 bex	 4	 2.500000	 0.000000	 unflanked_bex_freq_4_amplitude_2.5_rep_8_b_K.png	 K	 b	 l	 n.a.	 5.529898e-01
7	 4	 287	 unflanked	 bex	 6	 0.500000	 0.000000	 unflanked_bex_freq_6_amplitude_0.5_rep_4_t_K.png	 K	 t	 b	 n.a.	 4.927599e-01
7	 4	 288	 unflanked	 bex	 8	 2.500000	 0.000000	 unflanked_bex_freq_8_amplitude_2.5_rep_8_r_K.png	 K	 r	 r	 n.a.	 3.372314e-01
7	 4	 289	 unflanked	 bex	 2	 0.500000	 0.000000	 unflanked_bex_freq_2_amplitude_0.5_rep_6_l_H.png	 H	 l	 r	 n.a.	 6.539353e-01
7	 4	 290	 unflanked	 bex	 2	 0.250000	 0.000000	 unflanked_bex_freq_2_amplitude_0.25_rep_9_t_D.png	 D	 t	 l	 n.a.	 8.109087e-01
7	 4	 291	 unflanked	 bex	 16	 2.500000	 0.000000	 unflanked_bex_freq_16_amplitude_2.5_rep_2_r_N.png	 N	 r	 r	 n.a.	 3.327260e-01
7	 4	 292	 unflanked	 bex	 6	 0.250000	 0.000000	 unflanked_bex_freq_6_amplitude_0.25_rep_6_r_K.png	 K	 r	 b	 n.a.	 1.050435e+00
7	 4	 293	 unflanked	 bex	 8	 2.000000	 0.000000	 unflanked_bex_freq_8_amplitude_2_rep_0_r_N.png	 N	 r	 r	 n.a.	 2.784584e-01
7	 4	 294	 unflanked	 bex	 4	 3.000000	 0.000000	 unflanked_bex_freq_4_amplitude_3_rep_5_r_K.png	 K	 r	 r	 n.a.	 3.357218e-01
7	 4	 295	 unflanked	 bex	 8	 1.500000	 0.000000	 unflanked_bex_freq_8_amplitude_1.5_rep_6_r_D.png	 D	 r	 r	 n.a.	 3.581899e-01
7	 4	 296	 unflanked	 bex	 16	 1.000000	 0.000000	 unflanked_bex_freq_16_amplitude_1_rep_3_r_K.png	 K	 r	 r	 n.a.	 4.732188e-01
7	 4	 297	 unflanked	 bex	 4	 0.250000	 0.000000	 unflanked_bex_freq_4_amplitude_0.25_rep_4_l_N.png	 N	 l	 l	 n.a.	 9.755105e-01
7	 4	 298	 unflanked	 bex	 2	 1.000000	 0.000000	 unflanked_bex_freq_2_amplitude_1_rep_1_l_D.png	 D	 l	 t	 n.a.	 6.057811e-01
7	 4	 299	 unflanked	 bex	 6	 0.500000	 0.000000	 unflanked_bex_freq_6_amplitude_0.5_rep_2_t_K.png	 K	 t	 t	 n.a.	 5.819058e-01
7	 4	 300	 unflanked	 bex	 4	 3.000000	 0.000000	 unflanked_bex_freq_4_amplitude_3_rep_7_t_D.png	 D	 t	 t	 n.a.	 4.478011e-01
7	 4	 301	 unflanked	 bex	 4	 2.000000	 0.000000	 unflanked_bex_freq_4_amplitude_2_rep_8_b_K.png	 K	 b	 t	 n.a.	 7.508679e-01
7	 4	 302	 unflanked	 bex	 6	 3.000000	 0.000000	 unflanked_bex_freq_6_amplitude_3_rep_2_l_H.png	 H	 l	 l	 n.a.	 3.151198e-01
7	 4	 303	 unflanked	 bex	 32	 0.250000	 0.000000	 unflanked_bex_freq_32_amplitude_0.25_rep_6_t_D.png	 D	 t	 t	 n.a.	 4.999587e-01
7	 4	 304	 unflanked	 bex	 16	 1.000000	 0.000000	 unflanked_bex_freq_16_amplitude_1_rep_9_t_H.png	 H	 t	 l	 n.a.	 7.078169e-01
7	 4	 305	 unflanked	 bex	 4	 0.250000	 0.000000	 unflanked_bex_freq_4_amplitude_0.25_rep_5_t_D.png	 D	 t	 t	 n.a.	 7.023598e-01
7	 4	 306	 unflanked	 bex	 2	 2.000000	 0.000000	 unflanked_bex_freq_2_amplitude_2_rep_4_l_N.png	 N	 l	 l	 n.a.	 4.758597e-01
7	 4	 307	 unflanked	 bex	 8	 0.500000	 0.000000	 unflanked_bex_freq_8_amplitude_0.5_rep_7_l_K.png	 K	 l	 b	 n.a.	 6.053965e-01
7	 4	 308	 unflanked	 bex	 8	 2.500000	 0.000000	 unflanked_bex_freq_8_amplitude_2.5_rep_5_b_D.png	 D	 b	 b	 n.a.	 4.183479e-01
7	 4	 309	 unflanked	 bex	 16	 2.000000	 0.000000	 unflanked_bex_freq_16_amplitude_2_rep_5_l_D.png	 D	 l	 l	 n.a.	 3.985652e-01
7	 4	 310	 unflanked	 bex	 32	 2.000000	 0.000000	 unflanked_bex_freq_32_amplitude_2_rep_9_r_K.png	 K	 r	 t	 n.a.	 5.476864e-01
7	 4	 311	 unflanked	 bex	 4	 1.000000	 0.000000	 unflanked_bex_freq_4_amplitude_1_rep_6_l_N.png	 N	 l	 l	 n.a.	 4.081040e-01
7	 4	 312	 unflanked	 bex	 6	 0.500000	 0.000000	 unflanked_bex_freq_6_amplitude_0.5_rep_3_b_D.png	 D	 b	 b	 n.a.	 5.449333e-01
7	 4	 313	 unflanked	 bex	 6	 3.000000	 0.000000	 unflanked_bex_freq_6_amplitude_3_rep_3_t_D.png	 D	 t	 t	 n.a.	 4.052572e-01
7	 4	 314	 unflanked	 bex	 8	 0.250000	 0.000000	 unflanked_bex_freq_8_amplitude_0.25_rep_3_l_H.png	 H	 l	 t	 n.a.	 4.122881e-01
7	 4	 315	 unflanked	 bex	 6	 0.500000	 0.000000	 unflanked_bex_freq_6_amplitude_0.5_rep_5_t_N.png	 N	 t	 l	 n.a.	 8.137821e-01
7	 4	 316	 unflanked	 bex	 32	 1.000000	 0.000000	 unflanked_bex_freq_32_amplitude_1_rep_6_b_K.png	 K	 b	 t	 n.a.	 5.140500e-01
7	 4	 317	 unflanked	 bex	 4	 2.000000	 0.000000	 unflanked_bex_freq_4_amplitude_2_rep_2_b_N.png	 N	 b	 b	 n.a.	 3.836573e-01
7	 4	 318	 unflanked	 bex	 16	 0.250000	 0.000000	 unflanked_bex_freq_16_amplitude_0.25_rep_3_r_N.png	 N	 r	 r	 n.a.	 5.785065e-01
7	 4	 319	 unflanked	 bex	 32	 0.250000	 0.000000	 unflanked_bex_freq_32_amplitude_0.25_rep_8_b_K.png	 K	 b	 t	 n.a.	 5.784743e-01
7	 4	 320	 unflanked	 bex	 6	 2.500000	 0.000000	 unflanked_bex_freq_6_amplitude_2.5_rep_2_b_K.png	 K	 b	 b	 n.a.	 5.625188e-01
7	 4	 321	 unflanked	 bex	 4	 2.500000	 0.000000	 unflanked_bex_freq_4_amplitude_2.5_rep_7_t_K.png	 K	 t	 t	 n.a.	 3.300819e-01
7	 4	 322	 unflanked	 bex	 16	 0.500000	 0.000000	 unflanked_bex_freq_16_amplitude_0.5_rep_2_r_N.png	 N	 r	 l	 n.a.	 4.930136e-01
7	 4	 323	 unflanked	 bex	 8	 0.500000	 0.000000	 unflanked_bex_freq_8_amplitude_0.5_rep_1_r_D.png	 D	 r	 t	 n.a.	 5.059716e-01
7	 4	 324	 unflanked	 bex	 16	 1.500000	 0.000000	 unflanked_bex_freq_16_amplitude_1.5_rep_1_b_H.png	 H	 b	 b	 n.a.	 7.215508e-01
7	 4	 325	 unflanked	 bex	 8	 3.000000	 0.000000	 unflanked_bex_freq_8_amplitude_3_rep_5_b_N.png	 N	 b	 b	 n.a.	 4.484752e-01
7	 4	 326	 unflanked	 bex	 4	 2.500000	 0.000000	 unflanked_bex_freq_4_amplitude_2.5_rep_4_b_D.png	 D	 b	 b	 n.a.	 5.110604e-01
7	 4	 327	 unflanked	 bex	 32	 2.000000	 0.000000	 unflanked_bex_freq_32_amplitude_2_rep_3_l_N.png	 N	 l	 l	 n.a.	 5.321081e-01
7	 4	 328	 unflanked	 bex	 4	 2.500000	 0.000000	 unflanked_bex_freq_4_amplitude_2.5_rep_5_b_N.png	 N	 b	 b	 n.a.	 3.683254e-01
7	 4	 329	 unflanked	 bex	 4	 0.250000	 0.000000	 unflanked_bex_freq_4_amplitude_0.25_rep_2_r_N.png	 N	 r	 b	 n.a.	 9.198026e-01
7	 4	 330	 unflanked	 bex	 2	 0.250000	 0.000000	 unflanked_bex_freq_2_amplitude_0.25_rep_7_r_H.png	 H	 r	 b	 n.a.	 5.291484e-01
7	 4	 331	 unflanked	 bex	 16	 0.500000	 0.000000	 unflanked_bex_freq_16_amplitude_0.5_rep_5_l_K.png	 K	 l	 l	 n.a.	 4.911885e-01
7	 4	 332	 unflanked	 bex	 4	 0.250000	 0.000000	 unflanked_bex_freq_4_amplitude_0.25_rep_9_l_H.png	 H	 l	 b	 n.a.	 5.492110e-01
7	 4	 333	 unflanked	 bex	 32	 1.000000	 0.000000	 unflanked_bex_freq_32_amplitude_1_rep_8_l_H.png	 H	 l	 t	 n.a.	 4.856048e-01
7	 4	 334	 unflanked	 bex	 8	 3.000000	 0.000000	 unflanked_bex_freq_8_amplitude_3_rep_8_l_H.png	 H	 l	 l	 n.a.	 3.474085e-01
7	 4	 335	 unflanked	 bex	 16	 3.000000	 0.000000	 unflanked_bex_freq_16_amplitude_3_rep_8_b_N.png	 N	 b	 b	 n.a.	 4.275874e-01
7	 4	 336	 unflanked	 bex	 2	 2.000000	 0.000000	 unflanked_bex_freq_2_amplitude_2_rep_6_b_N.png	 N	 b	 b	 n.a.	 5.385070e-01
7	 4	 337	 unflanked	 bex	 8	 0.250000	 0.000000	 unflanked_bex_freq_8_amplitude_0.25_rep_8_l_H.png	 H	 l	 b	 n.a.	 7.109698e-01
7	 4	 338	 unflanked	 bex	 8	 2.500000	 0.000000	 unflanked_bex_freq_8_amplitude_2.5_rep_2_b_D.png	 D	 b	 b	 n.a.	 3.468353e-01
7	 4	 339	 unflanked	 bex	 6	 1.500000	 0.000000	 unflanked_bex_freq_6_amplitude_1.5_rep_9_r_K.png	 K	 r	 r	 n.a.	 5.238630e-01
7	 4	 340	 unflanked	 bex	 16	 2.000000	 0.000000	 unflanked_bex_freq_16_amplitude_2_rep_7_t_K.png	 K	 t	 t	 n.a.	 4.546889e-01
7	 4	 341	 unflanked	 bex	 16	 0.250000	 0.000000	 unflanked_bex_freq_16_amplitude_0.25_rep_1_l_K.png	 K	 l	 t	 n.a.	 4.774499e-01
7	 4	 342	 unflanked	 bex	 32	 2.500000	 0.000000	 unflanked_bex_freq_32_amplitude_2.5_rep_8_b_N.png	 N	 b	 l	 n.a.	 3.288288e-01
7	 4	 343	 unflanked	 bex	 8	 2.000000	 0.000000	 unflanked_bex_freq_8_amplitude_2_rep_9_r_N.png	 N	 r	 r	 n.a.	 2.964340e-01
7	 4	 344	 unflanked	 bex	 16	 0.250000	 0.000000	 unflanked_bex_freq_16_amplitude_0.25_rep_5_b_D.png	 D	 b	 r	 n.a.	 4.943131e-01
7	 4	 345	 unflanked	 bex	 6	 3.000000	 0.000000	 unflanked_bex_freq_6_amplitude_3_rep_6_l_K.png	 K	 l	 l	 n.a.	 3.722028e-01
7	 4	 346	 unflanked	 bex	 32	 0.250000	 0.000000	 unflanked_bex_freq_32_amplitude_0.25_rep_0_t_N.png	 N	 t	 t	 n.a.	 3.419901e-01
7	 4	 347	 unflanked	 bex	 4	 2.000000	 0.000000	 unflanked_bex_freq_4_amplitude_2_rep_1_r_D.png	 D	 r	 r	 n.a.	 3.250834e-01
7	 4	 348	 unflanked	 bex	 8	 1.500000	 0.000000	 unflanked_bex_freq_8_amplitude_1.5_rep_5_t_K.png	 K	 t	 t	 n.a.	 4.662820e-01
7	 4	 349	 unflanked	 bex	 8	 1.500000	 0.000000	 unflanked_bex_freq_8_amplitude_1.5_rep_1_b_K.png	 K	 b	 b	 n.a.	 3.615091e-01
7	 4	 350	 unflanked	 bex	 8	 0.250000	 0.000000	 unflanked_bex_freq_8_amplitude_0.25_rep_6_t_K.png	 K	 t	 t	 n.a.	 5.885602e-01
7	 4	 351	 unflanked	 bex	 2	 1.500000	 0.000000	 unflanked_bex_freq_2_amplitude_1.5_rep_1_t_N.png	 N	 t	 t	 n.a.	 4.144389e-01
7	 4	 352	 unflanked	 bex	 6	 2.000000	 0.000000	 unflanked_bex_freq_6_amplitude_2_rep_7_t_N.png	 N	 t	 t	 n.a.	 2.885965e-01
7	 4	 353	 unflanked	 bex	 6	 0.250000	 0.000000	 unflanked_bex_freq_6_amplitude_0.25_rep_7_r_H.png	 H	 r	 t	 n.a.	 4.355284e-01
7	 4	 354	 unflanked	 bex	 8	 1.000000	 0.000000	 unflanked_bex_freq_8_amplitude_1_rep_5_b_K.png	 K	 b	 t	 n.a.	 4.635656e-01
7	 4	 355	 unflanked	 bex	 2	 0.500000	 0.000000	 unflanked_bex_freq_2_amplitude_0.5_rep_8_t_D.png	 D	 t	 l	 n.a.	 6.593518e-01
7	 4	 356	 unflanked	 bex	 32	 1.500000	 0.000000	 unflanked_bex_freq_32_amplitude_1.5_rep_6_l_D.png	 D	 l	 l	 n.a.	 3.730438e-01
7	 4	 357	 unflanked	 bex	 16	 3.000000	 0.000000	 unflanked_bex_freq_16_amplitude_3_rep_4_l_N.png	 N	 l	 l	 n.a.	 3.187129e-01
7	 4	 358	 unflanked	 bex	 6	 2.000000	 0.000000	 unflanked_bex_freq_6_amplitude_2_rep_9_l_K.png	 K	 l	 l	 n.a.	 3.161421e-01
7	 4	 359	 unflanked	 bex	 8	 1.000000	 0.000000	 unflanked_bex_freq_8_amplitude_1_rep_0_b_N.png	 N	 b	 l	 n.a.	 4.622043e-01
7	 4	 360	 unflanked	 bex	 4	 1.000000	 0.000000	 unflanked_bex_freq_4_amplitude_1_rep_1_r_H.png	 H	 r	 l	 n.a.	 7.670113e-01
7	 4	 361	 unflanked	 bex	 16	 1.000000	 0.000000	 unflanked_bex_freq_16_amplitude_1_rep_1_l_K.png	 K	 l	 b	 n.a.	 4.948165e-01
7	 4	 362	 unflanked	 bex	 4	 0.500000	 0.000000	 unflanked_bex_freq_4_amplitude_0.5_rep_3_b_H.png	 H	 b	 t	 n.a.	 3.840113e-01
7	 4	 363	 unflanked	 bex	 32	 1.500000	 0.000000	 unflanked_bex_freq_32_amplitude_1.5_rep_7_t_H.png	 H	 t	 t	 n.a.	 7.012598e-01
7	 4	 364	 unflanked	 bex	 6	 3.000000	 0.000000	 unflanked_bex_freq_6_amplitude_3_rep_0_b_K.png	 K	 b	 b	 n.a.	 5.108499e-01
7	 4	 365	 unflanked	 bex	 8	 0.250000	 0.000000	 unflanked_bex_freq_8_amplitude_0.25_rep_7_r_N.png	 N	 r	 r	 n.a.	 7.601241e-01
7	 4	 366	 unflanked	 bex	 2	 1.000000	 0.000000	 unflanked_bex_freq_2_amplitude_1_rep_5_l_D.png	 D	 l	 t	 n.a.	 7.388001e-01
7	 4	 367	 unflanked	 bex	 8	 2.500000	 0.000000	 unflanked_bex_freq_8_amplitude_2.5_rep_6_l_K.png	 K	 l	 l	 n.a.	 3.472915e-01
7	 4	 368	 unflanked	 bex	 16	 3.000000	 0.000000	 unflanked_bex_freq_16_amplitude_3_rep_7_l_H.png	 H	 l	 l	 n.a.	 4.382573e-01
7	 4	 369	 unflanked	 bex	 16	 2.500000	 0.000000	 unflanked_bex_freq_16_amplitude_2.5_rep_8_t_K.png	 K	 t	 t	 n.a.	 3.490678e-01
7	 4	 370	 unflanked	 bex	 32	 3.000000	 0.000000	 unflanked_bex_freq_32_amplitude_3_rep_7_b_N.png	 N	 b	 t	 n.a.	 7.871646e-01
7	 4	 371	 unflanked	 bex	 32	 2.500000	 0.000000	 unflanked_bex_freq_32_amplitude_2.5_rep_2_t_N.png	 N	 t	 t	 n.a.	 4.923201e-01
7	 4	 372	 unflanked	 bex	 4	 0.500000	 0.000000	 unflanked_bex_freq_4_amplitude_0.5_rep_2_r_D.png	 D	 r	 t	 n.a.	 5.521937e-01
7	 4	 373	 unflanked	 bex	 32	 0.250000	 0.000000	 unflanked_bex_freq_32_amplitude_0.25_rep_1_r_K.png	 K	 r	 t	 n.a.	 4.742829e-01
7	 4	 374	 unflanked	 bex	 2	 2.500000	 0.000000	 unflanked_bex_freq_2_amplitude_2.5_rep_8_b_N.png	 N	 b	 b	 n.a.	 4.877581e-01
7	 4	 375	 unflanked	 bex	 16	 2.000000	 0.000000	 unflanked_bex_freq_16_amplitude_2_rep_1_b_K.png	 K	 b	 r	 n.a.	 5.870760e-01
7	 4	 376	 unflanked	 bex	 32	 0.250000	 0.000000	 unflanked_bex_freq_32_amplitude_0.25_rep_5_t_K.png	 K	 t	 b	 n.a.	 6.738261e-01
7	 4	 377	 unflanked	 bex	 4	 1.000000	 0.000000	 unflanked_bex_freq_4_amplitude_1_rep_3_l_K.png	 K	 l	 b	 n.a.	 5.678072e-01
7	 4	 378	 unflanked	 bex	 6	 0.250000	 0.000000	 unflanked_bex_freq_6_amplitude_0.25_rep_3_t_D.png	 D	 t	 t	 n.a.	 6.879833e-01
7	 4	 379	 unflanked	 bex	 8	 2.000000	 0.000000	 unflanked_bex_freq_8_amplitude_2_rep_5_b_N.png	 N	 b	 b	 n.a.	 4.367592e-01
7	 4	 380	 unflanked	 bex	 4	 0.500000	 0.000000	 unflanked_bex_freq_4_amplitude_0.5_rep_8_r_H.png	 H	 r	 l	 n.a.	 4.788058e-01
7	 4	 381	 unflanked	 bex	 16	 0.250000	 0.000000	 unflanked_bex_freq_16_amplitude_0.25_rep_9_t_H.png	 H	 t	 r	 n.a.	 4.425917e-01
7	 4	 382	 unflanked	 bex	 4	 0.500000	 0.000000	 unflanked_bex_freq_4_amplitude_0.5_rep_7_r_D.png	 D	 r	 r	 n.a.	 5.649336e-01
7	 4	 383	 unflanked	 bex	 6	 3.000000	 0.000000	 unflanked_bex_freq_6_amplitude_3_rep_1_t_H.png	 H	 t	 t	 n.a.	 3.487257e-01
7	 4	 384	 unflanked	 bex	 8	 1.000000	 0.000000	 unflanked_bex_freq_8_amplitude_1_rep_1_l_H.png	 H	 l	 l	 n.a.	 4.120400e-01
7	 4	 385	 unflanked	 bex	 32	 0.500000	 0.000000	 unflanked_bex_freq_32_amplitude_0.5_rep_8_l_D.png	 D	 l	 t	 n.a.	 7.381201e-01
7	 4	 386	 unflanked	 bex	 2	 0.250000	 0.000000	 unflanked_bex_freq_2_amplitude_0.25_rep_0_l_K.png	 K	 l	 t	 n.a.	 5.232945e-01
7	 4	 387	 unflanked	 bex	 32	 2.000000	 0.000000	 unflanked_bex_freq_32_amplitude_2_rep_7_b_H.png	 H	 b	 t	 n.a.	 5.163656e-01
7	 4	 388	 unflanked	 bex	 6	 1.000000	 0.000000	 unflanked_bex_freq_6_amplitude_1_rep_7_t_H.png	 H	 t	 t	 n.a.	 6.331972e-01
7	 4	 389	 unflanked	 bex	 16	 1.000000	 0.000000	 unflanked_bex_freq_16_amplitude_1_rep_5_r_D.png	 D	 r	 r	 n.a.	 4.176731e-01
7	 4	 390	 unflanked	 bex	 4	 2.000000	 0.000000	 unflanked_bex_freq_4_amplitude_2_rep_0_r_K.png	 K	 r	 r	 n.a.	 3.874786e-01
7	 4	 391	 unflanked	 bex	 2	 0.500000	 0.000000	 unflanked_bex_freq_2_amplitude_0.5_rep_2_t_D.png	 D	 t	 t	 n.a.	 4.355519e-01
7	 4	 392	 unflanked	 bex	 2	 2.500000	 0.000000	 unflanked_bex_freq_2_amplitude_2.5_rep_9_r_N.png	 N	 r	 r	 n.a.	 4.193273e-01
7	 4	 393	 unflanked	 bex	 2	 0.500000	 0.000000	 unflanked_bex_freq_2_amplitude_0.5_rep_5_t_N.png	 N	 t	 t	 n.a.	 3.499937e-01
7	 4	 394	 unflanked	 bex	 6	 0.250000	 0.000000	 unflanked_bex_freq_6_amplitude_0.25_rep_2_r_D.png	 D	 r	 r	 n.a.	 3.800219e-01
7	 4	 395	 unflanked	 bex	 16	 0.500000	 0.000000	 unflanked_bex_freq_16_amplitude_0.5_rep_4_l_K.png	 K	 l	 t	 n.a.	 5.724278e-01
7	 4	 396	 unflanked	 bex	 8	 1.000000	 0.000000	 unflanked_bex_freq_8_amplitude_1_rep_7_r_H.png	 H	 r	 t	 n.a.	 3.478771e-01
7	 4	 397	 unflanked	 bex	 32	 0.250000	 0.000000	 unflanked_bex_freq_32_amplitude_0.25_rep_9_t_K.png	 K	 t	 r	 n.a.	 4.588177e-01
7	 4	 398	 unflanked	 bex	 2	 3.000000	 0.000000	 unflanked_bex_freq_2_amplitude_3_rep_9_l_H.png	 H	 l	 l	 n.a.	 3.860225e-01
7	 4	 399	 unflanked	 bex	 4	 1.500000	 0.000000	 unflanked_bex_freq_4_amplitude_1.5_rep_9_r_K.png	 K	 r	 r	 n.a.	 6.762313e-01
7	 4	 400	 unflanked	 bex	 6	 2.500000	 0.000000	 unflanked_bex_freq_6_amplitude_2.5_rep_4_t_K.png	 K	 t	 t	 n.a.	 3.950403e-01
7	 4	 401	 unflanked	 bex	 4	 0.250000	 0.000000	 unflanked_bex_freq_4_amplitude_0.25_rep_1_b_K.png	 K	 b	 t	 n.a.	 3.647879e-01
7	 4	 402	 unflanked	 bex	 6	 1.000000	 0.000000	 unflanked_bex_freq_6_amplitude_1_rep_3_b_K.png	 K	 b	 b	 n.a.	 6.099313e-01
7	 4	 403	 unflanked	 bex	 16	 1.000000	 0.000000	 unflanked_bex_freq_16_amplitude_1_rep_2_l_K.png	 K	 l	 l	 n.a.	 4.797029e-01
7	 4	 404	 unflanked	 bex	 16	 1.500000	 0.000000	 unflanked_bex_freq_16_amplitude_1.5_rep_3_t_D.png	 D	 t	 t	 n.a.	 4.032099e-01
7	 4	 405	 unflanked	 bex	 32	 1.500000	 0.000000	 unflanked_bex_freq_32_amplitude_1.5_rep_8_l_H.png	 H	 l	 l	 n.a.	 6.136666e-01
7	 4	 406	 unflanked	 bex	 16	 1.500000	 0.000000	 unflanked_bex_freq_16_amplitude_1.5_rep_5_t_H.png	 H	 t	 t	 n.a.	 4.345280e-01
7	 4	 407	 unflanked	 bex	 16	 3.000000	 0.000000	 unflanked_bex_freq_16_amplitude_3_rep_2_t_D.png	 D	 t	 t	 n.a.	 3.654466e-01
7	 4	 408	 unflanked	 bex	 6	 2.000000	 0.000000	 unflanked_bex_freq_6_amplitude_2_rep_8_b_N.png	 N	 b	 b	 n.a.	 3.338915e-01
7	 4	 409	 unflanked	 bex	 6	 0.250000	 0.000000	 unflanked_bex_freq_6_amplitude_0.25_rep_8_l_H.png	 H	 l	 l	 n.a.	 6.286497e-01
7	 4	 410	 unflanked	 bex	 8	 0.500000	 0.000000	 unflanked_bex_freq_8_amplitude_0.5_rep_6_l_D.png	 D	 l	 t	 n.a.	 3.625180e-01
7	 4	 411	 unflanked	 bex	 8	 2.500000	 0.000000	 unflanked_bex_freq_8_amplitude_2.5_rep_9_b_N.png	 N	 b	 b	 n.a.	 3.140400e-01
7	 4	 412	 unflanked	 bex	 6	 1.000000	 0.000000	 unflanked_bex_freq_6_amplitude_1_rep_0_r_H.png	 H	 r	 l	 n.a.	 6.341335e-01
7	 4	 413	 unflanked	 bex	 32	 3.000000	 0.000000	 unflanked_bex_freq_32_amplitude_3_rep_0_t_N.png	 N	 t	 t	 n.a.	 2.905771e-01
7	 4	 414	 unflanked	 bex	 2	 0.250000	 0.000000	 unflanked_bex_freq_2_amplitude_0.25_rep_1_l_N.png	 N	 l	 t	 n.a.	 3.833160e-01
7	 4	 415	 unflanked	 bex	 6	 3.000000	 0.000000	 unflanked_bex_freq_6_amplitude_3_rep_8_l_N.png	 N	 l	 l	 n.a.	 2.904356e-01
7	 4	 416	 unflanked	 bex	 16	 0.250000	 0.000000	 unflanked_bex_freq_16_amplitude_0.25_rep_0_l_H.png	 H	 l	 t	 n.a.	 4.511917e-01
7	 4	 417	 unflanked	 bex	 16	 1.000000	 0.000000	 unflanked_bex_freq_16_amplitude_1_rep_0_r_N.png	 N	 r	 r	 n.a.	 5.900670e-01
7	 4	 418	 unflanked	 bex	 8	 3.000000	 0.000000	 unflanked_bex_freq_8_amplitude_3_rep_6_b_H.png	 H	 b	 b	 n.a.	 4.691036e-01
7	 4	 419	 unflanked	 bex	 16	 1.500000	 0.000000	 unflanked_bex_freq_16_amplitude_1.5_rep_2_b_K.png	 K	 b	 t	 n.a.	 4.844472e-01
7	 4	 420	 unflanked	 bex	 32	 2.500000	 0.000000	 unflanked_bex_freq_32_amplitude_2.5_rep_9_l_K.png	 K	 l	 l	 n.a.	 2.393897e-01
