subject	 session	 trial	 flanked	 distortion	 freq	 amplitude	 spacing	 im_name	 targ_letter	 targ_pos	 response	 eyemovement	 RT
5	 4	 1	 unflanked	 bex	 32	 1.000000	 0.000000	 unflanked_bex_freq_32_amplitude_1_rep_2_t_N.png	 N	 t	 r	 n.a.	 4.847216e-01
5	 4	 2	 unflanked	 bex	 6	 1.500000	 0.000000	 unflanked_bex_freq_6_amplitude_1.5_rep_0_t_D.png	 D	 t	 t	 n.a.	 3.786865e-01
5	 4	 3	 unflanked	 bex	 16	 1.000000	 0.000000	 unflanked_bex_freq_16_amplitude_1_rep_3_r_K.png	 K	 r	 t	 n.a.	 4.999305e-01
5	 4	 4	 unflanked	 bex	 2	 2.000000	 0.000000	 unflanked_bex_freq_2_amplitude_2_rep_2_r_D.png	 D	 r	 r	 n.a.	 5.617076e-01
5	 4	 5	 unflanked	 bex	 8	 2.500000	 0.000000	 unflanked_bex_freq_8_amplitude_2.5_rep_3_t_H.png	 H	 t	 t	 n.a.	 3.841190e-01
5	 4	 6	 unflanked	 bex	 32	 2.500000	 0.000000	 unflanked_bex_freq_32_amplitude_2.5_rep_0_t_K.png	 K	 t	 t	 n.a.	 4.448123e-01
5	 4	 7	 unflanked	 bex	 32	 5.000000	 0.000000	 unflanked_bex_freq_32_amplitude_5_rep_1_b_H.png	 H	 b	 b	 n.a.	 4.351372e-01
5	 4	 8	 unflanked	 bex	 16	 1.500000	 0.000000	 unflanked_bex_freq_16_amplitude_1.5_rep_1_b_H.png	 H	 b	 b	 n.a.	 6.406620e-01
5	 4	 9	 unflanked	 bex	 8	 1.500000	 0.000000	 unflanked_bex_freq_8_amplitude_1.5_rep_4_r_N.png	 N	 r	 r	 n.a.	 5.697253e-01
5	 4	 10	 unflanked	 bex	 8	 2.500000	 0.000000	 unflanked_bex_freq_8_amplitude_2.5_rep_9_b_N.png	 N	 b	 b	 n.a.	 4.506090e-01
5	 4	 11	 unflanked	 bex	 2	 2.500000	 0.000000	 unflanked_bex_freq_2_amplitude_2.5_rep_2_b_D.png	 D	 b	 b	 n.a.	 3.687367e-01
5	 4	 12	 unflanked	 bex	 16	 3.000000	 0.000000	 unflanked_bex_freq_16_amplitude_3_rep_9_r_K.png	 K	 r	 r	 n.a.	 3.224814e-01
5	 4	 13	 unflanked	 bex	 8	 2.000000	 0.000000	 unflanked_bex_freq_8_amplitude_2_rep_5_b_N.png	 N	 b	 b	 n.a.	 3.443503e-01
5	 4	 14	 unflanked	 bex	 4	 5.000000	 0.000000	 unflanked_bex_freq_4_amplitude_5_rep_9_r_H.png	 H	 r	 r	 n.a.	 2.726999e-01
5	 4	 15	 unflanked	 bex	 2	 2.000000	 0.000000	 unflanked_bex_freq_2_amplitude_2_rep_6_b_N.png	 N	 b	 b	 n.a.	 5.843177e-01
5	 4	 16	 unflanked	 bex	 6	 3.000000	 0.000000	 unflanked_bex_freq_6_amplitude_3_rep_4_l_N.png	 N	 l	 l	 n.a.	 2.353418e-01
5	 4	 17	 unflanked	 bex	 4	 1.000000	 0.000000	 unflanked_bex_freq_4_amplitude_1_rep_1_r_H.png	 H	 r	 r	 n.a.	 4.071373e-01
5	 4	 18	 unflanked	 bex	 2	 3.000000	 0.000000	 unflanked_bex_freq_2_amplitude_3_rep_1_l_K.png	 K	 l	 l	 n.a.	 3.256340e-01
5	 4	 19	 unflanked	 bex	 4	 2.000000	 0.000000	 unflanked_bex_freq_4_amplitude_2_rep_2_b_N.png	 N	 b	 b	 n.a.	 2.884644e-01
5	 4	 20	 unflanked	 bex	 32	 1.500000	 0.000000	 unflanked_bex_freq_32_amplitude_1.5_rep_2_l_D.png	 D	 l	 r	 n.a.	 2.928636e-01
5	 4	 21	 unflanked	 bex	 4	 2.500000	 0.000000	 unflanked_bex_freq_4_amplitude_2.5_rep_2_t_N.png	 N	 t	 t	 n.a.	 3.310313e-01
5	 4	 22	 unflanked	 bex	 8	 2.500000	 0.000000	 unflanked_bex_freq_8_amplitude_2.5_rep_7_t_K.png	 K	 t	 t	 n.a.	 4.281256e-01
5	 4	 23	 unflanked	 bex	 6	 2.000000	 0.000000	 unflanked_bex_freq_6_amplitude_2_rep_1_b_D.png	 D	 b	 b	 n.a.	 4.130602e-01
5	 4	 24	 unflanked	 bex	 6	 0.500000	 0.000000	 unflanked_bex_freq_6_amplitude_0.5_rep_1_r_K.png	 K	 r	 r	 n.a.	 5.639119e-01
5	 4	 25	 unflanked	 bex	 32	 1.000000	 0.000000	 unflanked_bex_freq_32_amplitude_1_rep_9_r_K.png	 K	 r	 r	 n.a.	 6.358917e-01
5	 4	 26	 unflanked	 bex	 6	 5.000000	 0.000000	 unflanked_bex_freq_6_amplitude_5_rep_9_t_H.png	 H	 t	 t	 n.a.	 4.854954e-01
5	 4	 27	 unflanked	 bex	 16	 2.000000	 0.000000	 unflanked_bex_freq_16_amplitude_2_rep_4_b_D.png	 D	 b	 b	 n.a.	 4.966220e-01
5	 4	 28	 unflanked	 bex	 8	 2.000000	 0.000000	 unflanked_bex_freq_8_amplitude_2_rep_4_b_H.png	 H	 b	 b	 n.a.	 3.596982e-01
5	 4	 29	 unflanked	 bex	 16	 5.000000	 0.000000	 unflanked_bex_freq_16_amplitude_5_rep_8_l_D.png	 D	 l	 l	 n.a.	 2.137887e-01
5	 4	 30	 unflanked	 bex	 4	 1.000000	 0.000000	 unflanked_bex_freq_4_amplitude_1_rep_3_l_K.png	 K	 l	 r	 n.a.	 5.384864e-01
5	 4	 31	 unflanked	 bex	 6	 5.000000	 0.000000	 unflanked_bex_freq_6_amplitude_5_rep_4_l_N.png	 N	 l	 l	 n.a.	 2.225451e-01
5	 4	 32	 unflanked	 bex	 8	 3.000000	 0.000000	 unflanked_bex_freq_8_amplitude_3_rep_7_t_D.png	 D	 t	 t	 n.a.	 3.627573e-01
5	 4	 33	 unflanked	 bex	 6	 2.500000	 0.000000	 unflanked_bex_freq_6_amplitude_2.5_rep_1_b_H.png	 H	 b	 b	 n.a.	 3.992050e-01
5	 4	 34	 unflanked	 bex	 4	 1.000000	 0.000000	 unflanked_bex_freq_4_amplitude_1_rep_6_l_N.png	 N	 l	 l	 n.a.	 5.316369e-01
5	 4	 35	 unflanked	 bex	 2	 0.500000	 0.000000	 unflanked_bex_freq_2_amplitude_0.5_rep_6_l_H.png	 H	 l	 r	 n.a.	 5.531506e-01
5	 4	 36	 unflanked	 bex	 16	 0.500000	 0.000000	 unflanked_bex_freq_16_amplitude_0.5_rep_5_l_K.png	 K	 l	 r	 n.a.	 4.523254e-01
5	 4	 37	 unflanked	 bex	 2	 1.000000	 0.000000	 unflanked_bex_freq_2_amplitude_1_rep_4_b_D.png	 D	 b	 t	 n.a.	 7.399772e-01
5	 4	 38	 unflanked	 bex	 8	 1.000000	 0.000000	 unflanked_bex_freq_8_amplitude_1_rep_6_r_H.png	 H	 r	 r	 n.a.	 2.825404e-01
5	 4	 39	 unflanked	 bex	 8	 1.000000	 0.000000	 unflanked_bex_freq_8_amplitude_1_rep_7_r_H.png	 H	 r	 r	 n.a.	 4.766202e-01
5	 4	 40	 unflanked	 bex	 6	 1.500000	 0.000000	 unflanked_bex_freq_6_amplitude_1.5_rep_6_t_K.png	 K	 t	 b	 n.a.	 9.253734e-01
5	 4	 41	 unflanked	 bex	 6	 5.000000	 0.000000	 unflanked_bex_freq_6_amplitude_5_rep_3_b_D.png	 D	 b	 b	 n.a.	 2.982847e-01
5	 4	 42	 unflanked	 bex	 6	 2.500000	 0.000000	 unflanked_bex_freq_6_amplitude_2.5_rep_5_t_K.png	 K	 t	 t	 n.a.	 4.246046e-01
5	 4	 43	 unflanked	 bex	 16	 5.000000	 0.000000	 unflanked_bex_freq_16_amplitude_5_rep_0_r_K.png	 K	 r	 r	 n.a.	 2.619941e-01
5	 4	 44	 unflanked	 bex	 2	 3.000000	 0.000000	 unflanked_bex_freq_2_amplitude_3_rep_6_b_D.png	 D	 b	 b	 n.a.	 4.494925e-01
5	 4	 45	 unflanked	 bex	 16	 3.000000	 0.000000	 unflanked_bex_freq_16_amplitude_3_rep_2_t_D.png	 D	 t	 l	 n.a.	 6.057173e-01
5	 4	 46	 unflanked	 bex	 6	 5.000000	 0.000000	 unflanked_bex_freq_6_amplitude_5_rep_7_l_D.png	 D	 l	 l	 n.a.	 2.709754e-01
5	 4	 47	 unflanked	 bex	 6	 5.000000	 0.000000	 unflanked_bex_freq_6_amplitude_5_rep_6_t_N.png	 N	 t	 t	 n.a.	 4.645941e-01
5	 4	 48	 unflanked	 bex	 32	 1.500000	 0.000000	 unflanked_bex_freq_32_amplitude_1.5_rep_1_l_K.png	 K	 l	 l	 n.a.	 7.190116e-01
5	 4	 49	 unflanked	 bex	 6	 5.000000	 0.000000	 unflanked_bex_freq_6_amplitude_5_rep_8_l_D.png	 D	 l	 l	 n.a.	 2.586271e-01
5	 4	 50	 unflanked	 bex	 2	 3.000000	 0.000000	 unflanked_bex_freq_2_amplitude_3_rep_3_r_N.png	 N	 r	 r	 n.a.	 3.111149e-01
5	 4	 51	 unflanked	 bex	 6	 1.000000	 0.000000	 unflanked_bex_freq_6_amplitude_1_rep_5_b_N.png	 N	 b	 b	 n.a.	 4.542652e-01
5	 4	 52	 unflanked	 bex	 16	 0.500000	 0.000000	 unflanked_bex_freq_16_amplitude_0.5_rep_6_r_H.png	 H	 r	 t	 n.a.	 6.962532e-01
5	 4	 53	 unflanked	 bex	 16	 0.500000	 0.000000	 unflanked_bex_freq_16_amplitude_0.5_rep_3_r_K.png	 K	 r	 r	 n.a.	 2.750295e-01
5	 4	 54	 unflanked	 bex	 2	 2.500000	 0.000000	 unflanked_bex_freq_2_amplitude_2.5_rep_5_b_K.png	 K	 b	 r	 n.a.	 5.071194e-01
5	 4	 55	 unflanked	 bex	 32	 3.000000	 0.000000	 unflanked_bex_freq_32_amplitude_3_rep_6_l_N.png	 N	 l	 l	 n.a.	 4.111694e-01
5	 4	 56	 unflanked	 bex	 6	 2.000000	 0.000000	 unflanked_bex_freq_6_amplitude_2_rep_9_l_K.png	 K	 l	 l	 n.a.	 4.919743e-01
5	 4	 57	 unflanked	 bex	 16	 1.500000	 0.000000	 unflanked_bex_freq_16_amplitude_1.5_rep_2_b_K.png	 K	 b	 b	 n.a.	 3.988335e-01
5	 4	 58	 unflanked	 bex	 8	 2.000000	 0.000000	 unflanked_bex_freq_8_amplitude_2_rep_8_t_K.png	 K	 t	 t	 n.a.	 5.220457e-01
5	 4	 59	 unflanked	 bex	 16	 2.000000	 0.000000	 unflanked_bex_freq_16_amplitude_2_rep_9_r_H.png	 H	 r	 r	 n.a.	 2.421220e-01
5	 4	 60	 unflanked	 bex	 16	 1.500000	 0.000000	 unflanked_bex_freq_16_amplitude_1.5_rep_4_l_D.png	 D	 l	 l	 n.a.	 3.116686e-01
5	 4	 61	 unflanked	 bex	 2	 1.500000	 0.000000	 unflanked_bex_freq_2_amplitude_1.5_rep_0_b_K.png	 K	 b	 r	 n.a.	 9.794984e-01
5	 4	 62	 unflanked	 bex	 2	 1.500000	 0.000000	 unflanked_bex_freq_2_amplitude_1.5_rep_3_b_H.png	 H	 b	 t	 n.a.	 7.450009e-01
5	 4	 63	 unflanked	 bex	 2	 2.000000	 0.000000	 unflanked_bex_freq_2_amplitude_2_rep_9_b_N.png	 N	 b	 t	 n.a.	 6.987029e-01
5	 4	 64	 unflanked	 bex	 16	 2.000000	 0.000000	 unflanked_bex_freq_16_amplitude_2_rep_2_t_H.png	 H	 t	 t	 n.a.	 6.921309e-01
5	 4	 65	 unflanked	 bex	 2	 2.500000	 0.000000	 unflanked_bex_freq_2_amplitude_2.5_rep_9_r_N.png	 N	 r	 r	 n.a.	 3.226515e-01
5	 4	 66	 unflanked	 bex	 32	 2.000000	 0.000000	 unflanked_bex_freq_32_amplitude_2_rep_1_r_K.png	 K	 r	 r	 n.a.	 3.160744e-01
5	 4	 67	 unflanked	 bex	 4	 5.000000	 0.000000	 unflanked_bex_freq_4_amplitude_5_rep_2_l_K.png	 K	 l	 l	 n.a.	 2.582703e-01
5	 4	 68	 unflanked	 bex	 32	 5.000000	 0.000000	 unflanked_bex_freq_32_amplitude_5_rep_6_b_N.png	 N	 b	 b	 n.a.	 5.212563e-01
5	 4	 69	 unflanked	 bex	 2	 0.500000	 0.000000	 unflanked_bex_freq_2_amplitude_0.5_rep_4_r_K.png	 K	 r	 r	 n.a.	 2.832116e-01
5	 4	 70	 unflanked	 bex	 6	 3.000000	 0.000000	 unflanked_bex_freq_6_amplitude_3_rep_9_l_K.png	 K	 l	 l	 n.a.	 2.296615e-01
5	 4	 71	 unflanked	 bex	 32	 3.000000	 0.000000	 unflanked_bex_freq_32_amplitude_3_rep_0_t_N.png	 N	 t	 r	 n.a.	 5.722385e-01
5	 4	 72	 unflanked	 bex	 8	 3.000000	 0.000000	 unflanked_bex_freq_8_amplitude_3_rep_4_b_N.png	 N	 b	 b	 n.a.	 3.288570e-01
5	 4	 73	 unflanked	 bex	 16	 2.000000	 0.000000	 unflanked_bex_freq_16_amplitude_2_rep_6_l_N.png	 N	 l	 l	 n.a.	 2.595836e-01
5	 4	 74	 unflanked	 bex	 8	 5.000000	 0.000000	 unflanked_bex_freq_8_amplitude_5_rep_4_l_D.png	 D	 l	 l	 n.a.	 2.466110e-01
5	 4	 75	 unflanked	 bex	 2	 5.000000	 0.000000	 unflanked_bex_freq_2_amplitude_5_rep_5_r_K.png	 K	 r	 r	 n.a.	 2.958681e-01
5	 4	 76	 unflanked	 bex	 8	 2.000000	 0.000000	 unflanked_bex_freq_8_amplitude_2_rep_3_t_H.png	 H	 t	 t	 n.a.	 4.133764e-01
5	 4	 77	 unflanked	 bex	 8	 1.500000	 0.000000	 unflanked_bex_freq_8_amplitude_1.5_rep_9_t_H.png	 H	 t	 b	 n.a.	 4.187208e-01
5	 4	 78	 unflanked	 bex	 16	 1.500000	 0.000000	 unflanked_bex_freq_16_amplitude_1.5_rep_0_b_H.png	 H	 b	 r	 n.a.	 4.345576e-01
5	 4	 79	 unflanked	 bex	 6	 0.500000	 0.000000	 unflanked_bex_freq_6_amplitude_0.5_rep_5_t_N.png	 N	 t	 b	 n.a.	 4.330928e-01
5	 4	 80	 unflanked	 bex	 32	 5.000000	 0.000000	 unflanked_bex_freq_32_amplitude_5_rep_2_r_K.png	 K	 r	 r	 n.a.	 2.355840e-01
5	 4	 81	 unflanked	 bex	 16	 5.000000	 0.000000	 unflanked_bex_freq_16_amplitude_5_rep_7_l_N.png	 N	 l	 l	 n.a.	 2.696502e-01
5	 4	 82	 unflanked	 bex	 2	 2.000000	 0.000000	 unflanked_bex_freq_2_amplitude_2_rep_8_t_D.png	 D	 t	 t	 n.a.	 4.609875e-01
5	 4	 83	 unflanked	 bex	 8	 1.000000	 0.000000	 unflanked_bex_freq_8_amplitude_1_rep_2_l_K.png	 K	 l	 l	 n.a.	 3.591755e-01
5	 4	 84	 unflanked	 bex	 4	 2.500000	 0.000000	 unflanked_bex_freq_4_amplitude_2.5_rep_4_b_D.png	 D	 b	 b	 n.a.	 4.334173e-01
5	 4	 85	 unflanked	 bex	 6	 2.000000	 0.000000	 unflanked_bex_freq_6_amplitude_2_rep_3_t_K.png	 K	 t	 t	 n.a.	 5.271631e-01
5	 4	 86	 unflanked	 bex	 8	 1.000000	 0.000000	 unflanked_bex_freq_8_amplitude_1_rep_1_l_H.png	 H	 l	 t	 n.a.	 6.658013e-01
5	 4	 87	 unflanked	 bex	 2	 5.000000	 0.000000	 unflanked_bex_freq_2_amplitude_5_rep_3_l_N.png	 N	 l	 l	 n.a.	 2.432675e-01
5	 4	 88	 unflanked	 bex	 8	 5.000000	 0.000000	 unflanked_bex_freq_8_amplitude_5_rep_0_l_D.png	 D	 l	 l	 n.a.	 2.580115e-01
5	 4	 89	 unflanked	 bex	 16	 2.000000	 0.000000	 unflanked_bex_freq_16_amplitude_2_rep_7_t_K.png	 K	 t	 t	 n.a.	 5.291983e-01
5	 4	 90	 unflanked	 bex	 32	 2.500000	 0.000000	 unflanked_bex_freq_32_amplitude_2.5_rep_5_r_H.png	 H	 r	 r	 n.a.	 4.344709e-01
5	 4	 91	 unflanked	 bex	 32	 5.000000	 0.000000	 unflanked_bex_freq_32_amplitude_5_rep_0_b_D.png	 D	 b	 b	 n.a.	 4.858407e-01
5	 4	 92	 unflanked	 bex	 32	 2.000000	 0.000000	 unflanked_bex_freq_32_amplitude_2_rep_9_r_K.png	 K	 r	 r	 n.a.	 3.324740e-01
5	 4	 93	 unflanked	 bex	 6	 1.000000	 0.000000	 unflanked_bex_freq_6_amplitude_1_rep_2_b_D.png	 D	 b	 b	 n.a.	 5.827375e-01
5	 4	 94	 unflanked	 bex	 32	 3.000000	 0.000000	 unflanked_bex_freq_32_amplitude_3_rep_3_r_H.png	 H	 r	 r	 n.a.	 2.574043e-01
5	 4	 95	 unflanked	 bex	 16	 1.000000	 0.000000	 unflanked_bex_freq_16_amplitude_1_rep_8_t_H.png	 H	 t	 b	 n.a.	 5.384695e-01
5	 4	 96	 unflanked	 bex	 16	 1.500000	 0.000000	 unflanked_bex_freq_16_amplitude_1.5_rep_3_t_D.png	 D	 t	 t	 n.a.	 6.370780e-01
5	 4	 97	 unflanked	 bex	 32	 0.500000	 0.000000	 unflanked_bex_freq_32_amplitude_0.5_rep_6_t_N.png	 N	 t	 r	 n.a.	 5.396610e-01
5	 4	 98	 unflanked	 bex	 4	 5.000000	 0.000000	 unflanked_bex_freq_4_amplitude_5_rep_6_b_D.png	 D	 b	 b	 n.a.	 3.942805e-01
5	 4	 99	 unflanked	 bex	 8	 3.000000	 0.000000	 unflanked_bex_freq_8_amplitude_3_rep_9_b_N.png	 N	 b	 b	 n.a.	 2.910500e-01
5	 4	 100	 unflanked	 bex	 4	 2.500000	 0.000000	 unflanked_bex_freq_4_amplitude_2.5_rep_6_l_K.png	 K	 l	 l	 n.a.	 2.797920e-01
5	 4	 101	 unflanked	 bex	 16	 1.000000	 0.000000	 unflanked_bex_freq_16_amplitude_1_rep_7_l_H.png	 H	 l	 b	 n.a.	 3.378889e-01
5	 4	 102	 unflanked	 bex	 2	 1.500000	 0.000000	 unflanked_bex_freq_2_amplitude_1.5_rep_8_l_K.png	 K	 l	 l	 n.a.	 3.251596e-01
5	 4	 103	 unflanked	 bex	 4	 2.000000	 0.000000	 unflanked_bex_freq_4_amplitude_2_rep_1_r_D.png	 D	 r	 r	 n.a.	 3.691423e-01
5	 4	 104	 unflanked	 bex	 32	 2.500000	 0.000000	 unflanked_bex_freq_32_amplitude_2.5_rep_3_b_N.png	 N	 b	 b	 n.a.	 4.209329e-01
5	 4	 105	 unflanked	 bex	 6	 3.000000	 0.000000	 unflanked_bex_freq_6_amplitude_3_rep_6_l_K.png	 K	 l	 l	 n.a.	 2.795184e-01
5	 4	 106	 unflanked	 bex	 8	 5.000000	 0.000000	 unflanked_bex_freq_8_amplitude_5_rep_7_r_K.png	 K	 r	 r	 n.a.	 2.415920e-01
5	 4	 107	 unflanked	 bex	 8	 1.000000	 0.000000	 unflanked_bex_freq_8_amplitude_1_rep_8_b_D.png	 D	 b	 b	 n.a.	 5.235820e-01
5	 4	 108	 unflanked	 bex	 16	 3.000000	 0.000000	 unflanked_bex_freq_16_amplitude_3_rep_0_b_K.png	 K	 b	 b	 n.a.	 2.810675e-01
5	 4	 109	 unflanked	 bex	 2	 3.000000	 0.000000	 unflanked_bex_freq_2_amplitude_3_rep_4_r_H.png	 H	 r	 r	 n.a.	 2.932921e-01
5	 4	 110	 unflanked	 bex	 32	 1.500000	 0.000000	 unflanked_bex_freq_32_amplitude_1.5_rep_4_t_D.png	 D	 t	 t	 n.a.	 6.940088e-01
5	 4	 111	 unflanked	 bex	 32	 1.000000	 0.000000	 unflanked_bex_freq_32_amplitude_1_rep_8_l_H.png	 H	 l	 r	 n.a.	 3.637443e-01
5	 4	 112	 unflanked	 bex	 32	 2.500000	 0.000000	 unflanked_bex_freq_32_amplitude_2.5_rep_6_b_H.png	 H	 b	 b	 n.a.	 5.323969e-01
5	 4	 113	 unflanked	 bex	 6	 1.500000	 0.000000	 unflanked_bex_freq_6_amplitude_1.5_rep_5_b_N.png	 N	 b	 r	 n.a.	 2.777026e-01
5	 4	 114	 unflanked	 bex	 6	 1.000000	 0.000000	 unflanked_bex_freq_6_amplitude_1_rep_4_l_K.png	 K	 l	 l	 n.a.	 2.926730e-01
5	 4	 115	 unflanked	 bex	 2	 1.500000	 0.000000	 unflanked_bex_freq_2_amplitude_1.5_rep_4_r_H.png	 H	 r	 r	 n.a.	 2.699838e-01
5	 4	 116	 unflanked	 bex	 32	 1.000000	 0.000000	 unflanked_bex_freq_32_amplitude_1_rep_0_t_D.png	 D	 t	 t	 n.a.	 5.635290e-01
5	 4	 117	 unflanked	 bex	 32	 1.000000	 0.000000	 unflanked_bex_freq_32_amplitude_1_rep_5_l_D.png	 D	 l	 b	 n.a.	 4.937167e-01
5	 4	 118	 unflanked	 bex	 8	 0.500000	 0.000000	 unflanked_bex_freq_8_amplitude_0.5_rep_9_t_N.png	 N	 t	 r	 n.a.	 4.292042e-01
5	 4	 119	 unflanked	 bex	 4	 0.500000	 0.000000	 unflanked_bex_freq_4_amplitude_0.5_rep_1_t_N.png	 N	 t	 b	 n.a.	 5.228980e-01
5	 4	 120	 unflanked	 bex	 6	 2.000000	 0.000000	 unflanked_bex_freq_6_amplitude_2_rep_4_b_K.png	 K	 b	 t	 n.a.	 6.971773e-01
5	 4	 121	 unflanked	 bex	 6	 1.500000	 0.000000	 unflanked_bex_freq_6_amplitude_1.5_rep_3_t_N.png	 N	 t	 r	 n.a.	 7.427498e-01
5	 4	 122	 unflanked	 bex	 2	 2.500000	 0.000000	 unflanked_bex_freq_2_amplitude_2.5_rep_7_t_K.png	 K	 t	 t	 n.a.	 4.173735e-01
5	 4	 123	 unflanked	 bex	 8	 1.500000	 0.000000	 unflanked_bex_freq_8_amplitude_1.5_rep_7_r_K.png	 K	 r	 r	 n.a.	 3.276308e-01
5	 4	 124	 unflanked	 bex	 4	 1.500000	 0.000000	 unflanked_bex_freq_4_amplitude_1.5_rep_9_r_K.png	 K	 r	 r	 n.a.	 2.584230e-01
5	 4	 125	 unflanked	 bex	 2	 0.500000	 0.000000	 unflanked_bex_freq_2_amplitude_0.5_rep_5_t_N.png	 N	 t	 l	 n.a.	 7.867126e-01
5	 4	 126	 unflanked	 bex	 6	 5.000000	 0.000000	 unflanked_bex_freq_6_amplitude_5_rep_1_r_D.png	 D	 r	 r	 n.a.	 2.027437e-01
5	 4	 127	 unflanked	 bex	 4	 2.000000	 0.000000	 unflanked_bex_freq_4_amplitude_2_rep_6_l_D.png	 D	 l	 l	 n.a.	 3.074130e-01
5	 4	 128	 unflanked	 bex	 2	 2.500000	 0.000000	 unflanked_bex_freq_2_amplitude_2.5_rep_8_b_N.png	 N	 b	 b	 n.a.	 4.485809e-01
5	 4	 129	 unflanked	 bex	 2	 0.500000	 0.000000	 unflanked_bex_freq_2_amplitude_0.5_rep_8_t_D.png	 D	 t	 r	 n.a.	 3.576296e-01
5	 4	 130	 unflanked	 bex	 2	 1.000000	 0.000000	 unflanked_bex_freq_2_amplitude_1_rep_7_t_K.png	 K	 t	 t	 n.a.	 5.698574e-01
5	 4	 131	 unflanked	 bex	 6	 2.000000	 0.000000	 unflanked_bex_freq_6_amplitude_2_rep_2_l_K.png	 K	 l	 l	 n.a.	 2.676788e-01
5	 4	 132	 unflanked	 bex	 4	 5.000000	 0.000000	 unflanked_bex_freq_4_amplitude_5_rep_3_t_N.png	 N	 t	 t	 n.a.	 4.729902e-01
5	 4	 133	 unflanked	 bex	 16	 2.000000	 0.000000	 unflanked_bex_freq_16_amplitude_2_rep_8_b_D.png	 D	 b	 b	 n.a.	 3.885516e-01
5	 4	 134	 unflanked	 bex	 2	 0.500000	 0.000000	 unflanked_bex_freq_2_amplitude_0.5_rep_9_t_H.png	 H	 t	 t	 n.a.	 5.909889e-01
5	 4	 135	 unflanked	 bex	 2	 1.000000	 0.000000	 unflanked_bex_freq_2_amplitude_1_rep_6_t_N.png	 N	 t	 t	 n.a.	 9.129196e-01
5	 4	 136	 unflanked	 bex	 6	 1.000000	 0.000000	 unflanked_bex_freq_6_amplitude_1_rep_1_l_N.png	 N	 l	 l	 n.a.	 4.265741e-01
5	 4	 137	 unflanked	 bex	 32	 1.500000	 0.000000	 unflanked_bex_freq_32_amplitude_1.5_rep_8_l_H.png	 H	 l	 r	 n.a.	 2.823857e-01
5	 4	 138	 unflanked	 bex	 6	 1.000000	 0.000000	 unflanked_bex_freq_6_amplitude_1_rep_0_r_H.png	 H	 r	 r	 n.a.	 2.638917e-01
5	 4	 139	 unflanked	 bex	 16	 0.500000	 0.000000	 unflanked_bex_freq_16_amplitude_0.5_rep_7_t_D.png	 D	 t	 t	 n.a.	 6.532902e-01
5	 4	 140	 unflanked	 bex	 2	 2.000000	 0.000000	 unflanked_bex_freq_2_amplitude_2_rep_7_b_H.png	 H	 b	 b	 n.a.	 7.291319e-01
5	 4	 141	 unflanked	 bex	 32	 5.000000	 0.000000	 unflanked_bex_freq_32_amplitude_5_rep_3_t_D.png	 D	 t	 t	 n.a.	 4.314277e-01
5	 4	 142	 unflanked	 bex	 6	 1.000000	 0.000000	 unflanked_bex_freq_6_amplitude_1_rep_6_r_N.png	 N	 r	 r	 n.a.	 4.573235e-01
5	 4	 143	 unflanked	 bex	 32	 1.500000	 0.000000	 unflanked_bex_freq_32_amplitude_1.5_rep_5_t_H.png	 H	 t	 r	 n.a.	 6.700266e-01
5	 4	 144	 unflanked	 bex	 4	 3.000000	 0.000000	 unflanked_bex_freq_4_amplitude_3_rep_6_b_N.png	 N	 b	 b	 n.a.	 2.227159e-01
5	 4	 145	 unflanked	 bex	 4	 3.000000	 0.000000	 unflanked_bex_freq_4_amplitude_3_rep_8_l_N.png	 N	 l	 l	 n.a.	 2.363956e-01
5	 4	 146	 unflanked	 bex	 6	 1.500000	 0.000000	 unflanked_bex_freq_6_amplitude_1.5_rep_1_b_N.png	 N	 b	 t	 n.a.	 5.372343e-01
5	 4	 147	 unflanked	 bex	 2	 2.500000	 0.000000	 unflanked_bex_freq_2_amplitude_2.5_rep_3_b_K.png	 K	 b	 b	 n.a.	 3.260029e-01
5	 4	 148	 unflanked	 bex	 2	 0.500000	 0.000000	 unflanked_bex_freq_2_amplitude_0.5_rep_7_r_K.png	 K	 r	 t	 n.a.	 7.615037e-01
5	 4	 149	 unflanked	 bex	 8	 3.000000	 0.000000	 unflanked_bex_freq_8_amplitude_3_rep_8_l_H.png	 H	 l	 l	 n.a.	 2.161072e-01
5	 4	 150	 unflanked	 bex	 8	 3.000000	 0.000000	 unflanked_bex_freq_8_amplitude_3_rep_6_b_H.png	 H	 b	 b	 n.a.	 4.333431e-01
5	 4	 151	 unflanked	 bex	 4	 3.000000	 0.000000	 unflanked_bex_freq_4_amplitude_3_rep_4_b_H.png	 H	 b	 b	 n.a.	 2.385367e-01
5	 4	 152	 unflanked	 bex	 2	 2.000000	 0.000000	 unflanked_bex_freq_2_amplitude_2_rep_5_r_K.png	 K	 r	 r	 n.a.	 2.691667e-01
5	 4	 153	 unflanked	 bex	 16	 3.000000	 0.000000	 unflanked_bex_freq_16_amplitude_3_rep_6_l_K.png	 K	 l	 l	 n.a.	 2.257921e-01
5	 4	 154	 unflanked	 bex	 16	 5.000000	 0.000000	 unflanked_bex_freq_16_amplitude_5_rep_9_b_N.png	 N	 b	 b	 n.a.	 4.179031e-01
5	 4	 155	 unflanked	 bex	 16	 0.500000	 0.000000	 unflanked_bex_freq_16_amplitude_0.5_rep_2_r_N.png	 N	 r	 b	 n.a.	 2.521948e-01
5	 4	 156	 unflanked	 bex	 32	 2.000000	 0.000000	 unflanked_bex_freq_32_amplitude_2_rep_8_b_H.png	 H	 b	 r	 n.a.	 2.517763e-01
5	 4	 157	 unflanked	 bex	 6	 1.500000	 0.000000	 unflanked_bex_freq_6_amplitude_1.5_rep_7_b_K.png	 K	 b	 b	 n.a.	 3.771695e-01
5	 4	 158	 unflanked	 bex	 2	 2.500000	 0.000000	 unflanked_bex_freq_2_amplitude_2.5_rep_1_b_K.png	 K	 b	 b	 n.a.	 2.476040e-01
5	 4	 159	 unflanked	 bex	 16	 2.500000	 0.000000	 unflanked_bex_freq_16_amplitude_2.5_rep_2_r_N.png	 N	 r	 r	 n.a.	 3.909086e-01
5	 4	 160	 unflanked	 bex	 4	 2.500000	 0.000000	 unflanked_bex_freq_4_amplitude_2.5_rep_5_b_N.png	 N	 b	 b	 n.a.	 3.536955e-01
5	 4	 161	 unflanked	 bex	 8	 1.500000	 0.000000	 unflanked_bex_freq_8_amplitude_1.5_rep_3_l_N.png	 N	 l	 l	 n.a.	 3.197595e-01
5	 4	 162	 unflanked	 bex	 32	 3.000000	 0.000000	 unflanked_bex_freq_32_amplitude_3_rep_1_l_K.png	 K	 l	 l	 n.a.	 2.425711e-01
5	 4	 163	 unflanked	 bex	 32	 0.500000	 0.000000	 unflanked_bex_freq_32_amplitude_0.5_rep_4_b_H.png	 H	 b	 t	 n.a.	 5.663417e-01
5	 4	 164	 unflanked	 bex	 16	 2.500000	 0.000000	 unflanked_bex_freq_16_amplitude_2.5_rep_6_r_K.png	 K	 r	 r	 n.a.	 2.106592e-01
5	 4	 165	 unflanked	 bex	 4	 1.000000	 0.000000	 unflanked_bex_freq_4_amplitude_1_rep_5_l_D.png	 D	 l	 t	 n.a.	 4.842464e-01
5	 4	 166	 unflanked	 bex	 32	 1.000000	 0.000000	 unflanked_bex_freq_32_amplitude_1_rep_4_r_D.png	 D	 r	 r	 n.a.	 6.357048e-01
5	 4	 167	 unflanked	 bex	 2	 5.000000	 0.000000	 unflanked_bex_freq_2_amplitude_5_rep_2_r_D.png	 D	 r	 r	 n.a.	 3.535132e-01
5	 4	 168	 unflanked	 bex	 4	 3.000000	 0.000000	 unflanked_bex_freq_4_amplitude_3_rep_7_t_D.png	 D	 t	 t	 n.a.	 4.652891e-01
5	 4	 169	 unflanked	 bex	 8	 1.500000	 0.000000	 unflanked_bex_freq_8_amplitude_1.5_rep_0_r_K.png	 K	 r	 r	 n.a.	 2.215424e-01
5	 4	 170	 unflanked	 bex	 16	 5.000000	 0.000000	 unflanked_bex_freq_16_amplitude_5_rep_3_l_H.png	 H	 l	 l	 n.a.	 2.730037e-01
5	 4	 171	 unflanked	 bex	 2	 2.000000	 0.000000	 unflanked_bex_freq_2_amplitude_2_rep_1_t_N.png	 N	 t	 t	 n.a.	 5.444540e-01
5	 4	 172	 unflanked	 bex	 8	 5.000000	 0.000000	 unflanked_bex_freq_8_amplitude_5_rep_3_l_N.png	 N	 l	 l	 n.a.	 2.888967e-01
5	 4	 173	 unflanked	 bex	 16	 5.000000	 0.000000	 unflanked_bex_freq_16_amplitude_5_rep_2_t_D.png	 D	 t	 t	 n.a.	 2.845060e-01
5	 4	 174	 unflanked	 bex	 8	 2.500000	 0.000000	 unflanked_bex_freq_8_amplitude_2.5_rep_4_l_K.png	 K	 l	 l	 n.a.	 2.711191e-01
5	 4	 175	 unflanked	 bex	 2	 0.500000	 0.000000	 unflanked_bex_freq_2_amplitude_0.5_rep_3_r_H.png	 H	 r	 b	 n.a.	 5.473529e-01
5	 4	 176	 unflanked	 bex	 6	 0.500000	 0.000000	 unflanked_bex_freq_6_amplitude_0.5_rep_0_t_N.png	 N	 t	 r	 n.a.	 3.666281e-01
5	 4	 177	 unflanked	 bex	 6	 2.500000	 0.000000	 unflanked_bex_freq_6_amplitude_2.5_rep_6_b_D.png	 D	 b	 b	 n.a.	 4.036511e-01
5	 4	 178	 unflanked	 bex	 8	 0.500000	 0.000000	 unflanked_bex_freq_8_amplitude_0.5_rep_0_b_N.png	 N	 b	 r	 n.a.	 3.975910e-01
5	 4	 179	 unflanked	 bex	 6	 0.500000	 0.000000	 unflanked_bex_freq_6_amplitude_0.5_rep_7_l_D.png	 D	 l	 t	 n.a.	 7.017133e-01
5	 4	 180	 unflanked	 bex	 32	 1.000000	 0.000000	 unflanked_bex_freq_32_amplitude_1_rep_7_l_K.png	 K	 l	 t	 n.a.	 6.293331e-01
5	 4	 181	 unflanked	 bex	 4	 2.000000	 0.000000	 unflanked_bex_freq_4_amplitude_2_rep_9_l_K.png	 K	 l	 l	 n.a.	 3.182855e-01
5	 4	 182	 unflanked	 bex	 8	 1.000000	 0.000000	 unflanked_bex_freq_8_amplitude_1_rep_3_r_N.png	 N	 r	 r	 n.a.	 2.227027e-01
5	 4	 183	 unflanked	 bex	 4	 3.000000	 0.000000	 unflanked_bex_freq_4_amplitude_3_rep_9_t_H.png	 H	 t	 t	 n.a.	 5.171728e-01
5	 4	 184	 unflanked	 bex	 4	 0.500000	 0.000000	 unflanked_bex_freq_4_amplitude_0.5_rep_0_r_D.png	 D	 r	 b	 n.a.	 3.874389e-01
5	 4	 185	 unflanked	 bex	 32	 2.500000	 0.000000	 unflanked_bex_freq_32_amplitude_2.5_rep_1_l_H.png	 H	 l	 t	 n.a.	 4.604819e-01
5	 4	 186	 unflanked	 bex	 32	 5.000000	 0.000000	 unflanked_bex_freq_32_amplitude_5_rep_9_l_H.png	 H	 l	 l	 n.a.	 2.923035e-01
5	 4	 187	 unflanked	 bex	 8	 0.500000	 0.000000	 unflanked_bex_freq_8_amplitude_0.5_rep_5_b_N.png	 N	 b	 r	 n.a.	 3.423171e-01
5	 4	 188	 unflanked	 bex	 4	 1.500000	 0.000000	 unflanked_bex_freq_4_amplitude_1.5_rep_7_b_N.png	 N	 b	 b	 n.a.	 3.936766e-01
5	 4	 189	 unflanked	 bex	 16	 1.000000	 0.000000	 unflanked_bex_freq_16_amplitude_1_rep_6_t_D.png	 D	 t	 b	 n.a.	 5.384362e-01
5	 4	 190	 unflanked	 bex	 6	 3.000000	 0.000000	 unflanked_bex_freq_6_amplitude_3_rep_7_l_H.png	 H	 l	 l	 n.a.	 2.821332e-01
5	 4	 191	 unflanked	 bex	 16	 1.000000	 0.000000	 unflanked_bex_freq_16_amplitude_1_rep_9_t_H.png	 H	 t	 r	 n.a.	 2.979893e-01
5	 4	 192	 unflanked	 bex	 8	 2.000000	 0.000000	 unflanked_bex_freq_8_amplitude_2_rep_1_l_D.png	 D	 l	 l	 n.a.	 3.244145e-01
5	 4	 193	 unflanked	 bex	 4	 5.000000	 0.000000	 unflanked_bex_freq_4_amplitude_5_rep_5_r_K.png	 K	 r	 r	 n.a.	 2.256973e-01
5	 4	 194	 unflanked	 bex	 8	 3.000000	 0.000000	 unflanked_bex_freq_8_amplitude_3_rep_2_l_D.png	 D	 l	 l	 n.a.	 2.301564e-01
5	 4	 195	 unflanked	 bex	 8	 2.500000	 0.000000	 unflanked_bex_freq_8_amplitude_2.5_rep_5_b_D.png	 D	 b	 b	 n.a.	 3.639914e-01
5	 4	 196	 unflanked	 bex	 32	 0.500000	 0.000000	 unflanked_bex_freq_32_amplitude_0.5_rep_3_t_N.png	 N	 t	 r	 n.a.	 5.566719e-01
5	 4	 197	 unflanked	 bex	 8	 1.500000	 0.000000	 unflanked_bex_freq_8_amplitude_1.5_rep_8_l_D.png	 D	 l	 l	 n.a.	 2.232347e-01
5	 4	 198	 unflanked	 bex	 2	 1.500000	 0.000000	 unflanked_bex_freq_2_amplitude_1.5_rep_5_l_H.png	 H	 l	 l	 n.a.	 4.385886e-01
5	 4	 199	 unflanked	 bex	 4	 0.500000	 0.000000	 unflanked_bex_freq_4_amplitude_0.5_rep_9_r_K.png	 K	 r	 r	 n.a.	 4.333400e-01
5	 4	 200	 unflanked	 bex	 32	 0.500000	 0.000000	 unflanked_bex_freq_32_amplitude_0.5_rep_0_b_H.png	 H	 b	 r	 n.a.	 3.127498e-01
5	 4	 201	 unflanked	 bex	 2	 1.500000	 0.000000	 unflanked_bex_freq_2_amplitude_1.5_rep_7_b_N.png	 N	 b	 b	 n.a.	 6.803847e-01
5	 4	 202	 unflanked	 bex	 4	 5.000000	 0.000000	 unflanked_bex_freq_4_amplitude_5_rep_0_t_D.png	 D	 t	 t	 n.a.	 4.521074e-01
5	 4	 203	 unflanked	 bex	 16	 3.000000	 0.000000	 unflanked_bex_freq_16_amplitude_3_rep_3_b_N.png	 N	 b	 t	 n.a.	 1.039810e+00
5	 4	 204	 unflanked	 bex	 8	 0.500000	 0.000000	 unflanked_bex_freq_8_amplitude_0.5_rep_8_r_K.png	 K	 r	 l	 n.a.	 6.341592e-01
5	 4	 205	 unflanked	 bex	 2	 2.000000	 0.000000	 unflanked_bex_freq_2_amplitude_2_rep_4_l_N.png	 N	 l	 l	 n.a.	 4.408869e-01
5	 4	 206	 unflanked	 bex	 16	 2.500000	 0.000000	 unflanked_bex_freq_16_amplitude_2.5_rep_0_t_H.png	 H	 t	 t	 n.a.	 4.463203e-01
5	 4	 207	 unflanked	 bex	 4	 1.500000	 0.000000	 unflanked_bex_freq_4_amplitude_1.5_rep_5_r_K.png	 K	 r	 r	 n.a.	 2.771641e-01
5	 4	 208	 unflanked	 bex	 6	 2.500000	 0.000000	 unflanked_bex_freq_6_amplitude_2.5_rep_7_r_N.png	 N	 r	 r	 n.a.	 2.064520e-01
5	 4	 209	 unflanked	 bex	 2	 3.000000	 0.000000	 unflanked_bex_freq_2_amplitude_3_rep_7_r_D.png	 D	 r	 r	 n.a.	 2.794742e-01
5	 4	 210	 unflanked	 bex	 32	 2.500000	 0.000000	 unflanked_bex_freq_32_amplitude_2.5_rep_4_r_N.png	 N	 r	 r	 n.a.	 2.624765e-01
5	 4	 211	 unflanked	 bex	 2	 5.000000	 0.000000	 unflanked_bex_freq_2_amplitude_5_rep_4_b_N.png	 N	 b	 b	 n.a.	 3.631547e-01
5	 4	 212	 unflanked	 bex	 2	 1.000000	 0.000000	 unflanked_bex_freq_2_amplitude_1_rep_2_r_K.png	 K	 r	 r	 n.a.	 2.976208e-01
5	 4	 213	 unflanked	 bex	 8	 5.000000	 0.000000	 unflanked_bex_freq_8_amplitude_5_rep_2_b_N.png	 N	 b	 b	 n.a.	 2.820123e-01
5	 4	 214	 unflanked	 bex	 2	 0.500000	 0.000000	 unflanked_bex_freq_2_amplitude_0.5_rep_2_t_D.png	 D	 t	 t	 n.a.	 5.646610e-01
5	 4	 215	 unflanked	 bex	 6	 2.500000	 0.000000	 unflanked_bex_freq_6_amplitude_2.5_rep_8_r_N.png	 N	 r	 r	 n.a.	 3.366728e-01
5	 4	 216	 unflanked	 bex	 32	 1.000000	 0.000000	 unflanked_bex_freq_32_amplitude_1_rep_1_l_K.png	 K	 l	 b	 n.a.	 4.423326e-01
5	 4	 217	 unflanked	 bex	 6	 3.000000	 0.000000	 unflanked_bex_freq_6_amplitude_3_rep_2_l_H.png	 H	 l	 l	 n.a.	 2.077247e-01
5	 4	 218	 unflanked	 bex	 2	 1.000000	 0.000000	 unflanked_bex_freq_2_amplitude_1_rep_1_l_D.png	 D	 l	 b	 n.a.	 3.895742e-01
5	 4	 219	 unflanked	 bex	 2	 1.500000	 0.000000	 unflanked_bex_freq_2_amplitude_1.5_rep_9_t_H.png	 H	 t	 t	 n.a.	 6.232815e-01
5	 4	 220	 unflanked	 bex	 4	 2.000000	 0.000000	 unflanked_bex_freq_4_amplitude_2_rep_8_b_K.png	 K	 b	 b	 n.a.	 3.304366e-01
5	 4	 221	 unflanked	 bex	 6	 0.500000	 0.000000	 unflanked_bex_freq_6_amplitude_0.5_rep_3_b_D.png	 D	 b	 t	 n.a.	 5.926520e-01
5	 4	 222	 unflanked	 bex	 8	 2.000000	 0.000000	 unflanked_bex_freq_8_amplitude_2_rep_2_t_N.png	 N	 t	 t	 n.a.	 4.734821e-01
5	 4	 223	 unflanked	 bex	 6	 3.000000	 0.000000	 unflanked_bex_freq_6_amplitude_3_rep_5_b_K.png	 K	 b	 b	 n.a.	 3.238804e-01
5	 4	 224	 unflanked	 bex	 32	 3.000000	 0.000000	 unflanked_bex_freq_32_amplitude_3_rep_9_r_H.png	 H	 r	 t	 n.a.	 6.029104e-01
5	 4	 225	 unflanked	 bex	 4	 1.000000	 0.000000	 unflanked_bex_freq_4_amplitude_1_rep_4_b_N.png	 N	 b	 t	 n.a.	 8.734166e-01
5	 4	 226	 unflanked	 bex	 6	 2.000000	 0.000000	 unflanked_bex_freq_6_amplitude_2_rep_6_l_N.png	 N	 l	 l	 n.a.	 3.379370e-01
5	 4	 227	 unflanked	 bex	 8	 3.000000	 0.000000	 unflanked_bex_freq_8_amplitude_3_rep_0_b_D.png	 D	 b	 b	 n.a.	 2.941943e-01
5	 4	 228	 unflanked	 bex	 6	 0.500000	 0.000000	 unflanked_bex_freq_6_amplitude_0.5_rep_2_t_K.png	 K	 t	 b	 n.a.	 5.366231e-01
5	 4	 229	 unflanked	 bex	 4	 1.500000	 0.000000	 unflanked_bex_freq_4_amplitude_1.5_rep_0_l_H.png	 H	 l	 t	 n.a.	 5.559456e-01
5	 4	 230	 unflanked	 bex	 4	 3.000000	 0.000000	 unflanked_bex_freq_4_amplitude_3_rep_3_b_D.png	 D	 b	 b	 n.a.	 3.781180e-01
5	 4	 231	 unflanked	 bex	 32	 0.500000	 0.000000	 unflanked_bex_freq_32_amplitude_0.5_rep_1_b_K.png	 K	 b	 r	 n.a.	 4.924256e-01
5	 4	 232	 unflanked	 bex	 8	 1.500000	 0.000000	 unflanked_bex_freq_8_amplitude_1.5_rep_5_t_K.png	 K	 t	 t	 n.a.	 5.109889e-01
5	 4	 233	 unflanked	 bex	 4	 5.000000	 0.000000	 unflanked_bex_freq_4_amplitude_5_rep_4_l_H.png	 H	 l	 l	 n.a.	 2.822218e-01
5	 4	 234	 unflanked	 bex	 2	 2.000000	 0.000000	 unflanked_bex_freq_2_amplitude_2_rep_0_r_N.png	 N	 r	 r	 n.a.	 3.892628e-01
5	 4	 235	 unflanked	 bex	 2	 1.000000	 0.000000	 unflanked_bex_freq_2_amplitude_1_rep_8_l_D.png	 D	 l	 t	 n.a.	 5.132361e-01
5	 4	 236	 unflanked	 bex	 16	 1.000000	 0.000000	 unflanked_bex_freq_16_amplitude_1_rep_2_l_K.png	 K	 l	 t	 n.a.	 5.160391e-01
5	 4	 237	 unflanked	 bex	 4	 1.500000	 0.000000	 unflanked_bex_freq_4_amplitude_1.5_rep_2_t_H.png	 H	 t	 l	 n.a.	 1.199866e+00
5	 4	 238	 unflanked	 bex	 4	 5.000000	 0.000000	 unflanked_bex_freq_4_amplitude_5_rep_7_r_K.png	 K	 r	 r	 n.a.	 2.448594e-01
5	 4	 239	 unflanked	 bex	 32	 1.500000	 0.000000	 unflanked_bex_freq_32_amplitude_1.5_rep_3_l_N.png	 N	 l	 l	 n.a.	 4.525426e-01
5	 4	 240	 unflanked	 bex	 32	 1.500000	 0.000000	 unflanked_bex_freq_32_amplitude_1.5_rep_0_l_D.png	 D	 l	 t	 n.a.	 5.600919e-01
5	 4	 241	 unflanked	 bex	 16	 0.500000	 0.000000	 unflanked_bex_freq_16_amplitude_0.5_rep_9_b_K.png	 K	 b	 b	 n.a.	 6.058802e-01
5	 4	 242	 unflanked	 bex	 8	 2.500000	 0.000000	 unflanked_bex_freq_8_amplitude_2.5_rep_6_l_K.png	 K	 l	 l	 n.a.	 2.739184e-01
5	 4	 243	 unflanked	 bex	 16	 2.500000	 0.000000	 unflanked_bex_freq_16_amplitude_2.5_rep_3_l_N.png	 N	 l	 l	 n.a.	 3.223430e-01
5	 4	 244	 unflanked	 bex	 16	 1.000000	 0.000000	 unflanked_bex_freq_16_amplitude_1_rep_0_r_N.png	 N	 r	 b	 n.a.	 4.212958e-01
5	 4	 245	 unflanked	 bex	 6	 0.500000	 0.000000	 unflanked_bex_freq_6_amplitude_0.5_rep_6_t_N.png	 N	 t	 r	 n.a.	 3.649893e-01
5	 4	 246	 unflanked	 bex	 4	 0.500000	 0.000000	 unflanked_bex_freq_4_amplitude_0.5_rep_7_r_D.png	 D	 r	 l	 n.a.	 3.827732e-01
5	 4	 247	 unflanked	 bex	 6	 1.500000	 0.000000	 unflanked_bex_freq_6_amplitude_1.5_rep_4_b_N.png	 N	 b	 l	 n.a.	 4.816685e-01
5	 4	 248	 unflanked	 bex	 32	 2.000000	 0.000000	 unflanked_bex_freq_32_amplitude_2_rep_5_b_K.png	 K	 b	 b	 n.a.	 5.251622e-01
5	 4	 249	 unflanked	 bex	 16	 1.500000	 0.000000	 unflanked_bex_freq_16_amplitude_1.5_rep_5_t_H.png	 H	 t	 t	 n.a.	 6.112045e-01
5	 4	 250	 unflanked	 bex	 16	 2.500000	 0.000000	 unflanked_bex_freq_16_amplitude_2.5_rep_4_r_H.png	 H	 r	 r	 n.a.	 2.635447e-01
5	 4	 251	 unflanked	 bex	 6	 5.000000	 0.000000	 unflanked_bex_freq_6_amplitude_5_rep_0_t_K.png	 K	 t	 t	 n.a.	 4.629559e-01
5	 4	 252	 unflanked	 bex	 16	 1.000000	 0.000000	 unflanked_bex_freq_16_amplitude_1_rep_5_r_D.png	 D	 r	 r	 n.a.	 4.296072e-01
5	 4	 253	 unflanked	 bex	 16	 3.000000	 0.000000	 unflanked_bex_freq_16_amplitude_3_rep_4_l_N.png	 N	 l	 l	 n.a.	 2.791674e-01
5	 4	 254	 unflanked	 bex	 4	 1.000000	 0.000000	 unflanked_bex_freq_4_amplitude_1_rep_8_t_H.png	 H	 t	 t	 n.a.	 1.005038e+00
5	 4	 255	 unflanked	 bex	 8	 1.000000	 0.000000	 unflanked_bex_freq_8_amplitude_1_rep_5_b_K.png	 K	 b	 l	 n.a.	 6.300887e-01
5	 4	 256	 unflanked	 bex	 8	 5.000000	 0.000000	 unflanked_bex_freq_8_amplitude_5_rep_8_b_D.png	 D	 b	 b	 n.a.	 3.972863e-01
5	 4	 257	 unflanked	 bex	 32	 2.000000	 0.000000	 unflanked_bex_freq_32_amplitude_2_rep_3_l_N.png	 N	 l	 l	 n.a.	 5.037383e-01
5	 4	 258	 unflanked	 bex	 8	 3.000000	 0.000000	 unflanked_bex_freq_8_amplitude_3_rep_3_l_H.png	 H	 l	 l	 n.a.	 2.908714e-01
5	 4	 259	 unflanked	 bex	 32	 3.000000	 0.000000	 unflanked_bex_freq_32_amplitude_3_rep_5_r_N.png	 N	 r	 r	 n.a.	 2.083548e-01
5	 4	 260	 unflanked	 bex	 8	 1.000000	 0.000000	 unflanked_bex_freq_8_amplitude_1_rep_4_b_H.png	 H	 b	 t	 n.a.	 5.758681e-01
5	 4	 261	 unflanked	 bex	 8	 5.000000	 0.000000	 unflanked_bex_freq_8_amplitude_5_rep_1_l_D.png	 D	 l	 l	 n.a.	 1.947948e-01
5	 4	 262	 unflanked	 bex	 2	 1.000000	 0.000000	 unflanked_bex_freq_2_amplitude_1_rep_5_l_D.png	 D	 l	 l	 n.a.	 4.102293e-01
5	 4	 263	 unflanked	 bex	 32	 5.000000	 0.000000	 unflanked_bex_freq_32_amplitude_5_rep_4_t_D.png	 D	 t	 t	 n.a.	 4.558026e-01
5	 4	 264	 unflanked	 bex	 4	 3.000000	 0.000000	 unflanked_bex_freq_4_amplitude_3_rep_5_r_K.png	 K	 r	 r	 n.a.	 2.732809e-01
5	 4	 265	 unflanked	 bex	 32	 2.500000	 0.000000	 unflanked_bex_freq_32_amplitude_2.5_rep_2_t_N.png	 N	 t	 l	 n.a.	 3.670593e-01
5	 4	 266	 unflanked	 bex	 8	 3.000000	 0.000000	 unflanked_bex_freq_8_amplitude_3_rep_5_b_N.png	 N	 b	 b	 n.a.	 4.599889e-01
5	 4	 267	 unflanked	 bex	 4	 2.500000	 0.000000	 unflanked_bex_freq_4_amplitude_2.5_rep_9_l_H.png	 H	 l	 l	 n.a.	 3.146859e-01
5	 4	 268	 unflanked	 bex	 32	 2.500000	 0.000000	 unflanked_bex_freq_32_amplitude_2.5_rep_7_l_H.png	 H	 l	 l	 n.a.	 4.116262e-01
5	 4	 269	 unflanked	 bex	 16	 2.000000	 0.000000	 unflanked_bex_freq_16_amplitude_2_rep_5_l_D.png	 D	 l	 l	 n.a.	 2.802193e-01
5	 4	 270	 unflanked	 bex	 32	 3.000000	 0.000000	 unflanked_bex_freq_32_amplitude_3_rep_8_t_K.png	 K	 t	 t	 n.a.	 4.856134e-01
5	 4	 271	 unflanked	 bex	 8	 2.500000	 0.000000	 unflanked_bex_freq_8_amplitude_2.5_rep_1_t_H.png	 H	 t	 t	 n.a.	 4.123825e-01
5	 4	 272	 unflanked	 bex	 8	 2.500000	 0.000000	 unflanked_bex_freq_8_amplitude_2.5_rep_8_r_K.png	 K	 r	 r	 n.a.	 2.547218e-01
5	 4	 273	 unflanked	 bex	 6	 0.500000	 0.000000	 unflanked_bex_freq_6_amplitude_0.5_rep_9_t_H.png	 H	 t	 t	 n.a.	 5.174772e-01
5	 4	 274	 unflanked	 bex	 2	 5.000000	 0.000000	 unflanked_bex_freq_2_amplitude_5_rep_7_r_H.png	 H	 r	 r	 n.a.	 2.667555e-01
5	 4	 275	 unflanked	 bex	 32	 0.500000	 0.000000	 unflanked_bex_freq_32_amplitude_0.5_rep_7_l_N.png	 N	 l	 t	 n.a.	 4.226891e-01
5	 4	 276	 unflanked	 bex	 8	 0.500000	 0.000000	 unflanked_bex_freq_8_amplitude_0.5_rep_1_r_D.png	 D	 r	 l	 n.a.	 3.990271e-01
5	 4	 277	 unflanked	 bex	 32	 0.500000	 0.000000	 unflanked_bex_freq_32_amplitude_0.5_rep_9_t_N.png	 N	 t	 b	 n.a.	 5.999771e-01
5	 4	 278	 unflanked	 bex	 2	 1.500000	 0.000000	 unflanked_bex_freq_2_amplitude_1.5_rep_1_t_N.png	 N	 t	 t	 n.a.	 5.558742e-01
5	 4	 279	 unflanked	 bex	 6	 3.000000	 0.000000	 unflanked_bex_freq_6_amplitude_3_rep_0_b_K.png	 K	 b	 b	 n.a.	 4.600980e-01
5	 4	 280	 unflanked	 bex	 8	 2.500000	 0.000000	 unflanked_bex_freq_8_amplitude_2.5_rep_0_t_N.png	 N	 t	 t	 n.a.	 4.877135e-01
5	 4	 281	 unflanked	 bex	 6	 3.000000	 0.000000	 unflanked_bex_freq_6_amplitude_3_rep_8_l_N.png	 N	 l	 l	 n.a.	 2.713995e-01
5	 4	 282	 unflanked	 bex	 2	 3.000000	 0.000000	 unflanked_bex_freq_2_amplitude_3_rep_5_r_K.png	 K	 r	 r	 n.a.	 2.180239e-01
5	 4	 283	 unflanked	 bex	 4	 0.500000	 0.000000	 unflanked_bex_freq_4_amplitude_0.5_rep_2_r_D.png	 D	 r	 t	 n.a.	 4.521970e-01
5	 4	 284	 unflanked	 bex	 4	 3.000000	 0.000000	 unflanked_bex_freq_4_amplitude_3_rep_2_t_D.png	 D	 t	 t	 n.a.	 3.269833e-01
5	 4	 285	 unflanked	 bex	 6	 1.000000	 0.000000	 unflanked_bex_freq_6_amplitude_1_rep_9_r_N.png	 N	 r	 r	 n.a.	 3.021764e-01
5	 4	 286	 unflanked	 bex	 32	 2.000000	 0.000000	 unflanked_bex_freq_32_amplitude_2_rep_6_r_K.png	 K	 r	 r	 n.a.	 3.578737e-01
5	 4	 287	 unflanked	 bex	 2	 2.000000	 0.000000	 unflanked_bex_freq_2_amplitude_2_rep_3_l_D.png	 D	 l	 l	 n.a.	 2.814303e-01
5	 4	 288	 unflanked	 bex	 16	 3.000000	 0.000000	 unflanked_bex_freq_16_amplitude_3_rep_5_r_H.png	 H	 r	 r	 n.a.	 2.481140e-01
5	 4	 289	 unflanked	 bex	 4	 3.000000	 0.000000	 unflanked_bex_freq_4_amplitude_3_rep_0_r_H.png	 H	 r	 r	 n.a.	 4.056909e-01
5	 4	 290	 unflanked	 bex	 6	 1.000000	 0.000000	 unflanked_bex_freq_6_amplitude_1_rep_8_r_K.png	 K	 r	 r	 n.a.	 2.839733e-01
5	 4	 291	 unflanked	 bex	 4	 0.500000	 0.000000	 unflanked_bex_freq_4_amplitude_0.5_rep_6_b_H.png	 H	 b	 r	 n.a.	 7.144276e-01
5	 4	 292	 unflanked	 bex	 16	 1.500000	 0.000000	 unflanked_bex_freq_16_amplitude_1.5_rep_9_t_H.png	 H	 t	 t	 n.a.	 3.235117e-01
5	 4	 293	 unflanked	 bex	 8	 0.500000	 0.000000	 unflanked_bex_freq_8_amplitude_0.5_rep_6_l_D.png	 D	 l	 r	 n.a.	 7.203569e-01
5	 4	 294	 unflanked	 bex	 4	 2.500000	 0.000000	 unflanked_bex_freq_4_amplitude_2.5_rep_3_r_H.png	 H	 r	 r	 n.a.	 2.573037e-01
5	 4	 295	 unflanked	 bex	 8	 3.000000	 0.000000	 unflanked_bex_freq_8_amplitude_3_rep_1_r_K.png	 K	 r	 r	 n.a.	 3.568262e-01
5	 4	 296	 unflanked	 bex	 8	 0.500000	 0.000000	 unflanked_bex_freq_8_amplitude_0.5_rep_4_r_D.png	 D	 r	 b	 n.a.	 6.442195e-01
5	 4	 297	 unflanked	 bex	 16	 2.500000	 0.000000	 unflanked_bex_freq_16_amplitude_2.5_rep_5_l_N.png	 N	 l	 l	 n.a.	 2.265137e-01
5	 4	 298	 unflanked	 bex	 6	 2.500000	 0.000000	 unflanked_bex_freq_6_amplitude_2.5_rep_4_t_K.png	 K	 t	 t	 n.a.	 4.555530e-01
5	 4	 299	 unflanked	 bex	 2	 3.000000	 0.000000	 unflanked_bex_freq_2_amplitude_3_rep_8_t_K.png	 K	 t	 t	 n.a.	 4.155738e-01
5	 4	 300	 unflanked	 bex	 4	 1.000000	 0.000000	 unflanked_bex_freq_4_amplitude_1_rep_7_l_K.png	 K	 l	 l	 n.a.	 7.765847e-01
5	 4	 301	 unflanked	 bex	 32	 1.500000	 0.000000	 unflanked_bex_freq_32_amplitude_1.5_rep_6_l_D.png	 D	 l	 t	 n.a.	 5.275692e-01
5	 4	 302	 unflanked	 bex	 16	 3.000000	 0.000000	 unflanked_bex_freq_16_amplitude_3_rep_7_l_H.png	 H	 l	 l	 n.a.	 2.363238e-01
5	 4	 303	 unflanked	 bex	 6	 2.500000	 0.000000	 unflanked_bex_freq_6_amplitude_2.5_rep_3_b_K.png	 K	 b	 b	 n.a.	 6.074190e-01
5	 4	 304	 unflanked	 bex	 2	 5.000000	 0.000000	 unflanked_bex_freq_2_amplitude_5_rep_0_l_H.png	 H	 l	 l	 n.a.	 2.850356e-01
5	 4	 305	 unflanked	 bex	 8	 1.000000	 0.000000	 unflanked_bex_freq_8_amplitude_1_rep_9_b_K.png	 K	 b	 b	 n.a.	 3.888137e-01
5	 4	 306	 unflanked	 bex	 2	 0.500000	 0.000000	 unflanked_bex_freq_2_amplitude_0.5_rep_0_l_N.png	 N	 l	 b	 n.a.	 2.876036e-01
5	 4	 307	 unflanked	 bex	 6	 1.000000	 0.000000	 unflanked_bex_freq_6_amplitude_1_rep_7_t_H.png	 H	 t	 r	 n.a.	 4.104704e-01
5	 4	 308	 unflanked	 bex	 32	 2.000000	 0.000000	 unflanked_bex_freq_32_amplitude_2_rep_7_b_H.png	 H	 b	 t	 n.a.	 4.096603e-01
5	 4	 309	 unflanked	 bex	 6	 2.500000	 0.000000	 unflanked_bex_freq_6_amplitude_2.5_rep_2_b_K.png	 K	 b	 t	 n.a.	 1.034106e+00
5	 4	 310	 unflanked	 bex	 8	 1.500000	 0.000000	 unflanked_bex_freq_8_amplitude_1.5_rep_6_r_D.png	 D	 r	 r	 n.a.	 4.450235e-01
5	 4	 311	 unflanked	 bex	 6	 2.000000	 0.000000	 unflanked_bex_freq_6_amplitude_2_rep_7_t_N.png	 N	 t	 t	 n.a.	 6.119332e-01
5	 4	 312	 unflanked	 bex	 2	 5.000000	 0.000000	 unflanked_bex_freq_2_amplitude_5_rep_1_r_K.png	 K	 r	 r	 n.a.	 4.576532e-01
5	 4	 313	 unflanked	 bex	 16	 5.000000	 0.000000	 unflanked_bex_freq_16_amplitude_5_rep_5_r_N.png	 N	 r	 r	 n.a.	 2.522372e-01
5	 4	 314	 unflanked	 bex	 16	 2.500000	 0.000000	 unflanked_bex_freq_16_amplitude_2.5_rep_9_l_D.png	 D	 l	 l	 n.a.	 3.677321e-01
5	 4	 315	 unflanked	 bex	 4	 2.000000	 0.000000	 unflanked_bex_freq_4_amplitude_2_rep_3_r_H.png	 H	 r	 r	 n.a.	 2.973831e-01
5	 4	 316	 unflanked	 bex	 4	 0.500000	 0.000000	 unflanked_bex_freq_4_amplitude_0.5_rep_8_r_H.png	 H	 r	 t	 n.a.	 7.513635e-01
5	 4	 317	 unflanked	 bex	 32	 5.000000	 0.000000	 unflanked_bex_freq_32_amplitude_5_rep_7_r_D.png	 D	 r	 r	 n.a.	 2.955064e-01
5	 4	 318	 unflanked	 bex	 2	 3.000000	 0.000000	 unflanked_bex_freq_2_amplitude_3_rep_0_t_H.png	 H	 t	 t	 n.a.	 4.341614e-01
5	 4	 319	 unflanked	 bex	 6	 0.500000	 0.000000	 unflanked_bex_freq_6_amplitude_0.5_rep_4_t_K.png	 K	 t	 t	 n.a.	 4.640859e-01
5	 4	 320	 unflanked	 bex	 32	 2.000000	 0.000000	 unflanked_bex_freq_32_amplitude_2_rep_2_t_H.png	 H	 t	 r	 n.a.	 4.584526e-01
5	 4	 321	 unflanked	 bex	 4	 0.500000	 0.000000	 unflanked_bex_freq_4_amplitude_0.5_rep_4_l_K.png	 K	 l	 l	 n.a.	 4.631977e-01
5	 4	 322	 unflanked	 bex	 8	 2.000000	 0.000000	 unflanked_bex_freq_8_amplitude_2_rep_7_r_N.png	 N	 r	 r	 n.a.	 2.611991e-01
5	 4	 323	 unflanked	 bex	 2	 1.000000	 0.000000	 unflanked_bex_freq_2_amplitude_1_rep_3_l_K.png	 K	 l	 l	 n.a.	 3.477741e-01
5	 4	 324	 unflanked	 bex	 2	 2.500000	 0.000000	 unflanked_bex_freq_2_amplitude_2.5_rep_4_l_D.png	 D	 l	 l	 n.a.	 4.219332e-01
5	 4	 325	 unflanked	 bex	 8	 5.000000	 0.000000	 unflanked_bex_freq_8_amplitude_5_rep_9_b_H.png	 H	 b	 b	 n.a.	 4.556605e-01
5	 4	 326	 unflanked	 bex	 16	 2.000000	 0.000000	 unflanked_bex_freq_16_amplitude_2_rep_1_b_K.png	 K	 b	 b	 n.a.	 3.127465e-01
5	 4	 327	 unflanked	 bex	 4	 1.000000	 0.000000	 unflanked_bex_freq_4_amplitude_1_rep_9_t_K.png	 K	 t	 t	 n.a.	 5.125822e-01
5	 4	 328	 unflanked	 bex	 4	 1.500000	 0.000000	 unflanked_bex_freq_4_amplitude_1.5_rep_6_t_N.png	 N	 t	 t	 n.a.	 6.200181e-01
5	 4	 329	 unflanked	 bex	 8	 1.000000	 0.000000	 unflanked_bex_freq_8_amplitude_1_rep_0_b_N.png	 N	 b	 b	 n.a.	 4.739125e-01
5	 4	 330	 unflanked	 bex	 8	 0.500000	 0.000000	 unflanked_bex_freq_8_amplitude_0.5_rep_3_t_N.png	 N	 t	 r	 n.a.	 4.002398e-01
5	 4	 331	 unflanked	 bex	 2	 5.000000	 0.000000	 unflanked_bex_freq_2_amplitude_5_rep_9_r_N.png	 N	 r	 r	 n.a.	 2.784392e-01
5	 4	 332	 unflanked	 bex	 16	 0.500000	 0.000000	 unflanked_bex_freq_16_amplitude_0.5_rep_4_l_K.png	 K	 l	 l	 n.a.	 3.731077e-01
5	 4	 333	 unflanked	 bex	 16	 3.000000	 0.000000	 unflanked_bex_freq_16_amplitude_3_rep_1_r_K.png	 K	 r	 r	 n.a.	 2.749930e-01
5	 4	 334	 unflanked	 bex	 16	 1.500000	 0.000000	 unflanked_bex_freq_16_amplitude_1.5_rep_8_r_D.png	 D	 r	 r	 n.a.	 4.585573e-01
5	 4	 335	 unflanked	 bex	 4	 2.000000	 0.000000	 unflanked_bex_freq_4_amplitude_2_rep_7_l_N.png	 N	 l	 l	 n.a.	 3.682575e-01
5	 4	 336	 unflanked	 bex	 6	 3.000000	 0.000000	 unflanked_bex_freq_6_amplitude_3_rep_1_t_H.png	 H	 t	 t	 n.a.	 4.837305e-01
5	 4	 337	 unflanked	 bex	 16	 1.000000	 0.000000	 unflanked_bex_freq_16_amplitude_1_rep_4_t_K.png	 K	 t	 b	 n.a.	 6.230533e-01
5	 4	 338	 unflanked	 bex	 16	 1.500000	 0.000000	 unflanked_bex_freq_16_amplitude_1.5_rep_7_r_K.png	 K	 r	 r	 n.a.	 2.154847e-01
5	 4	 339	 unflanked	 bex	 4	 1.500000	 0.000000	 unflanked_bex_freq_4_amplitude_1.5_rep_1_b_D.png	 D	 b	 b	 n.a.	 4.987266e-01
5	 4	 340	 unflanked	 bex	 2	 2.500000	 0.000000	 unflanked_bex_freq_2_amplitude_2.5_rep_0_r_H.png	 H	 r	 r	 n.a.	 3.382861e-01
5	 4	 341	 unflanked	 bex	 2	 5.000000	 0.000000	 unflanked_bex_freq_2_amplitude_5_rep_8_t_D.png	 D	 t	 t	 n.a.	 4.569384e-01
5	 4	 342	 unflanked	 bex	 2	 1.000000	 0.000000	 unflanked_bex_freq_2_amplitude_1_rep_0_r_D.png	 D	 r	 b	 n.a.	 6.482725e-01
5	 4	 343	 unflanked	 bex	 6	 1.500000	 0.000000	 unflanked_bex_freq_6_amplitude_1.5_rep_8_l_H.png	 H	 l	 l	 n.a.	 3.988292e-01
5	 4	 344	 unflanked	 bex	 8	 2.000000	 0.000000	 unflanked_bex_freq_8_amplitude_2_rep_6_r_K.png	 K	 r	 r	 n.a.	 2.093717e-01
5	 4	 345	 unflanked	 bex	 4	 2.500000	 0.000000	 unflanked_bex_freq_4_amplitude_2.5_rep_0_b_K.png	 K	 b	 r	 n.a.	 7.702169e-01
5	 4	 346	 unflanked	 bex	 16	 1.500000	 0.000000	 unflanked_bex_freq_16_amplitude_1.5_rep_6_t_N.png	 N	 t	 r	 n.a.	 4.686359e-01
5	 4	 347	 unflanked	 bex	 32	 3.000000	 0.000000	 unflanked_bex_freq_32_amplitude_3_rep_7_b_N.png	 N	 b	 t	 n.a.	 6.024000e-01
5	 4	 348	 unflanked	 bex	 4	 1.500000	 0.000000	 unflanked_bex_freq_4_amplitude_1.5_rep_8_t_K.png	 K	 t	 t	 n.a.	 3.472232e-01
5	 4	 349	 unflanked	 bex	 8	 1.500000	 0.000000	 unflanked_bex_freq_8_amplitude_1.5_rep_1_b_K.png	 K	 b	 b	 n.a.	 4.102163e-01
5	 4	 350	 unflanked	 bex	 4	 0.500000	 0.000000	 unflanked_bex_freq_4_amplitude_0.5_rep_5_r_K.png	 K	 r	 r	 n.a.	 4.739454e-01
5	 4	 351	 unflanked	 bex	 4	 2.000000	 0.000000	 unflanked_bex_freq_4_amplitude_2_rep_4_l_K.png	 K	 l	 l	 n.a.	 2.639675e-01
5	 4	 352	 unflanked	 bex	 8	 0.500000	 0.000000	 unflanked_bex_freq_8_amplitude_0.5_rep_2_b_K.png	 K	 b	 b	 n.a.	 3.431691e-01
5	 4	 353	 unflanked	 bex	 4	 2.500000	 0.000000	 unflanked_bex_freq_4_amplitude_2.5_rep_7_t_K.png	 K	 t	 t	 n.a.	 3.508782e-01
5	 4	 354	 unflanked	 bex	 6	 2.000000	 0.000000	 unflanked_bex_freq_6_amplitude_2_rep_8_b_N.png	 N	 b	 l	 n.a.	 6.963246e-01
5	 4	 355	 unflanked	 bex	 2	 5.000000	 0.000000	 unflanked_bex_freq_2_amplitude_5_rep_6_b_D.png	 D	 b	 b	 n.a.	 3.541516e-01
5	 4	 356	 unflanked	 bex	 16	 0.500000	 0.000000	 unflanked_bex_freq_16_amplitude_0.5_rep_8_l_D.png	 D	 l	 b	 n.a.	 4.377879e-01
5	 4	 357	 unflanked	 bex	 32	 1.500000	 0.000000	 unflanked_bex_freq_32_amplitude_1.5_rep_7_t_H.png	 H	 t	 t	 n.a.	 6.276746e-01
5	 4	 358	 unflanked	 bex	 8	 5.000000	 0.000000	 unflanked_bex_freq_8_amplitude_5_rep_5_r_D.png	 D	 r	 r	 n.a.	 2.467120e-01
5	 4	 359	 unflanked	 bex	 16	 2.500000	 0.000000	 unflanked_bex_freq_16_amplitude_2.5_rep_7_b_K.png	 K	 b	 b	 n.a.	 6.432175e-01
5	 4	 360	 unflanked	 bex	 16	 2.000000	 0.000000	 unflanked_bex_freq_16_amplitude_2_rep_0_l_K.png	 K	 l	 l	 n.a.	 2.300463e-01
5	 4	 361	 unflanked	 bex	 6	 2.500000	 0.000000	 unflanked_bex_freq_6_amplitude_2.5_rep_9_r_H.png	 H	 r	 r	 n.a.	 2.202104e-01
5	 4	 362	 unflanked	 bex	 6	 0.500000	 0.000000	 unflanked_bex_freq_6_amplitude_0.5_rep_8_r_K.png	 K	 r	 b	 n.a.	 6.321216e-01
5	 4	 363	 unflanked	 bex	 8	 5.000000	 0.000000	 unflanked_bex_freq_8_amplitude_5_rep_6_t_N.png	 N	 t	 t	 n.a.	 3.976395e-01
5	 4	 364	 unflanked	 bex	 32	 2.500000	 0.000000	 unflanked_bex_freq_32_amplitude_2.5_rep_9_l_K.png	 K	 l	 l	 n.a.	 2.588609e-01
5	 4	 365	 unflanked	 bex	 6	 2.000000	 0.000000	 unflanked_bex_freq_6_amplitude_2_rep_0_r_H.png	 H	 r	 r	 n.a.	 2.413206e-01
5	 4	 366	 unflanked	 bex	 16	 5.000000	 0.000000	 unflanked_bex_freq_16_amplitude_5_rep_1_l_H.png	 H	 l	 l	 n.a.	 2.479961e-01
5	 4	 367	 unflanked	 bex	 2	 1.000000	 0.000000	 unflanked_bex_freq_2_amplitude_1_rep_9_t_N.png	 N	 t	 t	 n.a.	 4.642011e-01
5	 4	 368	 unflanked	 bex	 4	 1.000000	 0.000000	 unflanked_bex_freq_4_amplitude_1_rep_0_b_H.png	 H	 b	 l	 n.a.	 8.466582e-01
5	 4	 369	 unflanked	 bex	 4	 1.500000	 0.000000	 unflanked_bex_freq_4_amplitude_1.5_rep_4_l_H.png	 H	 l	 t	 n.a.	 6.998043e-01
5	 4	 370	 unflanked	 bex	 4	 5.000000	 0.000000	 unflanked_bex_freq_4_amplitude_5_rep_8_b_D.png	 D	 b	 b	 n.a.	 4.111103e-01
5	 4	 371	 unflanked	 bex	 6	 5.000000	 0.000000	 unflanked_bex_freq_6_amplitude_5_rep_2_t_K.png	 K	 t	 t	 n.a.	 5.065024e-01
5	 4	 372	 unflanked	 bex	 32	 1.000000	 0.000000	 unflanked_bex_freq_32_amplitude_1_rep_3_l_H.png	 H	 l	 b	 n.a.	 7.856078e-01
5	 4	 373	 unflanked	 bex	 32	 5.000000	 0.000000	 unflanked_bex_freq_32_amplitude_5_rep_8_l_N.png	 N	 l	 l	 n.a.	 2.623788e-01
5	 4	 374	 unflanked	 bex	 16	 3.000000	 0.000000	 unflanked_bex_freq_16_amplitude_3_rep_8_b_N.png	 N	 b	 b	 n.a.	 4.759395e-01
5	 4	 375	 unflanked	 bex	 32	 3.000000	 0.000000	 unflanked_bex_freq_32_amplitude_3_rep_2_l_N.png	 N	 l	 l	 n.a.	 2.887821e-01
5	 4	 376	 unflanked	 bex	 2	 1.500000	 0.000000	 unflanked_bex_freq_2_amplitude_1.5_rep_6_t_H.png	 H	 t	 t	 n.a.	 9.631664e-01
5	 4	 377	 unflanked	 bex	 32	 2.500000	 0.000000	 unflanked_bex_freq_32_amplitude_2.5_rep_8_b_N.png	 N	 b	 b	 n.a.	 9.784068e-01
5	 4	 378	 unflanked	 bex	 8	 2.000000	 0.000000	 unflanked_bex_freq_8_amplitude_2_rep_9_r_N.png	 N	 r	 r	 n.a.	 4.136969e-01
5	 4	 379	 unflanked	 bex	 6	 1.500000	 0.000000	 unflanked_bex_freq_6_amplitude_1.5_rep_2_b_D.png	 D	 b	 b	 n.a.	 4.793149e-01
5	 4	 380	 unflanked	 bex	 2	 1.500000	 0.000000	 unflanked_bex_freq_2_amplitude_1.5_rep_2_r_K.png	 K	 r	 r	 n.a.	 3.683483e-01
5	 4	 381	 unflanked	 bex	 6	 2.500000	 0.000000	 unflanked_bex_freq_6_amplitude_2.5_rep_0_t_K.png	 K	 t	 t	 n.a.	 5.957134e-01
5	 4	 382	 unflanked	 bex	 4	 5.000000	 0.000000	 unflanked_bex_freq_4_amplitude_5_rep_1_l_N.png	 N	 l	 l	 n.a.	 2.334385e-01
5	 4	 383	 unflanked	 bex	 2	 2.500000	 0.000000	 unflanked_bex_freq_2_amplitude_2.5_rep_6_l_H.png	 H	 l	 l	 n.a.	 3.137218e-01
5	 4	 384	 unflanked	 bex	 32	 2.000000	 0.000000	 unflanked_bex_freq_32_amplitude_2_rep_4_t_H.png	 H	 t	 r	 n.a.	 6.214657e-01
5	 4	 385	 unflanked	 bex	 16	 0.500000	 0.000000	 unflanked_bex_freq_16_amplitude_0.5_rep_1_r_H.png	 H	 r	 r	 n.a.	 3.223373e-01
5	 4	 386	 unflanked	 bex	 16	 2.500000	 0.000000	 unflanked_bex_freq_16_amplitude_2.5_rep_8_t_K.png	 K	 t	 t	 n.a.	 3.917782e-01
5	 4	 387	 unflanked	 bex	 4	 2.000000	 0.000000	 unflanked_bex_freq_4_amplitude_2_rep_5_t_H.png	 H	 t	 t	 n.a.	 4.279003e-01
5	 4	 388	 unflanked	 bex	 16	 1.000000	 0.000000	 unflanked_bex_freq_16_amplitude_1_rep_1_l_K.png	 K	 l	 l	 n.a.	 3.814501e-01
5	 4	 389	 unflanked	 bex	 2	 3.000000	 0.000000	 unflanked_bex_freq_2_amplitude_3_rep_9_l_H.png	 H	 l	 l	 n.a.	 4.586871e-01
5	 4	 390	 unflanked	 bex	 4	 3.000000	 0.000000	 unflanked_bex_freq_4_amplitude_3_rep_1_r_K.png	 K	 r	 r	 n.a.	 3.534133e-01
5	 4	 391	 unflanked	 bex	 8	 1.500000	 0.000000	 unflanked_bex_freq_8_amplitude_1.5_rep_2_l_H.png	 H	 l	 l	 n.a.	 4.776561e-01
5	 4	 392	 unflanked	 bex	 8	 2.000000	 0.000000	 unflanked_bex_freq_8_amplitude_2_rep_0_r_N.png	 N	 r	 r	 n.a.	 3.100639e-01
5	 4	 393	 unflanked	 bex	 4	 1.500000	 0.000000	 unflanked_bex_freq_4_amplitude_1.5_rep_3_b_K.png	 K	 b	 b	 n.a.	 5.630835e-01
5	 4	 394	 unflanked	 bex	 2	 3.000000	 0.000000	 unflanked_bex_freq_2_amplitude_3_rep_2_r_K.png	 K	 r	 r	 n.a.	 3.097290e-01
5	 4	 395	 unflanked	 bex	 32	 1.000000	 0.000000	 unflanked_bex_freq_32_amplitude_1_rep_6_b_K.png	 K	 b	 b	 n.a.	 4.462393e-01
5	 4	 396	 unflanked	 bex	 16	 2.500000	 0.000000	 unflanked_bex_freq_16_amplitude_2.5_rep_1_t_N.png	 N	 t	 t	 n.a.	 5.032627e-01
5	 4	 397	 unflanked	 bex	 4	 2.500000	 0.000000	 unflanked_bex_freq_4_amplitude_2.5_rep_1_r_H.png	 H	 r	 r	 n.a.	 3.032384e-01
5	 4	 398	 unflanked	 bex	 6	 1.000000	 0.000000	 unflanked_bex_freq_6_amplitude_1_rep_3_b_K.png	 K	 b	 b	 n.a.	 5.755054e-01
5	 4	 399	 unflanked	 bex	 32	 2.000000	 0.000000	 unflanked_bex_freq_32_amplitude_2_rep_0_r_N.png	 N	 r	 r	 n.a.	 4.863127e-01
5	 4	 400	 unflanked	 bex	 16	 0.500000	 0.000000	 unflanked_bex_freq_16_amplitude_0.5_rep_0_r_N.png	 N	 r	 t	 n.a.	 6.004053e-01
5	 4	 401	 unflanked	 bex	 6	 3.000000	 0.000000	 unflanked_bex_freq_6_amplitude_3_rep_3_t_D.png	 D	 t	 t	 n.a.	 4.525319e-01
5	 4	 402	 unflanked	 bex	 8	 0.500000	 0.000000	 unflanked_bex_freq_8_amplitude_0.5_rep_7_l_K.png	 K	 l	 l	 n.a.	 3.155788e-01
5	 4	 403	 unflanked	 bex	 6	 5.000000	 0.000000	 unflanked_bex_freq_6_amplitude_5_rep_5_l_N.png	 N	 l	 l	 n.a.	 2.621859e-01
5	 4	 404	 unflanked	 bex	 16	 5.000000	 0.000000	 unflanked_bex_freq_16_amplitude_5_rep_4_t_K.png	 K	 t	 t	 n.a.	 4.709960e-01
5	 4	 405	 unflanked	 bex	 32	 1.500000	 0.000000	 unflanked_bex_freq_32_amplitude_1.5_rep_9_b_H.png	 H	 b	 b	 n.a.	 5.640783e-01
5	 4	 406	 unflanked	 bex	 32	 0.500000	 0.000000	 unflanked_bex_freq_32_amplitude_0.5_rep_8_l_D.png	 D	 l	 b	 n.a.	 5.720310e-01
5	 4	 407	 unflanked	 bex	 32	 3.000000	 0.000000	 unflanked_bex_freq_32_amplitude_3_rep_4_t_D.png	 D	 t	 r	 n.a.	 2.658261e-01
5	 4	 408	 unflanked	 bex	 4	 1.000000	 0.000000	 unflanked_bex_freq_4_amplitude_1_rep_2_r_H.png	 H	 r	 r	 n.a.	 3.204413e-01
5	 4	 409	 unflanked	 bex	 4	 2.000000	 0.000000	 unflanked_bex_freq_4_amplitude_2_rep_0_r_K.png	 K	 r	 r	 n.a.	 2.863198e-01
5	 4	 410	 unflanked	 bex	 2	 0.500000	 0.000000	 unflanked_bex_freq_2_amplitude_0.5_rep_1_r_H.png	 H	 r	 r	 n.a.	 5.770603e-01
5	 4	 411	 unflanked	 bex	 32	 0.500000	 0.000000	 unflanked_bex_freq_32_amplitude_0.5_rep_2_r_D.png	 D	 r	 r	 n.a.	 3.511879e-01
5	 4	 412	 unflanked	 bex	 16	 5.000000	 0.000000	 unflanked_bex_freq_16_amplitude_5_rep_6_l_N.png	 N	 l	 l	 n.a.	 3.423338e-01
5	 4	 413	 unflanked	 bex	 6	 1.500000	 0.000000	 unflanked_bex_freq_6_amplitude_1.5_rep_9_r_K.png	 K	 r	 r	 n.a.	 2.230317e-01
5	 4	 414	 unflanked	 bex	 6	 2.000000	 0.000000	 unflanked_bex_freq_6_amplitude_2_rep_5_l_N.png	 N	 l	 l	 n.a.	 3.671903e-01
5	 4	 415	 unflanked	 bex	 32	 5.000000	 0.000000	 unflanked_bex_freq_32_amplitude_5_rep_5_b_K.png	 K	 b	 r	 n.a.	 5.743347e-01
5	 4	 416	 unflanked	 bex	 4	 0.500000	 0.000000	 unflanked_bex_freq_4_amplitude_0.5_rep_3_b_H.png	 H	 b	 b	 n.a.	 6.321073e-01
5	 4	 417	 unflanked	 bex	 8	 2.500000	 0.000000	 unflanked_bex_freq_8_amplitude_2.5_rep_2_b_D.png	 D	 b	 b	 n.a.	 2.968625e-01
5	 4	 418	 unflanked	 bex	 16	 2.000000	 0.000000	 unflanked_bex_freq_16_amplitude_2_rep_3_l_K.png	 K	 l	 l	 n.a.	 2.891265e-01
5	 4	 419	 unflanked	 bex	 32	 0.500000	 0.000000	 unflanked_bex_freq_32_amplitude_0.5_rep_5_l_D.png	 D	 l	 r	 n.a.	 3.786045e-01
5	 4	 420	 unflanked	 bex	 4	 2.500000	 0.000000	 unflanked_bex_freq_4_amplitude_2.5_rep_8_b_K.png	 K	 b	 b	 n.a.	 2.695410e-01
