subject	 session	 trial	 flanked	 distortion	 freq	 amplitude	 spacing	 im_name	 targ_letter	 targ_pos	 response	 eyemovement	 RT
9	 3	 1	 flanked	 rf	 8	 0.010000	 2.000000	 flanked_rf_freq_8_amplitude_0.01_rep_2_b_D_2.0.png	 D	 b	 l	 n.a.	 4.879993e-01
9	 3	 2	 flanked	 rf	 3	 0.061700	 2.000000	 flanked_rf_freq_3_amplitude_0.0617_rep_0_b_D_2.0.png	 D	 b	 r	 n.a.	 4.397813e-01
9	 3	 3	 flanked	 rf	 5	 0.010000	 2.000000	 flanked_rf_freq_5_amplitude_0.01_rep_3_t_D_2.0.png	 D	 t	 r	 n.a.	 6.281345e-01
9	 3	 4	 flanked	 rf	 4	 0.165000	 2.000000	 flanked_rf_freq_4_amplitude_0.165_rep_3_r_H_2.0.png	 H	 r	 t	 n.a.	 4.094966e-01
9	 3	 5	 flanked	 rf	 12	 0.007500	 2.000000	 flanked_rf_freq_12_amplitude_0.0075_rep_8_l_D_2.0.png	 D	 l	 t	 n.a.	 5.950065e-01
9	 3	 6	 flanked	 rf	 8	 0.165000	 2.000000	 flanked_rf_freq_8_amplitude_0.165_rep_0_b_H_2.0.png	 H	 b	 b	 n.a.	 2.410937e-01
9	 3	 7	 flanked	 rf	 12	 0.007500	 2.000000	 flanked_rf_freq_12_amplitude_0.0075_rep_9_t_K_2.0.png	 K	 t	 b	 n.a.	 6.236771e-01
9	 3	 8	 flanked	 rf	 8	 0.268300	 2.000000	 flanked_rf_freq_8_amplitude_0.2683_rep_1_r_H_2.0.png	 H	 r	 r	 n.a.	 2.549925e-01
9	 3	 9	 flanked	 rf	 5	 0.061700	 2.000000	 flanked_rf_freq_5_amplitude_0.0617_rep_1_t_K_2.0.png	 K	 t	 b	 n.a.	 3.521070e-01
9	 3	 10	 flanked	 rf	 12	 0.010000	 2.000000	 flanked_rf_freq_12_amplitude_0.01_rep_5_t_H_2.0.png	 H	 t	 b	 n.a.	 3.173564e-01
9	 3	 11	 flanked	 rf	 4	 0.061700	 2.000000	 flanked_rf_freq_4_amplitude_0.0617_rep_4_b_D_2.0.png	 D	 b	 r	 n.a.	 3.162955e-01
9	 3	 12	 flanked	 rf	 4	 0.165000	 2.000000	 flanked_rf_freq_4_amplitude_0.165_rep_9_b_D_2.0.png	 D	 b	 b	 n.a.	 3.015132e-01
9	 3	 13	 flanked	 rf	 5	 0.216700	 2.000000	 flanked_rf_freq_5_amplitude_0.2167_rep_9_b_D_2.0.png	 D	 b	 b	 n.a.	 2.239405e-01
9	 3	 14	 flanked	 rf	 4	 0.113300	 2.000000	 flanked_rf_freq_4_amplitude_0.1133_rep_5_l_K_2.0.png	 K	 l	 b	 n.a.	 2.750762e-01
9	 3	 15	 flanked	 rf	 2	 0.268300	 2.000000	 flanked_rf_freq_2_amplitude_0.2683_rep_9_b_H_2.0.png	 H	 b	 b	 n.a.	 2.449622e-01
9	 3	 16	 flanked	 rf	 3	 0.216700	 2.000000	 flanked_rf_freq_3_amplitude_0.2167_rep_4_l_D_2.0.png	 D	 l	 l	 n.a.	 2.892340e-01
9	 3	 17	 flanked	 rf	 2	 0.010000	 2.000000	 flanked_rf_freq_2_amplitude_0.01_rep_1_b_N_2.0.png	 N	 b	 r	 n.a.	 4.118035e-01
9	 3	 18	 flanked	 rf	 2	 0.113300	 2.000000	 flanked_rf_freq_2_amplitude_0.1133_rep_2_l_K_2.0.png	 K	 l	 l	 n.a.	 3.958370e-01
9	 3	 19	 flanked	 rf	 8	 0.061700	 2.000000	 flanked_rf_freq_8_amplitude_0.0617_rep_2_r_K_2.0.png	 K	 r	 b	 n.a.	 3.831033e-01
9	 3	 20	 flanked	 rf	 2	 0.165000	 2.000000	 flanked_rf_freq_2_amplitude_0.165_rep_2_b_D_2.0.png	 D	 b	 l	 n.a.	 4.416698e-01
9	 3	 21	 flanked	 rf	 12	 0.113300	 2.000000	 flanked_rf_freq_12_amplitude_0.1133_rep_7_t_D_2.0.png	 D	 t	 t	 n.a.	 3.047916e-01
9	 3	 22	 flanked	 rf	 4	 0.165000	 2.000000	 flanked_rf_freq_4_amplitude_0.165_rep_7_r_D_2.0.png	 D	 r	 b	 n.a.	 4.674626e-01
9	 3	 23	 flanked	 rf	 12	 0.061700	 2.000000	 flanked_rf_freq_12_amplitude_0.0617_rep_7_b_N_2.0.png	 N	 b	 r	 n.a.	 3.073149e-01
9	 3	 24	 flanked	 rf	 3	 0.113300	 2.000000	 flanked_rf_freq_3_amplitude_0.1133_rep_1_t_K_2.0.png	 K	 t	 t	 n.a.	 3.608217e-01
9	 3	 25	 flanked	 rf	 3	 0.007500	 2.000000	 flanked_rf_freq_3_amplitude_0.0075_rep_1_t_H_2.0.png	 H	 t	 b	 n.a.	 1.787465e-01
9	 3	 26	 flanked	 rf	 8	 0.010000	 2.000000	 flanked_rf_freq_8_amplitude_0.01_rep_9_b_K_2.0.png	 K	 b	 b	 n.a.	 2.461059e-01
9	 3	 27	 flanked	 rf	 3	 0.268300	 2.000000	 flanked_rf_freq_3_amplitude_0.2683_rep_9_r_K_2.0.png	 K	 r	 r	 n.a.	 2.450752e-01
9	 3	 28	 flanked	 rf	 5	 0.113300	 2.000000	 flanked_rf_freq_5_amplitude_0.1133_rep_4_l_K_2.0.png	 K	 l	 b	 n.a.	 2.918678e-01
9	 3	 29	 flanked	 rf	 4	 0.113300	 2.000000	 flanked_rf_freq_4_amplitude_0.1133_rep_4_t_H_2.0.png	 H	 t	 t	 n.a.	 3.051912e-01
9	 3	 30	 flanked	 rf	 5	 0.268300	 2.000000	 flanked_rf_freq_5_amplitude_0.2683_rep_8_b_H_2.0.png	 H	 b	 b	 n.a.	 2.526443e-01
9	 3	 31	 flanked	 rf	 12	 0.007500	 2.000000	 flanked_rf_freq_12_amplitude_0.0075_rep_6_b_H_2.0.png	 H	 b	 b	 n.a.	 2.856461e-01
9	 3	 32	 flanked	 rf	 2	 0.010000	 2.000000	 flanked_rf_freq_2_amplitude_0.01_rep_3_b_K_2.0.png	 K	 b	 b	 n.a.	 2.469244e-01
9	 3	 33	 flanked	 rf	 3	 0.268300	 2.000000	 flanked_rf_freq_3_amplitude_0.2683_rep_4_t_N_2.0.png	 N	 t	 t	 n.a.	 3.532987e-01
9	 3	 34	 flanked	 rf	 4	 0.216700	 2.000000	 flanked_rf_freq_4_amplitude_0.2167_rep_7_b_K_2.0.png	 K	 b	 b	 n.a.	 2.337950e-01
9	 3	 35	 flanked	 rf	 3	 0.165000	 2.000000	 flanked_rf_freq_3_amplitude_0.165_rep_1_l_N_2.0.png	 N	 l	 b	 n.a.	 4.311453e-01
9	 3	 36	 flanked	 rf	 2	 0.010000	 2.000000	 flanked_rf_freq_2_amplitude_0.01_rep_6_b_D_2.0.png	 D	 b	 r	 n.a.	 3.745393e-01
9	 3	 37	 flanked	 rf	 5	 0.007500	 2.000000	 flanked_rf_freq_5_amplitude_0.0075_rep_5_b_D_2.0.png	 D	 b	 l	 n.a.	 6.195726e-01
9	 3	 38	 flanked	 rf	 12	 0.007500	 2.000000	 flanked_rf_freq_12_amplitude_0.0075_rep_3_b_H_2.0.png	 H	 b	 t	 n.a.	 3.198974e-01
9	 3	 39	 flanked	 rf	 12	 0.165000	 2.000000	 flanked_rf_freq_12_amplitude_0.165_rep_3_l_N_2.0.png	 N	 l	 l	 n.a.	 3.306222e-01
9	 3	 40	 flanked	 rf	 4	 0.010000	 2.000000	 flanked_rf_freq_4_amplitude_0.01_rep_6_r_H_2.0.png	 H	 r	 b	 n.a.	 4.004633e-01
9	 3	 41	 flanked	 rf	 4	 0.010000	 2.000000	 flanked_rf_freq_4_amplitude_0.01_rep_7_l_K_2.0.png	 K	 l	 b	 n.a.	 2.911210e-01
9	 3	 42	 flanked	 rf	 3	 0.061700	 2.000000	 flanked_rf_freq_3_amplitude_0.0617_rep_6_r_H_2.0.png	 H	 r	 l	 n.a.	 2.871607e-01
9	 3	 43	 flanked	 rf	 12	 0.113300	 2.000000	 flanked_rf_freq_12_amplitude_0.1133_rep_9_b_K_2.0.png	 K	 b	 b	 n.a.	 2.605412e-01
9	 3	 44	 flanked	 rf	 3	 0.268300	 2.000000	 flanked_rf_freq_3_amplitude_0.2683_rep_3_l_H_2.0.png	 H	 l	 l	 n.a.	 2.627879e-01
9	 3	 45	 flanked	 rf	 3	 0.165000	 2.000000	 flanked_rf_freq_3_amplitude_0.165_rep_5_r_H_2.0.png	 H	 r	 l	 n.a.	 6.081343e-01
9	 3	 46	 flanked	 rf	 5	 0.268300	 2.000000	 flanked_rf_freq_5_amplitude_0.2683_rep_0_b_N_2.0.png	 N	 b	 b	 n.a.	 3.028664e-01
9	 3	 47	 flanked	 rf	 5	 0.216700	 2.000000	 flanked_rf_freq_5_amplitude_0.2167_rep_2_r_K_2.0.png	 K	 r	 r	 n.a.	 2.342874e-01
9	 3	 48	 flanked	 rf	 3	 0.268300	 2.000000	 flanked_rf_freq_3_amplitude_0.2683_rep_7_b_N_2.0.png	 N	 b	 b	 n.a.	 2.579258e-01
9	 3	 49	 flanked	 rf	 3	 0.268300	 2.000000	 flanked_rf_freq_3_amplitude_0.2683_rep_6_r_D_2.0.png	 D	 r	 r	 n.a.	 2.863647e-01
9	 3	 50	 flanked	 rf	 8	 0.061700	 2.000000	 flanked_rf_freq_8_amplitude_0.0617_rep_1_l_N_2.0.png	 N	 l	 b	 n.a.	 9.156486e-01
9	 3	 51	 flanked	 rf	 3	 0.268300	 2.000000	 flanked_rf_freq_3_amplitude_0.2683_rep_8_l_H_2.0.png	 H	 l	 l	 n.a.	 3.439791e-01
9	 3	 52	 flanked	 rf	 3	 0.010000	 2.000000	 flanked_rf_freq_3_amplitude_0.01_rep_5_t_N_2.0.png	 N	 t	 r	 n.a.	 3.437605e-01
9	 3	 53	 flanked	 rf	 5	 0.007500	 2.000000	 flanked_rf_freq_5_amplitude_0.0075_rep_6_b_N_2.0.png	 N	 b	 l	 n.a.	 2.776716e-01
9	 3	 54	 flanked	 rf	 12	 0.007500	 2.000000	 flanked_rf_freq_12_amplitude_0.0075_rep_0_r_N_2.0.png	 N	 r	 b	 n.a.	 3.236779e-01
9	 3	 55	 flanked	 rf	 5	 0.007500	 2.000000	 flanked_rf_freq_5_amplitude_0.0075_rep_3_r_N_2.0.png	 N	 r	 l	 n.a.	 7.246917e-01
9	 3	 56	 flanked	 rf	 8	 0.216700	 2.000000	 flanked_rf_freq_8_amplitude_0.2167_rep_6_r_K_2.0.png	 K	 r	 r	 n.a.	 2.368112e-01
9	 3	 57	 flanked	 rf	 3	 0.113300	 2.000000	 flanked_rf_freq_3_amplitude_0.1133_rep_9_t_N_2.0.png	 N	 t	 r	 n.a.	 4.710916e-01
9	 3	 58	 flanked	 rf	 5	 0.061700	 2.000000	 flanked_rf_freq_5_amplitude_0.0617_rep_2_l_K_2.0.png	 K	 l	 l	 n.a.	 2.615931e-01
9	 3	 59	 flanked	 rf	 12	 0.061700	 2.000000	 flanked_rf_freq_12_amplitude_0.0617_rep_1_r_K_2.0.png	 K	 r	 r	 n.a.	 2.610705e-01
9	 3	 60	 flanked	 rf	 12	 0.216700	 2.000000	 flanked_rf_freq_12_amplitude_0.2167_rep_8_t_N_2.0.png	 N	 t	 t	 n.a.	 3.342726e-01
9	 3	 61	 flanked	 rf	 4	 0.113300	 2.000000	 flanked_rf_freq_4_amplitude_0.1133_rep_8_b_D_2.0.png	 D	 b	 r	 n.a.	 4.862085e-01
9	 3	 62	 flanked	 rf	 12	 0.165000	 2.000000	 flanked_rf_freq_12_amplitude_0.165_rep_2_b_N_2.0.png	 N	 b	 t	 n.a.	 2.844645e-01
9	 3	 63	 flanked	 rf	 5	 0.113300	 2.000000	 flanked_rf_freq_5_amplitude_0.1133_rep_9_r_N_2.0.png	 N	 r	 t	 n.a.	 3.248335e-01
9	 3	 64	 flanked	 rf	 5	 0.061700	 2.000000	 flanked_rf_freq_5_amplitude_0.0617_rep_4_l_D_2.0.png	 D	 l	 t	 n.a.	 5.247803e-01
9	 3	 65	 flanked	 rf	 5	 0.113300	 2.000000	 flanked_rf_freq_5_amplitude_0.1133_rep_2_r_N_2.0.png	 N	 r	 r	 n.a.	 4.365790e-01
9	 3	 66	 flanked	 rf	 8	 0.113300	 2.000000	 flanked_rf_freq_8_amplitude_0.1133_rep_1_t_N_2.0.png	 N	 t	 b	 n.a.	 4.098239e-01
9	 3	 67	 flanked	 rf	 2	 0.268300	 2.000000	 flanked_rf_freq_2_amplitude_0.2683_rep_2_b_N_2.0.png	 N	 b	 r	 n.a.	 4.676658e-01
9	 3	 68	 flanked	 rf	 8	 0.268300	 2.000000	 flanked_rf_freq_8_amplitude_0.2683_rep_6_l_N_2.0.png	 N	 l	 l	 n.a.	 2.416208e-01
9	 3	 69	 flanked	 rf	 3	 0.216700	 2.000000	 flanked_rf_freq_3_amplitude_0.2167_rep_9_b_D_2.0.png	 D	 b	 b	 n.a.	 4.873437e-01
9	 3	 70	 flanked	 rf	 8	 0.216700	 2.000000	 flanked_rf_freq_8_amplitude_0.2167_rep_0_b_N_2.0.png	 N	 b	 b	 n.a.	 2.739354e-01
9	 3	 71	 flanked	 rf	 4	 0.216700	 2.000000	 flanked_rf_freq_4_amplitude_0.2167_rep_4_r_D_2.0.png	 D	 r	 l	 n.a.	 3.414020e-01
9	 3	 72	 flanked	 rf	 12	 0.216700	 2.000000	 flanked_rf_freq_12_amplitude_0.2167_rep_2_b_N_2.0.png	 N	 b	 b	 n.a.	 1.807382e-01
9	 3	 73	 flanked	 rf	 5	 0.113300	 2.000000	 flanked_rf_freq_5_amplitude_0.1133_rep_6_l_D_2.0.png	 D	 l	 b	 n.a.	 3.312094e-01
9	 3	 74	 flanked	 rf	 4	 0.268300	 2.000000	 flanked_rf_freq_4_amplitude_0.2683_rep_4_b_H_2.0.png	 H	 b	 l	 n.a.	 3.434894e-01
9	 3	 75	 flanked	 rf	 4	 0.113300	 2.000000	 flanked_rf_freq_4_amplitude_0.1133_rep_3_r_K_2.0.png	 K	 r	 r	 n.a.	 2.976870e-01
9	 3	 76	 flanked	 rf	 4	 0.061700	 2.000000	 flanked_rf_freq_4_amplitude_0.0617_rep_9_t_N_2.0.png	 N	 t	 l	 n.a.	 3.240175e-01
9	 3	 77	 flanked	 rf	 12	 0.061700	 2.000000	 flanked_rf_freq_12_amplitude_0.0617_rep_4_l_N_2.0.png	 N	 l	 l	 n.a.	 2.687134e-01
9	 3	 78	 flanked	 rf	 5	 0.061700	 2.000000	 flanked_rf_freq_5_amplitude_0.0617_rep_0_b_H_2.0.png	 H	 b	 b	 n.a.	 2.914798e-01
9	 3	 79	 flanked	 rf	 3	 0.007500	 2.000000	 flanked_rf_freq_3_amplitude_0.0075_rep_5_b_H_2.0.png	 H	 b	 b	 n.a.	 4.606766e-01
9	 3	 80	 flanked	 rf	 8	 0.268300	 2.000000	 flanked_rf_freq_8_amplitude_0.2683_rep_2_l_N_2.0.png	 N	 l	 l	 n.a.	 4.219067e-01
9	 3	 81	 flanked	 rf	 5	 0.268300	 2.000000	 flanked_rf_freq_5_amplitude_0.2683_rep_7_r_K_2.0.png	 K	 r	 r	 n.a.	 2.143985e-01
9	 3	 82	 flanked	 rf	 4	 0.010000	 2.000000	 flanked_rf_freq_4_amplitude_0.01_rep_2_b_H_2.0.png	 H	 b	 l	 n.a.	 2.201382e-01
9	 3	 83	 flanked	 rf	 2	 0.165000	 2.000000	 flanked_rf_freq_2_amplitude_0.165_rep_4_r_N_2.0.png	 N	 r	 t	 n.a.	 3.307483e-01
9	 3	 84	 flanked	 rf	 3	 0.113300	 2.000000	 flanked_rf_freq_3_amplitude_0.1133_rep_3_t_N_2.0.png	 N	 t	 t	 n.a.	 4.116737e-01
9	 3	 85	 flanked	 rf	 4	 0.010000	 2.000000	 flanked_rf_freq_4_amplitude_0.01_rep_1_r_H_2.0.png	 H	 r	 t	 n.a.	 2.428305e-01
9	 3	 86	 flanked	 rf	 12	 0.268300	 2.000000	 flanked_rf_freq_12_amplitude_0.2683_rep_3_l_K_2.0.png	 K	 l	 l	 n.a.	 2.339422e-01
9	 3	 87	 flanked	 rf	 4	 0.268300	 2.000000	 flanked_rf_freq_4_amplitude_0.2683_rep_0_t_K_2.0.png	 K	 t	 t	 n.a.	 2.915660e-01
9	 3	 88	 flanked	 rf	 5	 0.113300	 2.000000	 flanked_rf_freq_5_amplitude_0.1133_rep_7_r_D_2.0.png	 D	 r	 t	 n.a.	 2.697302e-01
9	 3	 89	 flanked	 rf	 8	 0.165000	 2.000000	 flanked_rf_freq_8_amplitude_0.165_rep_5_l_D_2.0.png	 D	 l	 t	 n.a.	 4.926667e-01
9	 3	 90	 flanked	 rf	 8	 0.268300	 2.000000	 flanked_rf_freq_8_amplitude_0.2683_rep_0_b_D_2.0.png	 D	 b	 b	 n.a.	 2.583084e-01
9	 3	 91	 flanked	 rf	 8	 0.113300	 2.000000	 flanked_rf_freq_8_amplitude_0.1133_rep_9_r_H_2.0.png	 H	 r	 r	 n.a.	 3.883270e-01
9	 3	 92	 flanked	 rf	 12	 0.165000	 2.000000	 flanked_rf_freq_12_amplitude_0.165_rep_0_l_H_2.0.png	 H	 l	 l	 n.a.	 2.105694e-01
9	 3	 93	 flanked	 rf	 3	 0.010000	 2.000000	 flanked_rf_freq_3_amplitude_0.01_rep_2_t_D_2.0.png	 D	 t	 b	 n.a.	 3.001271e-01
9	 3	 94	 flanked	 rf	 8	 0.216700	 2.000000	 flanked_rf_freq_8_amplitude_0.2167_rep_3_l_K_2.0.png	 K	 l	 l	 n.a.	 2.079798e-01
9	 3	 95	 flanked	 rf	 5	 0.010000	 2.000000	 flanked_rf_freq_5_amplitude_0.01_rep_8_r_H_2.0.png	 H	 r	 t	 n.a.	 6.449271e-01
9	 3	 96	 flanked	 rf	 5	 0.061700	 2.000000	 flanked_rf_freq_5_amplitude_0.0617_rep_3_b_N_2.0.png	 N	 b	 t	 n.a.	 4.502569e-01
9	 3	 97	 flanked	 rf	 8	 0.007500	 2.000000	 flanked_rf_freq_8_amplitude_0.0075_rep_6_r_N_2.0.png	 N	 r	 l	 n.a.	 4.090813e-01
9	 3	 98	 flanked	 rf	 2	 0.268300	 2.000000	 flanked_rf_freq_2_amplitude_0.2683_rep_6_b_N_2.0.png	 N	 b	 r	 n.a.	 5.507699e-01
9	 3	 99	 flanked	 rf	 4	 0.216700	 2.000000	 flanked_rf_freq_4_amplitude_0.2167_rep_9_l_H_2.0.png	 H	 l	 l	 n.a.	 4.351178e-01
9	 3	 100	 flanked	 rf	 2	 0.165000	 2.000000	 flanked_rf_freq_2_amplitude_0.165_rep_6_l_H_2.0.png	 H	 l	 r	 n.a.	 7.050289e-01
9	 3	 101	 flanked	 rf	 5	 0.010000	 2.000000	 flanked_rf_freq_5_amplitude_0.01_rep_7_r_H_2.0.png	 H	 r	 b	 n.a.	 4.081891e-01
9	 3	 102	 flanked	 rf	 2	 0.113300	 2.000000	 flanked_rf_freq_2_amplitude_0.1133_rep_1_t_K_2.0.png	 K	 t	 t	 n.a.	 2.873424e-01
9	 3	 103	 flanked	 rf	 8	 0.165000	 2.000000	 flanked_rf_freq_8_amplitude_0.165_rep_3_l_K_2.0.png	 K	 l	 l	 n.a.	 2.696110e-01
9	 3	 104	 flanked	 rf	 3	 0.216700	 2.000000	 flanked_rf_freq_3_amplitude_0.2167_rep_6_b_D_2.0.png	 D	 b	 r	 n.a.	 2.882735e-01
9	 3	 105	 flanked	 rf	 4	 0.268300	 2.000000	 flanked_rf_freq_4_amplitude_0.2683_rep_7_b_D_2.0.png	 D	 b	 b	 n.a.	 2.337360e-01
9	 3	 106	 flanked	 rf	 4	 0.010000	 2.000000	 flanked_rf_freq_4_amplitude_0.01_rep_8_b_H_2.0.png	 H	 b	 b	 n.a.	 3.120342e-01
9	 3	 107	 flanked	 rf	 5	 0.216700	 2.000000	 flanked_rf_freq_5_amplitude_0.2167_rep_0_t_K_2.0.png	 K	 t	 t	 n.a.	 3.987738e-01
9	 3	 108	 flanked	 rf	 8	 0.061700	 2.000000	 flanked_rf_freq_8_amplitude_0.0617_rep_4_l_K_2.0.png	 K	 l	 t	 n.a.	 5.068065e-01
9	 3	 109	 flanked	 rf	 8	 0.010000	 2.000000	 flanked_rf_freq_8_amplitude_0.01_rep_8_t_K_2.0.png	 K	 t	 t	 n.a.	 2.815311e-01
9	 3	 110	 flanked	 rf	 8	 0.165000	 2.000000	 flanked_rf_freq_8_amplitude_0.165_rep_6_l_H_2.0.png	 H	 l	 l	 n.a.	 3.241408e-01
9	 3	 111	 flanked	 rf	 3	 0.061700	 2.000000	 flanked_rf_freq_3_amplitude_0.0617_rep_5_b_N_2.0.png	 N	 b	 b	 n.a.	 4.652038e-01
9	 3	 112	 flanked	 rf	 12	 0.113300	 2.000000	 flanked_rf_freq_12_amplitude_0.1133_rep_3_b_H_2.0.png	 H	 b	 b	 n.a.	 2.504647e-01
9	 3	 113	 flanked	 rf	 3	 0.010000	 2.000000	 flanked_rf_freq_3_amplitude_0.01_rep_4_r_D_2.0.png	 D	 r	 b	 n.a.	 4.807994e-01
9	 3	 114	 flanked	 rf	 8	 0.010000	 2.000000	 flanked_rf_freq_8_amplitude_0.01_rep_0_t_H_2.0.png	 H	 t	 r	 n.a.	 4.219272e-01
9	 3	 115	 flanked	 rf	 8	 0.010000	 2.000000	 flanked_rf_freq_8_amplitude_0.01_rep_5_b_N_2.0.png	 N	 b	 b	 n.a.	 5.390229e-01
9	 3	 116	 flanked	 rf	 4	 0.007500	 2.000000	 flanked_rf_freq_4_amplitude_0.0075_rep_9_l_K_2.0.png	 K	 l	 l	 n.a.	 4.405056e-01
9	 3	 117	 flanked	 rf	 2	 0.007500	 2.000000	 flanked_rf_freq_2_amplitude_0.0075_rep_1_b_K_2.0.png	 K	 b	 b	 n.a.	 2.773257e-01
9	 3	 118	 flanked	 rf	 12	 0.165000	 2.000000	 flanked_rf_freq_12_amplitude_0.165_rep_5_l_K_2.0.png	 K	 l	 l	 n.a.	 2.521801e-01
9	 3	 119	 flanked	 rf	 3	 0.113300	 2.000000	 flanked_rf_freq_3_amplitude_0.1133_rep_4_t_H_2.0.png	 H	 t	 l	 n.a.	 2.678281e-01
9	 3	 120	 flanked	 rf	 3	 0.061700	 2.000000	 flanked_rf_freq_3_amplitude_0.0617_rep_3_b_H_2.0.png	 H	 b	 b	 n.a.	 4.630316e-01
9	 3	 121	 flanked	 rf	 4	 0.061700	 2.000000	 flanked_rf_freq_4_amplitude_0.0617_rep_7_b_K_2.0.png	 K	 b	 b	 n.a.	 2.924236e-01
9	 3	 122	 flanked	 rf	 2	 0.061700	 2.000000	 flanked_rf_freq_2_amplitude_0.0617_rep_9_r_K_2.0.png	 K	 r	 b	 n.a.	 2.721702e-01
9	 3	 123	 flanked	 rf	 12	 0.061700	 2.000000	 flanked_rf_freq_12_amplitude_0.0617_rep_6_t_N_2.0.png	 N	 t	 t	 n.a.	 3.901041e-01
9	 3	 124	 flanked	 rf	 3	 0.268300	 2.000000	 flanked_rf_freq_3_amplitude_0.2683_rep_1_r_N_2.0.png	 N	 r	 t	 n.a.	 5.115083e-01
9	 3	 125	 flanked	 rf	 2	 0.113300	 2.000000	 flanked_rf_freq_2_amplitude_0.1133_rep_6_b_N_2.0.png	 N	 b	 r	 n.a.	 4.714997e-01
9	 3	 126	 flanked	 rf	 3	 0.113300	 2.000000	 flanked_rf_freq_3_amplitude_0.1133_rep_2_l_K_2.0.png	 K	 l	 b	 n.a.	 3.662098e-01
9	 3	 127	 flanked	 rf	 2	 0.268300	 2.000000	 flanked_rf_freq_2_amplitude_0.2683_rep_3_r_N_2.0.png	 N	 r	 b	 n.a.	 3.154403e-01
9	 3	 128	 flanked	 rf	 12	 0.061700	 2.000000	 flanked_rf_freq_12_amplitude_0.0617_rep_0_b_D_2.0.png	 D	 b	 b	 n.a.	 3.930655e-01
9	 3	 129	 flanked	 rf	 5	 0.113300	 2.000000	 flanked_rf_freq_5_amplitude_0.1133_rep_8_l_D_2.0.png	 D	 l	 l	 n.a.	 3.541031e-01
9	 3	 130	 flanked	 rf	 12	 0.216700	 2.000000	 flanked_rf_freq_12_amplitude_0.2167_rep_6_t_K_2.0.png	 K	 t	 t	 n.a.	 2.870308e-01
9	 3	 131	 flanked	 rf	 3	 0.010000	 2.000000	 flanked_rf_freq_3_amplitude_0.01_rep_1_r_K_2.0.png	 K	 r	 b	 n.a.	 3.632428e-01
9	 3	 132	 flanked	 rf	 8	 0.061700	 2.000000	 flanked_rf_freq_8_amplitude_0.0617_rep_8_l_H_2.0.png	 H	 l	 b	 n.a.	 2.593146e-01
9	 3	 133	 flanked	 rf	 3	 0.010000	 2.000000	 flanked_rf_freq_3_amplitude_0.01_rep_0_t_N_2.0.png	 N	 t	 r	 n.a.	 7.833221e-01
9	 3	 134	 flanked	 rf	 12	 0.268300	 2.000000	 flanked_rf_freq_12_amplitude_0.2683_rep_1_b_H_2.0.png	 H	 b	 b	 n.a.	 1.991335e-01
9	 3	 135	 flanked	 rf	 5	 0.007500	 2.000000	 flanked_rf_freq_5_amplitude_0.0075_rep_7_l_H_2.0.png	 H	 l	 t	 n.a.	 4.865535e-01
9	 3	 136	 flanked	 rf	 12	 0.061700	 2.000000	 flanked_rf_freq_12_amplitude_0.0617_rep_5_t_K_2.0.png	 K	 t	 r	 n.a.	 5.451462e-01
9	 3	 137	 flanked	 rf	 8	 0.268300	 2.000000	 flanked_rf_freq_8_amplitude_0.2683_rep_3_b_K_2.0.png	 K	 b	 b	 n.a.	 2.627312e-01
9	 3	 138	 flanked	 rf	 3	 0.010000	 2.000000	 flanked_rf_freq_3_amplitude_0.01_rep_6_b_H_2.0.png	 H	 b	 r	 n.a.	 4.020410e-01
9	 3	 139	 flanked	 rf	 8	 0.061700	 2.000000	 flanked_rf_freq_8_amplitude_0.0617_rep_5_b_K_2.0.png	 K	 b	 b	 n.a.	 3.607694e-01
9	 3	 140	 flanked	 rf	 2	 0.216700	 2.000000	 flanked_rf_freq_2_amplitude_0.2167_rep_6_l_K_2.0.png	 K	 l	 l	 n.a.	 5.292893e-01
9	 3	 141	 flanked	 rf	 12	 0.216700	 2.000000	 flanked_rf_freq_12_amplitude_0.2167_rep_7_r_H_2.0.png	 H	 r	 r	 n.a.	 2.741666e-01
9	 3	 142	 flanked	 rf	 2	 0.216700	 2.000000	 flanked_rf_freq_2_amplitude_0.2167_rep_8_r_H_2.0.png	 H	 r	 r	 n.a.	 3.968943e-01
9	 3	 143	 flanked	 rf	 12	 0.268300	 2.000000	 flanked_rf_freq_12_amplitude_0.2683_rep_7_l_H_2.0.png	 H	 l	 l	 n.a.	 2.218333e-01
9	 3	 144	 flanked	 rf	 3	 0.061700	 2.000000	 flanked_rf_freq_3_amplitude_0.0617_rep_1_b_H_2.0.png	 H	 b	 l	 n.a.	 3.267539e-01
9	 3	 145	 flanked	 rf	 12	 0.010000	 2.000000	 flanked_rf_freq_12_amplitude_0.01_rep_2_t_K_2.0.png	 K	 t	 t	 n.a.	 3.223494e-01
9	 3	 146	 flanked	 rf	 4	 0.216700	 2.000000	 flanked_rf_freq_4_amplitude_0.2167_rep_8_b_H_2.0.png	 H	 b	 b	 n.a.	 3.429806e-01
9	 3	 147	 flanked	 rf	 4	 0.216700	 2.000000	 flanked_rf_freq_4_amplitude_0.2167_rep_6_b_N_2.0.png	 N	 b	 t	 n.a.	 3.147613e-01
9	 3	 148	 flanked	 rf	 2	 0.216700	 2.000000	 flanked_rf_freq_2_amplitude_0.2167_rep_4_t_N_2.0.png	 N	 t	 b	 n.a.	 4.322091e-01
9	 3	 149	 flanked	 rf	 12	 0.165000	 2.000000	 flanked_rf_freq_12_amplitude_0.165_rep_6_l_H_2.0.png	 H	 l	 l	 n.a.	 2.217070e-01
9	 3	 150	 flanked	 rf	 12	 0.113300	 2.000000	 flanked_rf_freq_12_amplitude_0.1133_rep_2_l_H_2.0.png	 H	 l	 l	 n.a.	 2.057637e-01
9	 3	 151	 flanked	 rf	 12	 0.268300	 2.000000	 flanked_rf_freq_12_amplitude_0.2683_rep_8_l_D_2.0.png	 D	 l	 l	 n.a.	 2.286134e-01
9	 3	 152	 flanked	 rf	 5	 0.216700	 2.000000	 flanked_rf_freq_5_amplitude_0.2167_rep_6_t_K_2.0.png	 K	 t	 t	 n.a.	 4.033344e-01
9	 3	 153	 flanked	 rf	 5	 0.268300	 2.000000	 flanked_rf_freq_5_amplitude_0.2683_rep_9_t_H_2.0.png	 H	 t	 t	 n.a.	 2.993109e-01
9	 3	 154	 flanked	 rf	 5	 0.007500	 2.000000	 flanked_rf_freq_5_amplitude_0.0075_rep_2_r_K_2.0.png	 K	 r	 t	 n.a.	 3.614368e-01
9	 3	 155	 flanked	 rf	 8	 0.113300	 2.000000	 flanked_rf_freq_8_amplitude_0.1133_rep_8_r_K_2.0.png	 K	 r	 r	 n.a.	 2.937475e-01
9	 3	 156	 flanked	 rf	 3	 0.061700	 2.000000	 flanked_rf_freq_3_amplitude_0.0617_rep_7_l_K_2.0.png	 K	 l	 l	 n.a.	 3.718472e-01
9	 3	 157	 flanked	 rf	 5	 0.165000	 2.000000	 flanked_rf_freq_5_amplitude_0.165_rep_2_t_D_2.0.png	 D	 t	 t	 n.a.	 4.768881e-01
9	 3	 158	 flanked	 rf	 2	 0.165000	 2.000000	 flanked_rf_freq_2_amplitude_0.165_rep_5_b_H_2.0.png	 H	 b	 b	 n.a.	 3.914387e-01
9	 3	 159	 flanked	 rf	 4	 0.061700	 2.000000	 flanked_rf_freq_4_amplitude_0.0617_rep_3_r_K_2.0.png	 K	 r	 r	 n.a.	 3.503529e-01
9	 3	 160	 flanked	 rf	 8	 0.216700	 2.000000	 flanked_rf_freq_8_amplitude_0.2167_rep_1_b_D_2.0.png	 D	 b	 b	 n.a.	 6.946035e-01
9	 3	 161	 flanked	 rf	 12	 0.061700	 2.000000	 flanked_rf_freq_12_amplitude_0.0617_rep_2_b_D_2.0.png	 D	 b	 t	 n.a.	 4.120018e-01
9	 3	 162	 flanked	 rf	 8	 0.007500	 2.000000	 flanked_rf_freq_8_amplitude_0.0075_rep_4_r_H_2.0.png	 H	 r	 t	 n.a.	 4.539169e-01
9	 3	 163	 flanked	 rf	 5	 0.165000	 2.000000	 flanked_rf_freq_5_amplitude_0.165_rep_6_b_N_2.0.png	 N	 b	 b	 n.a.	 2.638595e-01
9	 3	 164	 flanked	 rf	 2	 0.010000	 2.000000	 flanked_rf_freq_2_amplitude_0.01_rep_5_r_H_2.0.png	 H	 r	 l	 n.a.	 3.579265e-01
9	 3	 165	 flanked	 rf	 8	 0.010000	 2.000000	 flanked_rf_freq_8_amplitude_0.01_rep_4_r_H_2.0.png	 H	 r	 r	 n.a.	 3.438611e-01
9	 3	 166	 flanked	 rf	 2	 0.216700	 2.000000	 flanked_rf_freq_2_amplitude_0.2167_rep_7_l_K_2.0.png	 K	 l	 t	 n.a.	 3.624438e-01
9	 3	 167	 flanked	 rf	 4	 0.061700	 2.000000	 flanked_rf_freq_4_amplitude_0.0617_rep_0_r_H_2.0.png	 H	 r	 b	 n.a.	 4.628142e-01
9	 3	 168	 flanked	 rf	 5	 0.268300	 2.000000	 flanked_rf_freq_5_amplitude_0.2683_rep_3_l_K_2.0.png	 K	 l	 l	 n.a.	 2.571360e-01
9	 3	 169	 flanked	 rf	 4	 0.268300	 2.000000	 flanked_rf_freq_4_amplitude_0.2683_rep_3_l_N_2.0.png	 N	 l	 l	 n.a.	 2.228724e-01
9	 3	 170	 flanked	 rf	 12	 0.216700	 2.000000	 flanked_rf_freq_12_amplitude_0.2167_rep_0_t_K_2.0.png	 K	 t	 t	 n.a.	 3.143958e-01
9	 3	 171	 flanked	 rf	 5	 0.268300	 2.000000	 flanked_rf_freq_5_amplitude_0.2683_rep_2_t_H_2.0.png	 H	 t	 t	 n.a.	 2.849191e-01
9	 3	 172	 flanked	 rf	 4	 0.165000	 2.000000	 flanked_rf_freq_4_amplitude_0.165_rep_4_l_H_2.0.png	 H	 l	 l	 n.a.	 3.769054e-01
9	 3	 173	 flanked	 rf	 3	 0.007500	 2.000000	 flanked_rf_freq_3_amplitude_0.0075_rep_0_t_K_2.0.png	 K	 t	 r	 n.a.	 3.102957e-01
9	 3	 174	 flanked	 rf	 3	 0.165000	 2.000000	 flanked_rf_freq_3_amplitude_0.165_rep_6_l_D_2.0.png	 D	 l	 l	 n.a.	 2.337962e-01
9	 3	 175	 flanked	 rf	 4	 0.007500	 2.000000	 flanked_rf_freq_4_amplitude_0.0075_rep_0_b_D_2.0.png	 D	 b	 r	 n.a.	 3.639788e-01
9	 3	 176	 flanked	 rf	 12	 0.010000	 2.000000	 flanked_rf_freq_12_amplitude_0.01_rep_8_b_K_2.0.png	 K	 b	 b	 n.a.	 2.879776e-01
9	 3	 177	 flanked	 rf	 3	 0.007500	 2.000000	 flanked_rf_freq_3_amplitude_0.0075_rep_7_r_D_2.0.png	 D	 r	 l	 n.a.	 3.074032e-01
9	 3	 178	 flanked	 rf	 8	 0.010000	 2.000000	 flanked_rf_freq_8_amplitude_0.01_rep_7_b_D_2.0.png	 D	 b	 r	 n.a.	 3.054291e-01
9	 3	 179	 flanked	 rf	 2	 0.113300	 2.000000	 flanked_rf_freq_2_amplitude_0.1133_rep_9_l_H_2.0.png	 H	 l	 b	 n.a.	 1.026658e+00
9	 3	 180	 flanked	 rf	 4	 0.010000	 2.000000	 flanked_rf_freq_4_amplitude_0.01_rep_3_t_K_2.0.png	 K	 t	 b	 n.a.	 3.285218e-01
9	 3	 181	 flanked	 rf	 2	 0.216700	 2.000000	 flanked_rf_freq_2_amplitude_0.2167_rep_9_t_N_2.0.png	 N	 t	 l	 n.a.	 1.982777e-01
9	 3	 182	 flanked	 rf	 2	 0.007500	 2.000000	 flanked_rf_freq_2_amplitude_0.0075_rep_0_b_K_2.0.png	 K	 b	 b	 n.a.	 4.678371e-01
9	 3	 183	 flanked	 rf	 8	 0.165000	 2.000000	 flanked_rf_freq_8_amplitude_0.165_rep_1_b_K_2.0.png	 K	 b	 b	 n.a.	 2.998976e-01
9	 3	 184	 flanked	 rf	 8	 0.268300	 2.000000	 flanked_rf_freq_8_amplitude_0.2683_rep_9_t_H_2.0.png	 H	 t	 t	 n.a.	 3.222245e-01
9	 3	 185	 flanked	 rf	 4	 0.007500	 2.000000	 flanked_rf_freq_4_amplitude_0.0075_rep_5_l_K_2.0.png	 K	 l	 t	 n.a.	 5.393724e-01
9	 3	 186	 flanked	 rf	 2	 0.061700	 2.000000	 flanked_rf_freq_2_amplitude_0.0617_rep_7_l_N_2.0.png	 N	 l	 t	 n.a.	 8.449026e-01
9	 3	 187	 flanked	 rf	 12	 0.007500	 2.000000	 flanked_rf_freq_12_amplitude_0.0075_rep_2_b_H_2.0.png	 H	 b	 r	 n.a.	 3.050474e-01
9	 3	 188	 flanked	 rf	 5	 0.010000	 2.000000	 flanked_rf_freq_5_amplitude_0.01_rep_6_t_H_2.0.png	 H	 t	 r	 n.a.	 4.845943e-01
9	 3	 189	 flanked	 rf	 3	 0.216700	 2.000000	 flanked_rf_freq_3_amplitude_0.2167_rep_7_l_H_2.0.png	 H	 l	 l	 n.a.	 4.722967e-01
9	 3	 190	 flanked	 rf	 5	 0.010000	 2.000000	 flanked_rf_freq_5_amplitude_0.01_rep_9_r_D_2.0.png	 D	 r	 b	 n.a.	 5.457402e-01
9	 3	 191	 flanked	 rf	 4	 0.113300	 2.000000	 flanked_rf_freq_4_amplitude_0.1133_rep_1_r_H_2.0.png	 H	 r	 r	 n.a.	 3.411794e-01
9	 3	 192	 flanked	 rf	 12	 0.113300	 2.000000	 flanked_rf_freq_12_amplitude_0.1133_rep_8_r_N_2.0.png	 N	 r	 r	 n.a.	 3.329865e-01
9	 3	 193	 flanked	 rf	 2	 0.268300	 2.000000	 flanked_rf_freq_2_amplitude_0.2683_rep_5_b_H_2.0.png	 H	 b	 b	 n.a.	 6.874510e-01
9	 3	 194	 flanked	 rf	 4	 0.216700	 2.000000	 flanked_rf_freq_4_amplitude_0.2167_rep_2_t_N_2.0.png	 N	 t	 b	 n.a.	 5.716328e-01
9	 3	 195	 flanked	 rf	 4	 0.165000	 2.000000	 flanked_rf_freq_4_amplitude_0.165_rep_5_b_K_2.0.png	 K	 b	 r	 n.a.	 4.473205e-01
9	 3	 196	 flanked	 rf	 12	 0.268300	 2.000000	 flanked_rf_freq_12_amplitude_0.2683_rep_0_t_N_2.0.png	 N	 t	 t	 n.a.	 3.066449e-01
9	 3	 197	 flanked	 rf	 8	 0.007500	 2.000000	 flanked_rf_freq_8_amplitude_0.0075_rep_3_r_K_2.0.png	 K	 r	 r	 n.a.	 7.177251e-01
9	 3	 198	 flanked	 rf	 4	 0.061700	 2.000000	 flanked_rf_freq_4_amplitude_0.0617_rep_8_l_D_2.0.png	 D	 l	 r	 n.a.	 5.158103e-01
9	 3	 199	 flanked	 rf	 2	 0.007500	 2.000000	 flanked_rf_freq_2_amplitude_0.0075_rep_9_l_H_2.0.png	 H	 l	 b	 n.a.	 3.349774e-01
9	 3	 200	 flanked	 rf	 8	 0.007500	 2.000000	 flanked_rf_freq_8_amplitude_0.0075_rep_0_r_D_2.0.png	 D	 r	 b	 n.a.	 2.987251e-01
9	 3	 201	 flanked	 rf	 2	 0.268300	 2.000000	 flanked_rf_freq_2_amplitude_0.2683_rep_0_l_H_2.0.png	 H	 l	 l	 n.a.	 3.800035e-01
9	 3	 202	 flanked	 rf	 12	 0.010000	 2.000000	 flanked_rf_freq_12_amplitude_0.01_rep_3_l_K_2.0.png	 K	 l	 l	 n.a.	 4.069058e-01
9	 3	 203	 flanked	 rf	 5	 0.216700	 2.000000	 flanked_rf_freq_5_amplitude_0.2167_rep_3_r_N_2.0.png	 N	 r	 r	 n.a.	 2.552366e-01
9	 3	 204	 flanked	 rf	 4	 0.007500	 2.000000	 flanked_rf_freq_4_amplitude_0.0075_rep_8_b_K_2.0.png	 K	 b	 l	 n.a.	 2.541522e-01
9	 3	 205	 flanked	 rf	 5	 0.165000	 2.000000	 flanked_rf_freq_5_amplitude_0.165_rep_0_r_D_2.0.png	 D	 r	 r	 n.a.	 3.800453e-01
9	 3	 206	 flanked	 rf	 2	 0.061700	 2.000000	 flanked_rf_freq_2_amplitude_0.0617_rep_5_t_K_2.0.png	 K	 t	 t	 n.a.	 3.904438e-01
9	 3	 207	 flanked	 rf	 3	 0.165000	 2.000000	 flanked_rf_freq_3_amplitude_0.165_rep_7_r_K_2.0.png	 K	 r	 r	 n.a.	 2.462153e-01
9	 3	 208	 flanked	 rf	 12	 0.061700	 2.000000	 flanked_rf_freq_12_amplitude_0.0617_rep_8_t_H_2.0.png	 H	 t	 l	 n.a.	 3.697326e-01
9	 3	 209	 flanked	 rf	 8	 0.165000	 2.000000	 flanked_rf_freq_8_amplitude_0.165_rep_4_l_H_2.0.png	 H	 l	 l	 n.a.	 3.522979e-01
9	 3	 210	 flanked	 rf	 4	 0.268300	 2.000000	 flanked_rf_freq_4_amplitude_0.2683_rep_2_r_D_2.0.png	 D	 r	 r	 n.a.	 2.580303e-01
9	 3	 211	 flanked	 rf	 3	 0.165000	 2.000000	 flanked_rf_freq_3_amplitude_0.165_rep_8_b_H_2.0.png	 H	 b	 b	 n.a.	 3.199467e-01
9	 3	 212	 flanked	 rf	 8	 0.010000	 2.000000	 flanked_rf_freq_8_amplitude_0.01_rep_1_t_N_2.0.png	 N	 t	 l	 n.a.	 7.725913e-01
9	 3	 213	 flanked	 rf	 3	 0.216700	 2.000000	 flanked_rf_freq_3_amplitude_0.2167_rep_2_r_D_2.0.png	 D	 r	 r	 n.a.	 3.897238e-01
9	 3	 214	 flanked	 rf	 2	 0.113300	 2.000000	 flanked_rf_freq_2_amplitude_0.1133_rep_8_r_N_2.0.png	 N	 r	 t	 n.a.	 8.898856e-01
9	 3	 215	 flanked	 rf	 3	 0.007500	 2.000000	 flanked_rf_freq_3_amplitude_0.0075_rep_3_b_D_2.0.png	 D	 b	 l	 n.a.	 3.372013e-01
9	 3	 216	 flanked	 rf	 4	 0.113300	 2.000000	 flanked_rf_freq_4_amplitude_0.1133_rep_2_t_D_2.0.png	 D	 t	 r	 n.a.	 3.851659e-01
9	 3	 217	 flanked	 rf	 3	 0.216700	 2.000000	 flanked_rf_freq_3_amplitude_0.2167_rep_5_b_N_2.0.png	 N	 b	 b	 n.a.	 4.351993e-01
9	 3	 218	 flanked	 rf	 12	 0.165000	 2.000000	 flanked_rf_freq_12_amplitude_0.165_rep_4_t_N_2.0.png	 N	 t	 t	 n.a.	 4.427294e-01
9	 3	 219	 flanked	 rf	 8	 0.216700	 2.000000	 flanked_rf_freq_8_amplitude_0.2167_rep_9_r_D_2.0.png	 D	 r	 r	 n.a.	 3.049819e-01
9	 3	 220	 flanked	 rf	 2	 0.010000	 2.000000	 flanked_rf_freq_2_amplitude_0.01_rep_4_b_K_2.0.png	 K	 b	 b	 n.a.	 2.777380e-01
9	 3	 221	 flanked	 rf	 3	 0.113300	 2.000000	 flanked_rf_freq_3_amplitude_0.1133_rep_6_t_N_2.0.png	 N	 t	 b	 n.a.	 4.118101e-01
9	 3	 222	 flanked	 rf	 4	 0.216700	 2.000000	 flanked_rf_freq_4_amplitude_0.2167_rep_0_r_K_2.0.png	 K	 r	 r	 n.a.	 3.641670e-01
9	 3	 223	 flanked	 rf	 3	 0.007500	 2.000000	 flanked_rf_freq_3_amplitude_0.0075_rep_2_r_D_2.0.png	 D	 r	 r	 n.a.	 3.758974e-01
9	 3	 224	 flanked	 rf	 2	 0.061700	 2.000000	 flanked_rf_freq_2_amplitude_0.0617_rep_0_t_N_2.0.png	 N	 t	 b	 n.a.	 3.260626e-01
9	 3	 225	 flanked	 rf	 2	 0.216700	 2.000000	 flanked_rf_freq_2_amplitude_0.2167_rep_3_r_N_2.0.png	 N	 r	 t	 n.a.	 6.014099e-01
9	 3	 226	 flanked	 rf	 8	 0.007500	 2.000000	 flanked_rf_freq_8_amplitude_0.0075_rep_1_b_N_2.0.png	 N	 b	 t	 n.a.	 3.404622e-01
9	 3	 227	 flanked	 rf	 4	 0.061700	 2.000000	 flanked_rf_freq_4_amplitude_0.0617_rep_5_l_H_2.0.png	 H	 l	 b	 n.a.	 7.266840e-01
9	 3	 228	 flanked	 rf	 2	 0.268300	 2.000000	 flanked_rf_freq_2_amplitude_0.2683_rep_4_r_N_2.0.png	 N	 r	 r	 n.a.	 4.397133e-01
9	 3	 229	 flanked	 rf	 5	 0.010000	 2.000000	 flanked_rf_freq_5_amplitude_0.01_rep_2_b_N_2.0.png	 N	 b	 r	 n.a.	 5.623684e-01
9	 3	 230	 flanked	 rf	 2	 0.061700	 2.000000	 flanked_rf_freq_2_amplitude_0.0617_rep_2_t_K_2.0.png	 K	 t	 t	 n.a.	 3.880408e-01
9	 3	 231	 flanked	 rf	 2	 0.268300	 2.000000	 flanked_rf_freq_2_amplitude_0.2683_rep_7_r_N_2.0.png	 N	 r	 l	 n.a.	 4.266637e-01
9	 3	 232	 flanked	 rf	 8	 0.061700	 2.000000	 flanked_rf_freq_8_amplitude_0.0617_rep_3_b_H_2.0.png	 H	 b	 b	 n.a.	 6.090463e-01
9	 3	 233	 flanked	 rf	 8	 0.061700	 2.000000	 flanked_rf_freq_8_amplitude_0.0617_rep_0_r_N_2.0.png	 N	 r	 b	 n.a.	 3.523976e-01
9	 3	 234	 flanked	 rf	 12	 0.010000	 2.000000	 flanked_rf_freq_12_amplitude_0.01_rep_9_l_K_2.0.png	 K	 l	 b	 n.a.	 3.951387e-01
9	 3	 235	 flanked	 rf	 5	 0.007500	 2.000000	 flanked_rf_freq_5_amplitude_0.0075_rep_9_r_K_2.0.png	 K	 r	 t	 n.a.	 6.093803e-01
9	 3	 236	 flanked	 rf	 4	 0.165000	 2.000000	 flanked_rf_freq_4_amplitude_0.165_rep_6_r_K_2.0.png	 K	 r	 r	 n.a.	 4.268136e-01
9	 3	 237	 flanked	 rf	 5	 0.165000	 2.000000	 flanked_rf_freq_5_amplitude_0.165_rep_3_b_D_2.0.png	 D	 b	 b	 n.a.	 6.746850e-01
9	 3	 238	 flanked	 rf	 5	 0.010000	 2.000000	 flanked_rf_freq_5_amplitude_0.01_rep_0_l_H_2.0.png	 H	 l	 b	 n.a.	 5.652041e-01
9	 3	 239	 flanked	 rf	 3	 0.007500	 2.000000	 flanked_rf_freq_3_amplitude_0.0075_rep_6_l_H_2.0.png	 H	 l	 r	 n.a.	 4.889656e-01
9	 3	 240	 flanked	 rf	 2	 0.007500	 2.000000	 flanked_rf_freq_2_amplitude_0.0075_rep_7_l_H_2.0.png	 H	 l	 r	 n.a.	 3.525180e-01
9	 3	 241	 flanked	 rf	 3	 0.061700	 2.000000	 flanked_rf_freq_3_amplitude_0.0617_rep_4_r_N_2.0.png	 N	 r	 l	 n.a.	 6.255146e-01
9	 3	 242	 flanked	 rf	 12	 0.216700	 2.000000	 flanked_rf_freq_12_amplitude_0.2167_rep_5_t_D_2.0.png	 D	 t	 b	 n.a.	 3.022509e-01
9	 3	 243	 flanked	 rf	 8	 0.113300	 2.000000	 flanked_rf_freq_8_amplitude_0.1133_rep_5_b_H_2.0.png	 H	 b	 b	 n.a.	 3.241424e-01
9	 3	 244	 flanked	 rf	 5	 0.061700	 2.000000	 flanked_rf_freq_5_amplitude_0.0617_rep_5_b_D_2.0.png	 D	 b	 b	 n.a.	 5.469563e-01
9	 3	 245	 flanked	 rf	 5	 0.165000	 2.000000	 flanked_rf_freq_5_amplitude_0.165_rep_4_l_K_2.0.png	 K	 l	 l	 n.a.	 4.008906e-01
9	 3	 246	 flanked	 rf	 3	 0.268300	 2.000000	 flanked_rf_freq_3_amplitude_0.2683_rep_0_b_K_2.0.png	 K	 b	 b	 n.a.	 2.998064e-01
9	 3	 247	 flanked	 rf	 5	 0.010000	 2.000000	 flanked_rf_freq_5_amplitude_0.01_rep_5_r_D_2.0.png	 D	 r	 t	 n.a.	 4.908316e-01
9	 3	 248	 flanked	 rf	 5	 0.216700	 2.000000	 flanked_rf_freq_5_amplitude_0.2167_rep_4_t_K_2.0.png	 K	 t	 t	 n.a.	 3.654656e-01
9	 3	 249	 flanked	 rf	 2	 0.010000	 2.000000	 flanked_rf_freq_2_amplitude_0.01_rep_8_t_H_2.0.png	 H	 t	 t	 n.a.	 3.361421e-01
9	 3	 250	 flanked	 rf	 4	 0.010000	 2.000000	 flanked_rf_freq_4_amplitude_0.01_rep_5_l_H_2.0.png	 H	 l	 t	 n.a.	 3.420625e-01
9	 3	 251	 flanked	 rf	 4	 0.268300	 2.000000	 flanked_rf_freq_4_amplitude_0.2683_rep_8_b_K_2.0.png	 K	 b	 b	 n.a.	 4.774746e-01
9	 3	 252	 flanked	 rf	 8	 0.113300	 2.000000	 flanked_rf_freq_8_amplitude_0.1133_rep_3_l_H_2.0.png	 H	 l	 l	 n.a.	 7.438051e-01
9	 3	 253	 flanked	 rf	 12	 0.216700	 2.000000	 flanked_rf_freq_12_amplitude_0.2167_rep_3_t_D_2.0.png	 D	 t	 t	 n.a.	 3.619260e-01
9	 3	 254	 flanked	 rf	 4	 0.216700	 2.000000	 flanked_rf_freq_4_amplitude_0.2167_rep_3_l_H_2.0.png	 H	 l	 b	 n.a.	 5.756794e-01
9	 3	 255	 flanked	 rf	 8	 0.216700	 2.000000	 flanked_rf_freq_8_amplitude_0.2167_rep_5_l_H_2.0.png	 H	 l	 l	 n.a.	 2.814635e-01
9	 3	 256	 flanked	 rf	 4	 0.010000	 2.000000	 flanked_rf_freq_4_amplitude_0.01_rep_4_t_D_2.0.png	 D	 t	 l	 n.a.	 6.748799e-01
9	 3	 257	 flanked	 rf	 4	 0.268300	 2.000000	 flanked_rf_freq_4_amplitude_0.2683_rep_1_l_D_2.0.png	 D	 l	 l	 n.a.	 3.131740e-01
9	 3	 258	 flanked	 rf	 8	 0.268300	 2.000000	 flanked_rf_freq_8_amplitude_0.2683_rep_4_b_H_2.0.png	 H	 b	 b	 n.a.	 3.992849e-01
9	 3	 259	 flanked	 rf	 2	 0.216700	 2.000000	 flanked_rf_freq_2_amplitude_0.2167_rep_5_l_H_2.0.png	 H	 l	 r	 n.a.	 5.220251e-01
9	 3	 260	 flanked	 rf	 12	 0.007500	 2.000000	 flanked_rf_freq_12_amplitude_0.0075_rep_5_l_D_2.0.png	 D	 l	 b	 n.a.	 6.271342e-01
9	 3	 261	 flanked	 rf	 12	 0.216700	 2.000000	 flanked_rf_freq_12_amplitude_0.2167_rep_1_l_N_2.0.png	 N	 l	 l	 n.a.	 2.959879e-01
9	 3	 262	 flanked	 rf	 8	 0.165000	 2.000000	 flanked_rf_freq_8_amplitude_0.165_rep_2_t_N_2.0.png	 N	 t	 t	 n.a.	 7.516581e-01
9	 3	 263	 flanked	 rf	 4	 0.216700	 2.000000	 flanked_rf_freq_4_amplitude_0.2167_rep_5_t_D_2.0.png	 D	 t	 t	 n.a.	 4.546177e-01
9	 3	 264	 flanked	 rf	 2	 0.165000	 2.000000	 flanked_rf_freq_2_amplitude_0.165_rep_9_l_N_2.0.png	 N	 l	 b	 n.a.	 6.010551e-01
9	 3	 265	 flanked	 rf	 8	 0.165000	 2.000000	 flanked_rf_freq_8_amplitude_0.165_rep_7_t_D_2.0.png	 D	 t	 t	 n.a.	 3.090224e-01
9	 3	 266	 flanked	 rf	 5	 0.113300	 2.000000	 flanked_rf_freq_5_amplitude_0.1133_rep_5_b_D_2.0.png	 D	 b	 b	 n.a.	 6.100480e-01
9	 3	 267	 flanked	 rf	 8	 0.216700	 2.000000	 flanked_rf_freq_8_amplitude_0.2167_rep_8_b_K_2.0.png	 K	 b	 b	 n.a.	 3.457489e-01
9	 3	 268	 flanked	 rf	 4	 0.165000	 2.000000	 flanked_rf_freq_4_amplitude_0.165_rep_1_l_N_2.0.png	 N	 l	 l	 n.a.	 5.572546e-01
9	 3	 269	 flanked	 rf	 4	 0.165000	 2.000000	 flanked_rf_freq_4_amplitude_0.165_rep_8_r_H_2.0.png	 H	 r	 r	 n.a.	 3.875776e-01
9	 3	 270	 flanked	 rf	 3	 0.007500	 2.000000	 flanked_rf_freq_3_amplitude_0.0075_rep_9_b_K_2.0.png	 K	 b	 b	 n.a.	 3.145849e-01
9	 3	 271	 flanked	 rf	 8	 0.007500	 2.000000	 flanked_rf_freq_8_amplitude_0.0075_rep_7_b_H_2.0.png	 H	 b	 b	 n.a.	 7.520387e-01
9	 3	 272	 flanked	 rf	 4	 0.007500	 2.000000	 flanked_rf_freq_4_amplitude_0.0075_rep_1_t_N_2.0.png	 N	 t	 b	 n.a.	 2.925764e-01
9	 3	 273	 flanked	 rf	 8	 0.007500	 2.000000	 flanked_rf_freq_8_amplitude_0.0075_rep_9_b_H_2.0.png	 H	 b	 t	 n.a.	 3.855399e-01
9	 3	 274	 flanked	 rf	 12	 0.216700	 2.000000	 flanked_rf_freq_12_amplitude_0.2167_rep_4_l_N_2.0.png	 N	 l	 l	 n.a.	 2.794312e-01
9	 3	 275	 flanked	 rf	 3	 0.216700	 2.000000	 flanked_rf_freq_3_amplitude_0.2167_rep_0_l_D_2.0.png	 D	 l	 l	 n.a.	 3.987403e-01
9	 3	 276	 flanked	 rf	 12	 0.165000	 2.000000	 flanked_rf_freq_12_amplitude_0.165_rep_9_b_H_2.0.png	 H	 b	 b	 n.a.	 2.912743e-01
9	 3	 277	 flanked	 rf	 4	 0.165000	 2.000000	 flanked_rf_freq_4_amplitude_0.165_rep_0_t_N_2.0.png	 N	 t	 r	 n.a.	 5.382386e-01
9	 3	 278	 flanked	 rf	 3	 0.216700	 2.000000	 flanked_rf_freq_3_amplitude_0.2167_rep_8_t_K_2.0.png	 K	 t	 t	 n.a.	 3.039251e-01
9	 3	 279	 flanked	 rf	 12	 0.010000	 2.000000	 flanked_rf_freq_12_amplitude_0.01_rep_1_l_D_2.0.png	 D	 l	 t	 n.a.	 4.014526e-01
9	 3	 280	 flanked	 rf	 2	 0.007500	 2.000000	 flanked_rf_freq_2_amplitude_0.0075_rep_2_r_H_2.0.png	 H	 r	 r	 n.a.	 4.616942e-01
9	 3	 281	 flanked	 rf	 2	 0.216700	 2.000000	 flanked_rf_freq_2_amplitude_0.2167_rep_2_b_D_2.0.png	 D	 b	 b	 n.a.	 4.107686e-01
9	 3	 282	 flanked	 rf	 12	 0.113300	 2.000000	 flanked_rf_freq_12_amplitude_0.1133_rep_4_t_N_2.0.png	 N	 t	 t	 n.a.	 3.265858e-01
9	 3	 283	 flanked	 rf	 3	 0.010000	 2.000000	 flanked_rf_freq_3_amplitude_0.01_rep_9_b_K_2.0.png	 K	 b	 b	 n.a.	 3.168917e-01
9	 3	 284	 flanked	 rf	 12	 0.010000	 2.000000	 flanked_rf_freq_12_amplitude_0.01_rep_7_b_N_2.0.png	 N	 b	 b	 n.a.	 3.321851e-01
9	 3	 285	 flanked	 rf	 8	 0.113300	 2.000000	 flanked_rf_freq_8_amplitude_0.1133_rep_6_t_H_2.0.png	 H	 t	 t	 n.a.	 2.826863e-01
9	 3	 286	 flanked	 rf	 5	 0.216700	 2.000000	 flanked_rf_freq_5_amplitude_0.2167_rep_5_r_H_2.0.png	 H	 r	 b	 n.a.	 2.696560e-01
9	 3	 287	 flanked	 rf	 2	 0.216700	 2.000000	 flanked_rf_freq_2_amplitude_0.2167_rep_0_t_N_2.0.png	 N	 t	 t	 n.a.	 3.257925e-01
9	 3	 288	 flanked	 rf	 3	 0.010000	 2.000000	 flanked_rf_freq_3_amplitude_0.01_rep_8_b_H_2.0.png	 H	 b	 b	 n.a.	 4.607829e-01
9	 3	 289	 flanked	 rf	 2	 0.007500	 2.000000	 flanked_rf_freq_2_amplitude_0.0075_rep_6_b_N_2.0.png	 N	 b	 t	 n.a.	 3.353651e-01
9	 3	 290	 flanked	 rf	 5	 0.061700	 2.000000	 flanked_rf_freq_5_amplitude_0.0617_rep_9_l_K_2.0.png	 K	 l	 l	 n.a.	 3.933614e-01
9	 3	 291	 flanked	 rf	 4	 0.007500	 2.000000	 flanked_rf_freq_4_amplitude_0.0075_rep_6_t_K_2.0.png	 K	 t	 l	 n.a.	 5.165568e-01
9	 3	 292	 flanked	 rf	 2	 0.165000	 2.000000	 flanked_rf_freq_2_amplitude_0.165_rep_3_b_K_2.0.png	 K	 b	 b	 n.a.	 3.755676e-01
9	 3	 293	 flanked	 rf	 4	 0.216700	 2.000000	 flanked_rf_freq_4_amplitude_0.2167_rep_1_l_D_2.0.png	 D	 l	 b	 n.a.	 3.152610e-01
9	 3	 294	 flanked	 rf	 4	 0.007500	 2.000000	 flanked_rf_freq_4_amplitude_0.0075_rep_4_l_N_2.0.png	 N	 l	 r	 n.a.	 3.774454e-01
9	 3	 295	 flanked	 rf	 5	 0.165000	 2.000000	 flanked_rf_freq_5_amplitude_0.165_rep_5_t_D_2.0.png	 D	 t	 t	 n.a.	 3.928040e-01
9	 3	 296	 flanked	 rf	 3	 0.165000	 2.000000	 flanked_rf_freq_3_amplitude_0.165_rep_4_r_K_2.0.png	 K	 r	 r	 n.a.	 4.310999e-01
9	 3	 297	 flanked	 rf	 12	 0.113300	 2.000000	 flanked_rf_freq_12_amplitude_0.1133_rep_1_b_N_2.0.png	 N	 b	 b	 n.a.	 2.445692e-01
9	 3	 298	 flanked	 rf	 2	 0.010000	 2.000000	 flanked_rf_freq_2_amplitude_0.01_rep_7_r_K_2.0.png	 K	 r	 b	 n.a.	 3.048425e-01
9	 3	 299	 flanked	 rf	 8	 0.061700	 2.000000	 flanked_rf_freq_8_amplitude_0.0617_rep_6_b_N_2.0.png	 N	 b	 b	 n.a.	 3.936297e-01
9	 3	 300	 flanked	 rf	 12	 0.010000	 2.000000	 flanked_rf_freq_12_amplitude_0.01_rep_6_b_N_2.0.png	 N	 b	 r	 n.a.	 4.352809e-01
9	 3	 301	 flanked	 rf	 5	 0.216700	 2.000000	 flanked_rf_freq_5_amplitude_0.2167_rep_7_t_D_2.0.png	 D	 t	 l	 n.a.	 5.858435e-01
9	 3	 302	 flanked	 rf	 3	 0.165000	 2.000000	 flanked_rf_freq_3_amplitude_0.165_rep_3_l_N_2.0.png	 N	 l	 b	 n.a.	 2.694358e-01
9	 3	 303	 flanked	 rf	 4	 0.010000	 2.000000	 flanked_rf_freq_4_amplitude_0.01_rep_9_r_H_2.0.png	 H	 r	 b	 n.a.	 3.074438e-01
9	 3	 304	 flanked	 rf	 3	 0.010000	 2.000000	 flanked_rf_freq_3_amplitude_0.01_rep_7_t_H_2.0.png	 H	 t	 l	 n.a.	 8.489691e-01
9	 3	 305	 flanked	 rf	 8	 0.113300	 2.000000	 flanked_rf_freq_8_amplitude_0.1133_rep_7_r_D_2.0.png	 D	 r	 r	 n.a.	 2.991134e-01
9	 3	 306	 flanked	 rf	 3	 0.165000	 2.000000	 flanked_rf_freq_3_amplitude_0.165_rep_2_t_D_2.0.png	 D	 t	 b	 n.a.	 4.999510e-01
9	 3	 307	 flanked	 rf	 4	 0.061700	 2.000000	 flanked_rf_freq_4_amplitude_0.0617_rep_6_b_N_2.0.png	 N	 b	 l	 n.a.	 2.600887e-01
9	 3	 308	 flanked	 rf	 3	 0.113300	 2.000000	 flanked_rf_freq_3_amplitude_0.1133_rep_7_r_D_2.0.png	 D	 r	 l	 n.a.	 9.977994e-01
9	 3	 309	 flanked	 rf	 5	 0.268300	 2.000000	 flanked_rf_freq_5_amplitude_0.2683_rep_5_l_K_2.0.png	 K	 l	 l	 n.a.	 2.725184e-01
9	 3	 310	 flanked	 rf	 5	 0.165000	 2.000000	 flanked_rf_freq_5_amplitude_0.165_rep_9_b_H_2.0.png	 H	 b	 l	 n.a.	 6.975197e-01
9	 3	 311	 flanked	 rf	 2	 0.113300	 2.000000	 flanked_rf_freq_2_amplitude_0.1133_rep_3_b_K_2.0.png	 K	 b	 r	 n.a.	 4.625701e-01
9	 3	 312	 flanked	 rf	 2	 0.007500	 2.000000	 flanked_rf_freq_2_amplitude_0.0075_rep_8_l_H_2.0.png	 H	 l	 t	 n.a.	 8.856177e-01
9	 3	 313	 flanked	 rf	 8	 0.268300	 2.000000	 flanked_rf_freq_8_amplitude_0.2683_rep_7_l_N_2.0.png	 N	 l	 l	 n.a.	 2.529952e-01
9	 3	 314	 flanked	 rf	 12	 0.010000	 2.000000	 flanked_rf_freq_12_amplitude_0.01_rep_4_b_N_2.0.png	 N	 b	 r	 n.a.	 6.542322e-01
9	 3	 315	 flanked	 rf	 3	 0.007500	 2.000000	 flanked_rf_freq_3_amplitude_0.0075_rep_4_t_D_2.0.png	 D	 t	 l	 n.a.	 2.436101e-01
9	 3	 316	 flanked	 rf	 8	 0.113300	 2.000000	 flanked_rf_freq_8_amplitude_0.1133_rep_2_r_N_2.0.png	 N	 r	 r	 n.a.	 4.006080e-01
9	 3	 317	 flanked	 rf	 2	 0.007500	 2.000000	 flanked_rf_freq_2_amplitude_0.0075_rep_4_l_H_2.0.png	 H	 l	 b	 n.a.	 6.734031e-01
9	 3	 318	 flanked	 rf	 4	 0.113300	 2.000000	 flanked_rf_freq_4_amplitude_0.1133_rep_7_b_D_2.0.png	 D	 b	 t	 n.a.	 4.627584e-01
9	 3	 319	 flanked	 rf	 12	 0.268300	 2.000000	 flanked_rf_freq_12_amplitude_0.2683_rep_2_b_K_2.0.png	 K	 b	 b	 n.a.	 2.928780e-01
9	 3	 320	 flanked	 rf	 4	 0.268300	 2.000000	 flanked_rf_freq_4_amplitude_0.2683_rep_9_b_D_2.0.png	 D	 b	 b	 n.a.	 5.769654e-01
9	 3	 321	 flanked	 rf	 5	 0.113300	 2.000000	 flanked_rf_freq_5_amplitude_0.1133_rep_1_b_N_2.0.png	 N	 b	 t	 n.a.	 5.476158e-01
9	 3	 322	 flanked	 rf	 2	 0.010000	 2.000000	 flanked_rf_freq_2_amplitude_0.01_rep_9_b_K_2.0.png	 K	 b	 b	 n.a.	 3.015470e-01
9	 3	 323	 flanked	 rf	 2	 0.061700	 2.000000	 flanked_rf_freq_2_amplitude_0.0617_rep_6_t_H_2.0.png	 H	 t	 l	 n.a.	 4.795996e-01
9	 3	 324	 flanked	 rf	 4	 0.010000	 2.000000	 flanked_rf_freq_4_amplitude_0.01_rep_0_l_D_2.0.png	 D	 l	 t	 n.a.	 4.486130e-01
9	 3	 325	 flanked	 rf	 4	 0.007500	 2.000000	 flanked_rf_freq_4_amplitude_0.0075_rep_3_l_N_2.0.png	 N	 l	 b	 n.a.	 5.034113e-01
9	 3	 326	 flanked	 rf	 12	 0.165000	 2.000000	 flanked_rf_freq_12_amplitude_0.165_rep_7_l_H_2.0.png	 H	 l	 l	 n.a.	 2.376451e-01
9	 3	 327	 flanked	 rf	 12	 0.216700	 2.000000	 flanked_rf_freq_12_amplitude_0.2167_rep_9_b_H_2.0.png	 H	 b	 b	 n.a.	 3.026409e-01
9	 3	 328	 flanked	 rf	 5	 0.007500	 2.000000	 flanked_rf_freq_5_amplitude_0.0075_rep_4_b_D_2.0.png	 D	 b	 r	 n.a.	 4.067663e-01
9	 3	 329	 flanked	 rf	 5	 0.216700	 2.000000	 flanked_rf_freq_5_amplitude_0.2167_rep_1_t_H_2.0.png	 H	 t	 t	 n.a.	 4.388733e-01
9	 3	 330	 flanked	 rf	 5	 0.061700	 2.000000	 flanked_rf_freq_5_amplitude_0.0617_rep_8_r_D_2.0.png	 D	 r	 t	 n.a.	 4.062457e-01
9	 3	 331	 flanked	 rf	 2	 0.113300	 2.000000	 flanked_rf_freq_2_amplitude_0.1133_rep_7_r_N_2.0.png	 N	 r	 l	 n.a.	 2.473153e-01
9	 3	 332	 flanked	 rf	 3	 0.216700	 2.000000	 flanked_rf_freq_3_amplitude_0.2167_rep_1_r_D_2.0.png	 D	 r	 l	 n.a.	 3.337615e-01
9	 3	 333	 flanked	 rf	 5	 0.010000	 2.000000	 flanked_rf_freq_5_amplitude_0.01_rep_4_b_N_2.0.png	 N	 b	 t	 n.a.	 6.581030e-01
9	 3	 334	 flanked	 rf	 5	 0.061700	 2.000000	 flanked_rf_freq_5_amplitude_0.0617_rep_7_t_D_2.0.png	 D	 t	 b	 n.a.	 3.595365e-01
9	 3	 335	 flanked	 rf	 12	 0.007500	 2.000000	 flanked_rf_freq_12_amplitude_0.0075_rep_1_r_D_2.0.png	 D	 r	 r	 n.a.	 5.450316e-01
9	 3	 336	 flanked	 rf	 2	 0.061700	 2.000000	 flanked_rf_freq_2_amplitude_0.0617_rep_1_r_D_2.0.png	 D	 r	 l	 n.a.	 4.811962e-01
9	 3	 337	 flanked	 rf	 12	 0.268300	 2.000000	 flanked_rf_freq_12_amplitude_0.2683_rep_5_b_K_2.0.png	 K	 b	 b	 n.a.	 2.474522e-01
9	 3	 338	 flanked	 rf	 3	 0.061700	 2.000000	 flanked_rf_freq_3_amplitude_0.0617_rep_8_t_H_2.0.png	 H	 t	 t	 n.a.	 4.031423e-01
9	 3	 339	 flanked	 rf	 4	 0.113300	 2.000000	 flanked_rf_freq_4_amplitude_0.1133_rep_6_l_D_2.0.png	 D	 l	 b	 n.a.	 4.830881e-01
9	 3	 340	 flanked	 rf	 2	 0.165000	 2.000000	 flanked_rf_freq_2_amplitude_0.165_rep_0_t_N_2.0.png	 N	 t	 l	 n.a.	 4.691899e-01
9	 3	 341	 flanked	 rf	 5	 0.061700	 2.000000	 flanked_rf_freq_5_amplitude_0.0617_rep_6_b_D_2.0.png	 D	 b	 t	 n.a.	 4.082298e-01
9	 3	 342	 flanked	 rf	 8	 0.216700	 2.000000	 flanked_rf_freq_8_amplitude_0.2167_rep_7_b_K_2.0.png	 K	 b	 b	 n.a.	 2.776743e-01
9	 3	 343	 flanked	 rf	 2	 0.061700	 2.000000	 flanked_rf_freq_2_amplitude_0.0617_rep_8_b_K_2.0.png	 K	 b	 b	 n.a.	 3.273280e-01
9	 3	 344	 flanked	 rf	 4	 0.061700	 2.000000	 flanked_rf_freq_4_amplitude_0.0617_rep_1_r_K_2.0.png	 K	 r	 b	 n.a.	 5.650538e-01
9	 3	 345	 flanked	 rf	 2	 0.007500	 2.000000	 flanked_rf_freq_2_amplitude_0.0075_rep_5_b_D_2.0.png	 D	 b	 t	 n.a.	 5.430085e-01
9	 3	 346	 flanked	 rf	 2	 0.113300	 2.000000	 flanked_rf_freq_2_amplitude_0.1133_rep_4_b_D_2.0.png	 D	 b	 l	 n.a.	 4.530680e-01
9	 3	 347	 flanked	 rf	 4	 0.007500	 2.000000	 flanked_rf_freq_4_amplitude_0.0075_rep_2_l_N_2.0.png	 N	 l	 b	 n.a.	 3.693809e-01
9	 3	 348	 flanked	 rf	 2	 0.165000	 2.000000	 flanked_rf_freq_2_amplitude_0.165_rep_7_b_H_2.0.png	 H	 b	 l	 n.a.	 3.945467e-01
9	 3	 349	 flanked	 rf	 12	 0.061700	 2.000000	 flanked_rf_freq_12_amplitude_0.0617_rep_9_l_H_2.0.png	 H	 l	 l	 n.a.	 3.865854e-01
9	 3	 350	 flanked	 rf	 12	 0.165000	 2.000000	 flanked_rf_freq_12_amplitude_0.165_rep_8_l_H_2.0.png	 H	 l	 l	 n.a.	 2.793369e-01
9	 3	 351	 flanked	 rf	 3	 0.113300	 2.000000	 flanked_rf_freq_3_amplitude_0.1133_rep_8_r_N_2.0.png	 N	 r	 t	 n.a.	 6.703098e-01
9	 3	 352	 flanked	 rf	 12	 0.268300	 2.000000	 flanked_rf_freq_12_amplitude_0.2683_rep_4_b_D_2.0.png	 D	 b	 b	 n.a.	 2.822413e-01
9	 3	 353	 flanked	 rf	 12	 0.268300	 2.000000	 flanked_rf_freq_12_amplitude_0.2683_rep_6_l_K_2.0.png	 K	 l	 l	 n.a.	 3.997191e-01
9	 3	 354	 flanked	 rf	 5	 0.007500	 2.000000	 flanked_rf_freq_5_amplitude_0.0075_rep_8_t_N_2.0.png	 N	 t	 t	 n.a.	 5.325828e-01
9	 3	 355	 flanked	 rf	 8	 0.061700	 2.000000	 flanked_rf_freq_8_amplitude_0.0617_rep_7_r_K_2.0.png	 K	 r	 r	 n.a.	 3.399083e-01
9	 3	 356	 flanked	 rf	 4	 0.268300	 2.000000	 flanked_rf_freq_4_amplitude_0.2683_rep_5_r_K_2.0.png	 K	 r	 b	 n.a.	 6.257865e-01
9	 3	 357	 flanked	 rf	 5	 0.165000	 2.000000	 flanked_rf_freq_5_amplitude_0.165_rep_7_b_N_2.0.png	 N	 b	 b	 n.a.	 4.256208e-01
9	 3	 358	 flanked	 rf	 5	 0.113300	 2.000000	 flanked_rf_freq_5_amplitude_0.1133_rep_0_t_K_2.0.png	 K	 t	 t	 n.a.	 3.779187e-01
9	 3	 359	 flanked	 rf	 3	 0.165000	 2.000000	 flanked_rf_freq_3_amplitude_0.165_rep_9_l_K_2.0.png	 K	 l	 l	 n.a.	 3.034384e-01
9	 3	 360	 flanked	 rf	 3	 0.007500	 2.000000	 flanked_rf_freq_3_amplitude_0.0075_rep_8_t_H_2.0.png	 H	 t	 b	 n.a.	 3.571331e-01
9	 3	 361	 flanked	 rf	 4	 0.268300	 2.000000	 flanked_rf_freq_4_amplitude_0.2683_rep_6_l_N_2.0.png	 N	 l	 l	 n.a.	 3.029674e-01
9	 3	 362	 flanked	 rf	 8	 0.165000	 2.000000	 flanked_rf_freq_8_amplitude_0.165_rep_9_l_D_2.0.png	 D	 l	 l	 n.a.	 2.284414e-01
9	 3	 363	 flanked	 rf	 12	 0.268300	 2.000000	 flanked_rf_freq_12_amplitude_0.2683_rep_9_t_D_2.0.png	 D	 t	 t	 n.a.	 3.166494e-01
9	 3	 364	 flanked	 rf	 3	 0.113300	 2.000000	 flanked_rf_freq_3_amplitude_0.1133_rep_0_b_K_2.0.png	 K	 b	 b	 n.a.	 2.683685e-01
9	 3	 365	 flanked	 rf	 5	 0.268300	 2.000000	 flanked_rf_freq_5_amplitude_0.2683_rep_1_b_H_2.0.png	 H	 b	 b	 n.a.	 2.730854e-01
9	 3	 366	 flanked	 rf	 2	 0.010000	 2.000000	 flanked_rf_freq_2_amplitude_0.01_rep_0_t_D_2.0.png	 D	 t	 r	 n.a.	 4.419581e-01
9	 3	 367	 flanked	 rf	 2	 0.061700	 2.000000	 flanked_rf_freq_2_amplitude_0.0617_rep_4_r_H_2.0.png	 H	 r	 b	 n.a.	 3.178409e-01
9	 3	 368	 flanked	 rf	 12	 0.007500	 2.000000	 flanked_rf_freq_12_amplitude_0.0075_rep_4_r_K_2.0.png	 K	 r	 b	 n.a.	 3.262163e-01
9	 3	 369	 flanked	 rf	 2	 0.268300	 2.000000	 flanked_rf_freq_2_amplitude_0.2683_rep_8_l_H_2.0.png	 H	 l	 t	 n.a.	 3.319429e-01
9	 3	 370	 flanked	 rf	 12	 0.113300	 2.000000	 flanked_rf_freq_12_amplitude_0.1133_rep_5_r_D_2.0.png	 D	 r	 l	 n.a.	 2.985033e-01
9	 3	 371	 flanked	 rf	 3	 0.268300	 2.000000	 flanked_rf_freq_3_amplitude_0.2683_rep_2_l_K_2.0.png	 K	 l	 l	 n.a.	 3.046781e-01
9	 3	 372	 flanked	 rf	 8	 0.010000	 2.000000	 flanked_rf_freq_8_amplitude_0.01_rep_3_t_K_2.0.png	 K	 t	 r	 n.a.	 4.149312e-01
9	 3	 373	 flanked	 rf	 12	 0.165000	 2.000000	 flanked_rf_freq_12_amplitude_0.165_rep_1_r_H_2.0.png	 H	 r	 r	 n.a.	 4.961568e-01
9	 3	 374	 flanked	 rf	 8	 0.268300	 2.000000	 flanked_rf_freq_8_amplitude_0.2683_rep_8_b_H_2.0.png	 H	 b	 b	 n.a.	 3.181888e-01
9	 3	 375	 flanked	 rf	 5	 0.216700	 2.000000	 flanked_rf_freq_5_amplitude_0.2167_rep_8_b_N_2.0.png	 N	 b	 l	 n.a.	 3.138943e-01
9	 3	 376	 flanked	 rf	 8	 0.216700	 2.000000	 flanked_rf_freq_8_amplitude_0.2167_rep_2_l_D_2.0.png	 D	 l	 l	 n.a.	 2.746282e-01
9	 3	 377	 flanked	 rf	 8	 0.165000	 2.000000	 flanked_rf_freq_8_amplitude_0.165_rep_8_b_H_2.0.png	 H	 b	 b	 n.a.	 3.388069e-01
9	 3	 378	 flanked	 rf	 4	 0.113300	 2.000000	 flanked_rf_freq_4_amplitude_0.1133_rep_9_r_H_2.0.png	 H	 r	 t	 n.a.	 3.793699e-01
9	 3	 379	 flanked	 rf	 3	 0.061700	 2.000000	 flanked_rf_freq_3_amplitude_0.0617_rep_2_t_K_2.0.png	 K	 t	 r	 n.a.	 5.763083e-01
9	 3	 380	 flanked	 rf	 3	 0.165000	 2.000000	 flanked_rf_freq_3_amplitude_0.165_rep_0_t_H_2.0.png	 H	 t	 l	 n.a.	 6.356112e-01
9	 3	 381	 flanked	 rf	 12	 0.113300	 2.000000	 flanked_rf_freq_12_amplitude_0.1133_rep_0_b_N_2.0.png	 N	 b	 b	 n.a.	 3.080753e-01
9	 3	 382	 flanked	 rf	 12	 0.007500	 2.000000	 flanked_rf_freq_12_amplitude_0.0075_rep_7_r_H_2.0.png	 H	 r	 r	 n.a.	 4.991509e-01
9	 3	 383	 flanked	 rf	 2	 0.268300	 2.000000	 flanked_rf_freq_2_amplitude_0.2683_rep_1_r_H_2.0.png	 H	 r	 r	 n.a.	 3.370961e-01
9	 3	 384	 flanked	 rf	 8	 0.113300	 2.000000	 flanked_rf_freq_8_amplitude_0.1133_rep_4_r_H_2.0.png	 H	 r	 r	 n.a.	 5.518928e-01
9	 3	 385	 flanked	 rf	 5	 0.007500	 2.000000	 flanked_rf_freq_5_amplitude_0.0075_rep_1_r_D_2.0.png	 D	 r	 t	 n.a.	 3.627143e-01
9	 3	 386	 flanked	 rf	 12	 0.061700	 2.000000	 flanked_rf_freq_12_amplitude_0.0617_rep_3_t_N_2.0.png	 N	 t	 b	 n.a.	 4.085254e-01
9	 3	 387	 flanked	 rf	 5	 0.165000	 2.000000	 flanked_rf_freq_5_amplitude_0.165_rep_8_l_K_2.0.png	 K	 l	 l	 n.a.	 3.476279e-01
9	 3	 388	 flanked	 rf	 2	 0.113300	 2.000000	 flanked_rf_freq_2_amplitude_0.1133_rep_5_b_K_2.0.png	 K	 b	 t	 n.a.	 5.982005e-01
9	 3	 389	 flanked	 rf	 12	 0.113300	 2.000000	 flanked_rf_freq_12_amplitude_0.1133_rep_6_b_D_2.0.png	 D	 b	 b	 n.a.	 3.078950e-01
9	 3	 390	 flanked	 rf	 5	 0.010000	 2.000000	 flanked_rf_freq_5_amplitude_0.01_rep_1_r_K_2.0.png	 K	 r	 r	 n.a.	 3.255431e-01
9	 3	 391	 flanked	 rf	 2	 0.216700	 2.000000	 flanked_rf_freq_2_amplitude_0.2167_rep_1_r_K_2.0.png	 K	 r	 r	 n.a.	 2.719738e-01
9	 3	 392	 flanked	 rf	 4	 0.061700	 2.000000	 flanked_rf_freq_4_amplitude_0.0617_rep_2_t_N_2.0.png	 N	 t	 r	 n.a.	 3.561998e-01
9	 3	 393	 flanked	 rf	 4	 0.113300	 2.000000	 flanked_rf_freq_4_amplitude_0.1133_rep_0_b_D_2.0.png	 D	 b	 t	 n.a.	 5.848270e-01
9	 3	 394	 flanked	 rf	 2	 0.061700	 2.000000	 flanked_rf_freq_2_amplitude_0.0617_rep_3_b_N_2.0.png	 N	 b	 b	 n.a.	 3.862562e-01
9	 3	 395	 flanked	 rf	 8	 0.010000	 2.000000	 flanked_rf_freq_8_amplitude_0.01_rep_6_l_N_2.0.png	 N	 l	 t	 n.a.	 3.424186e-01
9	 3	 396	 flanked	 rf	 5	 0.165000	 2.000000	 flanked_rf_freq_5_amplitude_0.165_rep_1_r_N_2.0.png	 N	 r	 r	 n.a.	 3.157013e-01
9	 3	 397	 flanked	 rf	 2	 0.165000	 2.000000	 flanked_rf_freq_2_amplitude_0.165_rep_1_r_H_2.0.png	 H	 r	 r	 n.a.	 3.584941e-01
9	 3	 398	 flanked	 rf	 3	 0.010000	 2.000000	 flanked_rf_freq_3_amplitude_0.01_rep_3_l_D_2.0.png	 D	 l	 t	 n.a.	 5.019612e-01
9	 3	 399	 flanked	 rf	 8	 0.113300	 2.000000	 flanked_rf_freq_8_amplitude_0.1133_rep_0_l_D_2.0.png	 D	 l	 l	 n.a.	 4.878936e-01
9	 3	 400	 flanked	 rf	 5	 0.007500	 2.000000	 flanked_rf_freq_5_amplitude_0.0075_rep_0_t_D_2.0.png	 D	 t	 r	 n.a.	 6.297157e-01
9	 3	 401	 flanked	 rf	 3	 0.216700	 2.000000	 flanked_rf_freq_3_amplitude_0.2167_rep_3_t_N_2.0.png	 N	 t	 b	 n.a.	 7.322875e-01
9	 3	 402	 flanked	 rf	 4	 0.007500	 2.000000	 flanked_rf_freq_4_amplitude_0.0075_rep_7_l_H_2.0.png	 H	 l	 t	 n.a.	 4.366300e-01
9	 3	 403	 flanked	 rf	 3	 0.268300	 2.000000	 flanked_rf_freq_3_amplitude_0.2683_rep_5_b_K_2.0.png	 K	 b	 b	 n.a.	 3.400713e-01
9	 3	 404	 flanked	 rf	 5	 0.268300	 2.000000	 flanked_rf_freq_5_amplitude_0.2683_rep_4_t_N_2.0.png	 N	 t	 t	 n.a.	 3.395879e-01
9	 3	 405	 flanked	 rf	 8	 0.061700	 2.000000	 flanked_rf_freq_8_amplitude_0.0617_rep_9_b_K_2.0.png	 K	 b	 t	 n.a.	 8.609934e-01
9	 3	 406	 flanked	 rf	 8	 0.007500	 2.000000	 flanked_rf_freq_8_amplitude_0.0075_rep_8_t_D_2.0.png	 D	 t	 b	 n.a.	 6.917336e-01
9	 3	 407	 flanked	 rf	 8	 0.216700	 2.000000	 flanked_rf_freq_8_amplitude_0.2167_rep_4_l_N_2.0.png	 N	 l	 l	 n.a.	 2.904156e-01
9	 3	 408	 flanked	 rf	 2	 0.010000	 2.000000	 flanked_rf_freq_2_amplitude_0.01_rep_2_r_N_2.0.png	 N	 r	 b	 n.a.	 7.752113e-01
9	 3	 409	 flanked	 rf	 2	 0.113300	 2.000000	 flanked_rf_freq_2_amplitude_0.1133_rep_0_l_K_2.0.png	 K	 l	 l	 n.a.	 2.416628e-01
9	 3	 410	 flanked	 rf	 8	 0.007500	 2.000000	 flanked_rf_freq_8_amplitude_0.0075_rep_2_t_H_2.0.png	 H	 t	 b	 n.a.	 3.492014e-01
9	 3	 411	 flanked	 rf	 5	 0.268300	 2.000000	 flanked_rf_freq_5_amplitude_0.2683_rep_6_b_N_2.0.png	 N	 b	 l	 n.a.	 6.137998e-01
9	 3	 412	 flanked	 rf	 3	 0.061700	 2.000000	 flanked_rf_freq_3_amplitude_0.0617_rep_9_l_H_2.0.png	 H	 l	 r	 n.a.	 3.786137e-01
9	 3	 413	 flanked	 rf	 3	 0.113300	 2.000000	 flanked_rf_freq_3_amplitude_0.1133_rep_5_t_K_2.0.png	 K	 t	 t	 n.a.	 3.319468e-01
9	 3	 414	 flanked	 rf	 8	 0.268300	 2.000000	 flanked_rf_freq_8_amplitude_0.2683_rep_5_b_D_2.0.png	 D	 b	 b	 n.a.	 2.185297e-01
9	 3	 415	 flanked	 rf	 2	 0.007500	 2.000000	 flanked_rf_freq_2_amplitude_0.0075_rep_3_t_H_2.0.png	 H	 t	 b	 n.a.	 4.538179e-01
9	 3	 416	 flanked	 rf	 12	 0.010000	 2.000000	 flanked_rf_freq_12_amplitude_0.01_rep_0_t_D_2.0.png	 D	 t	 t	 n.a.	 4.183828e-01
9	 3	 417	 flanked	 rf	 4	 0.165000	 2.000000	 flanked_rf_freq_4_amplitude_0.165_rep_2_t_N_2.0.png	 N	 t	 t	 n.a.	 5.331005e-01
9	 3	 418	 flanked	 rf	 5	 0.113300	 2.000000	 flanked_rf_freq_5_amplitude_0.1133_rep_3_l_H_2.0.png	 H	 l	 l	 n.a.	 3.756549e-01
9	 3	 419	 flanked	 rf	 8	 0.007500	 2.000000	 flanked_rf_freq_8_amplitude_0.0075_rep_5_b_H_2.0.png	 H	 b	 t	 n.a.	 5.479197e-01
9	 3	 420	 flanked	 rf	 2	 0.165000	 2.000000	 flanked_rf_freq_2_amplitude_0.165_rep_8_l_H_2.0.png	 H	 l	 b	 n.a.	 3.182938e-01
