subject	 session	 trial	 flanked	 distortion	 freq	 amplitude	 spacing	 im_name	 targ_letter	 targ_pos	 response	 eyemovement	 RT
2	 3	 1	 unflanked	 bex	 16	 2.500000	 0.000000	 unflanked_bex_freq_16_amplitude_2.5_rep_2_r_N.png	 N	 r	 r	 n.a.	 3.662318e-01
2	 3	 2	 unflanked	 bex	 4	 3.000000	 0.000000	 unflanked_bex_freq_4_amplitude_3_rep_0_r_H.png	 H	 r	 r	 n.a.	 5.037535e-01
2	 3	 3	 unflanked	 bex	 8	 2.500000	 0.000000	 unflanked_bex_freq_8_amplitude_2.5_rep_3_t_H.png	 H	 t	 l	 n.a.	 4.185537e-01
2	 3	 4	 unflanked	 bex	 2	 0.250000	 0.000000	 unflanked_bex_freq_2_amplitude_0.25_rep_2_b_D.png	 D	 b	 b	 n.a.	 3.392796e-01
2	 3	 5	 unflanked	 bex	 8	 0.500000	 0.000000	 unflanked_bex_freq_8_amplitude_0.5_rep_3_t_N.png	 N	 t	 l	 n.a.	 5.937811e-01
2	 3	 6	 unflanked	 bex	 32	 2.000000	 0.000000	 unflanked_bex_freq_32_amplitude_2_rep_8_b_H.png	 H	 b	 t	 n.a.	 6.733764e-01
2	 3	 7	 unflanked	 bex	 32	 0.500000	 0.000000	 unflanked_bex_freq_32_amplitude_0.5_rep_0_b_H.png	 H	 b	 l	 n.a.	 3.708181e-01
2	 3	 8	 unflanked	 bex	 32	 2.000000	 0.000000	 unflanked_bex_freq_32_amplitude_2_rep_9_r_K.png	 K	 r	 r	 n.a.	 2.309316e-01
2	 3	 9	 unflanked	 bex	 32	 1.500000	 0.000000	 unflanked_bex_freq_32_amplitude_1.5_rep_1_l_K.png	 K	 l	 l	 n.a.	 3.792983e-01
2	 3	 10	 unflanked	 bex	 8	 3.000000	 0.000000	 unflanked_bex_freq_8_amplitude_3_rep_1_r_K.png	 K	 r	 r	 n.a.	 3.968329e-01
2	 3	 11	 unflanked	 bex	 32	 2.500000	 0.000000	 unflanked_bex_freq_32_amplitude_2.5_rep_5_r_H.png	 H	 r	 r	 n.a.	 3.833232e-01
2	 3	 12	 unflanked	 bex	 6	 3.000000	 0.000000	 unflanked_bex_freq_6_amplitude_3_rep_4_l_N.png	 N	 l	 l	 n.a.	 2.121897e-01
2	 3	 13	 unflanked	 bex	 8	 0.500000	 0.000000	 unflanked_bex_freq_8_amplitude_0.5_rep_9_t_N.png	 N	 t	 r	 n.a.	 4.285373e-01
2	 3	 14	 unflanked	 bex	 2	 0.500000	 0.000000	 unflanked_bex_freq_2_amplitude_0.5_rep_2_t_D.png	 D	 t	 t	 n.a.	 5.875013e-01
2	 3	 15	 unflanked	 bex	 16	 1.000000	 0.000000	 unflanked_bex_freq_16_amplitude_1_rep_9_t_H.png	 H	 t	 r	 n.a.	 7.025015e-01
2	 3	 16	 unflanked	 bex	 8	 0.250000	 0.000000	 unflanked_bex_freq_8_amplitude_0.25_rep_5_l_D.png	 D	 l	 r	 n.a.	 3.708936e-01
2	 3	 17	 unflanked	 bex	 4	 1.500000	 0.000000	 unflanked_bex_freq_4_amplitude_1.5_rep_9_r_K.png	 K	 r	 l	 n.a.	 5.741367e-01
2	 3	 18	 unflanked	 bex	 2	 0.250000	 0.000000	 unflanked_bex_freq_2_amplitude_0.25_rep_6_l_H.png	 H	 l	 r	 n.a.	 3.359021e-01
2	 3	 19	 unflanked	 bex	 6	 1.000000	 0.000000	 unflanked_bex_freq_6_amplitude_1_rep_4_l_K.png	 K	 l	 b	 n.a.	 4.431241e-01
2	 3	 20	 unflanked	 bex	 2	 2.500000	 0.000000	 unflanked_bex_freq_2_amplitude_2.5_rep_1_b_K.png	 K	 b	 b	 n.a.	 5.464969e-01
2	 3	 21	 unflanked	 bex	 2	 1.000000	 0.000000	 unflanked_bex_freq_2_amplitude_1_rep_1_l_D.png	 D	 l	 t	 n.a.	 4.483671e-01
2	 3	 22	 unflanked	 bex	 4	 0.250000	 0.000000	 unflanked_bex_freq_4_amplitude_0.25_rep_2_r_N.png	 N	 r	 l	 n.a.	 4.090881e-01
2	 3	 23	 unflanked	 bex	 16	 3.000000	 0.000000	 unflanked_bex_freq_16_amplitude_3_rep_2_t_D.png	 D	 t	 t	 n.a.	 5.691027e-01
2	 3	 24	 unflanked	 bex	 4	 0.500000	 0.000000	 unflanked_bex_freq_4_amplitude_0.5_rep_2_r_D.png	 D	 r	 r	 n.a.	 3.358377e-01
2	 3	 25	 unflanked	 bex	 8	 0.500000	 0.000000	 unflanked_bex_freq_8_amplitude_0.5_rep_7_l_K.png	 K	 l	 r	 n.a.	 9.470206e-01
2	 3	 26	 unflanked	 bex	 32	 3.000000	 0.000000	 unflanked_bex_freq_32_amplitude_3_rep_7_b_N.png	 N	 b	 r	 n.a.	 4.370561e-01
2	 3	 27	 unflanked	 bex	 6	 0.250000	 0.000000	 unflanked_bex_freq_6_amplitude_0.25_rep_1_t_N.png	 N	 t	 l	 n.a.	 4.005646e-01
2	 3	 28	 unflanked	 bex	 4	 2.000000	 0.000000	 unflanked_bex_freq_4_amplitude_2_rep_1_r_D.png	 D	 r	 r	 n.a.	 2.910773e-01
2	 3	 29	 unflanked	 bex	 16	 2.500000	 0.000000	 unflanked_bex_freq_16_amplitude_2.5_rep_9_l_D.png	 D	 l	 l	 n.a.	 3.790543e-01
2	 3	 30	 unflanked	 bex	 6	 1.500000	 0.000000	 unflanked_bex_freq_6_amplitude_1.5_rep_9_r_K.png	 K	 r	 r	 n.a.	 2.671107e-01
2	 3	 31	 unflanked	 bex	 16	 0.250000	 0.000000	 unflanked_bex_freq_16_amplitude_0.25_rep_4_l_K.png	 K	 l	 r	 n.a.	 4.263824e-01
2	 3	 32	 unflanked	 bex	 8	 0.250000	 0.000000	 unflanked_bex_freq_8_amplitude_0.25_rep_4_b_H.png	 H	 b	 r	 n.a.	 7.697821e-01
2	 3	 33	 unflanked	 bex	 16	 1.500000	 0.000000	 unflanked_bex_freq_16_amplitude_1.5_rep_8_r_D.png	 D	 r	 r	 n.a.	 3.391842e-01
2	 3	 34	 unflanked	 bex	 32	 2.000000	 0.000000	 unflanked_bex_freq_32_amplitude_2_rep_6_r_K.png	 K	 r	 r	 n.a.	 4.046197e-01
2	 3	 35	 unflanked	 bex	 2	 2.500000	 0.000000	 unflanked_bex_freq_2_amplitude_2.5_rep_3_b_K.png	 K	 b	 b	 n.a.	 4.623389e-01
2	 3	 36	 unflanked	 bex	 6	 1.500000	 0.000000	 unflanked_bex_freq_6_amplitude_1.5_rep_4_b_N.png	 N	 b	 r	 n.a.	 3.483785e-01
2	 3	 37	 unflanked	 bex	 8	 1.000000	 0.000000	 unflanked_bex_freq_8_amplitude_1_rep_7_r_H.png	 H	 r	 r	 n.a.	 3.557776e-01
2	 3	 38	 unflanked	 bex	 6	 0.500000	 0.000000	 unflanked_bex_freq_6_amplitude_0.5_rep_1_r_K.png	 K	 r	 r	 n.a.	 3.977429e-01
2	 3	 39	 unflanked	 bex	 2	 2.500000	 0.000000	 unflanked_bex_freq_2_amplitude_2.5_rep_6_l_H.png	 H	 l	 l	 n.a.	 3.443012e-01
2	 3	 40	 unflanked	 bex	 8	 2.000000	 0.000000	 unflanked_bex_freq_8_amplitude_2_rep_5_b_N.png	 N	 b	 b	 n.a.	 3.530272e-01
2	 3	 41	 unflanked	 bex	 32	 2.000000	 0.000000	 unflanked_bex_freq_32_amplitude_2_rep_3_l_N.png	 N	 l	 t	 n.a.	 4.685693e-01
2	 3	 42	 unflanked	 bex	 6	 2.500000	 0.000000	 unflanked_bex_freq_6_amplitude_2.5_rep_6_b_D.png	 D	 b	 b	 n.a.	 2.739677e-01
2	 3	 43	 unflanked	 bex	 6	 2.500000	 0.000000	 unflanked_bex_freq_6_amplitude_2.5_rep_7_r_N.png	 N	 r	 r	 n.a.	 2.171978e-01
2	 3	 44	 unflanked	 bex	 4	 3.000000	 0.000000	 unflanked_bex_freq_4_amplitude_3_rep_6_b_N.png	 N	 b	 b	 n.a.	 2.957874e-01
2	 3	 45	 unflanked	 bex	 6	 1.500000	 0.000000	 unflanked_bex_freq_6_amplitude_1.5_rep_3_t_N.png	 N	 t	 r	 n.a.	 4.025659e-01
2	 3	 46	 unflanked	 bex	 6	 0.500000	 0.000000	 unflanked_bex_freq_6_amplitude_0.5_rep_5_t_N.png	 N	 t	 l	 n.a.	 3.553839e-01
2	 3	 47	 unflanked	 bex	 16	 1.500000	 0.000000	 unflanked_bex_freq_16_amplitude_1.5_rep_0_b_H.png	 H	 b	 r	 n.a.	 4.679885e-01
2	 3	 48	 unflanked	 bex	 2	 1.000000	 0.000000	 unflanked_bex_freq_2_amplitude_1_rep_6_t_N.png	 N	 t	 r	 n.a.	 3.080075e-01
2	 3	 49	 unflanked	 bex	 16	 1.000000	 0.000000	 unflanked_bex_freq_16_amplitude_1_rep_2_l_K.png	 K	 l	 b	 n.a.	 1.452567e-01
2	 3	 50	 unflanked	 bex	 6	 1.500000	 0.000000	 unflanked_bex_freq_6_amplitude_1.5_rep_7_b_K.png	 K	 b	 r	 n.a.	 3.605022e-01
2	 3	 51	 unflanked	 bex	 6	 1.500000	 0.000000	 unflanked_bex_freq_6_amplitude_1.5_rep_6_t_K.png	 K	 t	 t	 n.a.	 2.281436e-01
2	 3	 52	 unflanked	 bex	 16	 3.000000	 0.000000	 unflanked_bex_freq_16_amplitude_3_rep_1_r_K.png	 K	 r	 r	 n.a.	 2.141946e-01
2	 3	 53	 unflanked	 bex	 6	 1.500000	 0.000000	 unflanked_bex_freq_6_amplitude_1.5_rep_8_l_H.png	 H	 l	 l	 n.a.	 3.903524e-01
2	 3	 54	 unflanked	 bex	 2	 1.000000	 0.000000	 unflanked_bex_freq_2_amplitude_1_rep_3_l_K.png	 K	 l	 r	 n.a.	 2.487079e-01
2	 3	 55	 unflanked	 bex	 4	 2.500000	 0.000000	 unflanked_bex_freq_4_amplitude_2.5_rep_5_b_N.png	 N	 b	 b	 n.a.	 2.051585e-01
2	 3	 56	 unflanked	 bex	 8	 2.000000	 0.000000	 unflanked_bex_freq_8_amplitude_2_rep_6_r_K.png	 K	 r	 r	 n.a.	 2.783366e-01
2	 3	 57	 unflanked	 bex	 32	 2.000000	 0.000000	 unflanked_bex_freq_32_amplitude_2_rep_0_r_N.png	 N	 r	 r	 n.a.	 2.803424e-01
2	 3	 58	 unflanked	 bex	 8	 2.000000	 0.000000	 unflanked_bex_freq_8_amplitude_2_rep_3_t_H.png	 H	 t	 r	 n.a.	 3.778282e-01
2	 3	 59	 unflanked	 bex	 2	 0.500000	 0.000000	 unflanked_bex_freq_2_amplitude_0.5_rep_5_t_N.png	 N	 t	 r	 n.a.	 4.290648e-01
2	 3	 60	 unflanked	 bex	 32	 1.000000	 0.000000	 unflanked_bex_freq_32_amplitude_1_rep_6_b_K.png	 K	 b	 r	 n.a.	 6.065620e-01
2	 3	 61	 unflanked	 bex	 6	 0.250000	 0.000000	 unflanked_bex_freq_6_amplitude_0.25_rep_9_t_H.png	 H	 t	 b	 n.a.	 3.313130e-01
2	 3	 62	 unflanked	 bex	 8	 3.000000	 0.000000	 unflanked_bex_freq_8_amplitude_3_rep_2_l_D.png	 D	 l	 l	 n.a.	 3.059881e-01
2	 3	 63	 unflanked	 bex	 32	 3.000000	 0.000000	 unflanked_bex_freq_32_amplitude_3_rep_1_l_K.png	 K	 l	 l	 n.a.	 7.843598e-01
2	 3	 64	 unflanked	 bex	 8	 0.250000	 0.000000	 unflanked_bex_freq_8_amplitude_0.25_rep_8_l_H.png	 H	 l	 r	 n.a.	 5.005061e-01
2	 3	 65	 unflanked	 bex	 16	 0.250000	 0.000000	 unflanked_bex_freq_16_amplitude_0.25_rep_9_t_H.png	 H	 t	 b	 n.a.	 4.877504e-01
2	 3	 66	 unflanked	 bex	 8	 3.000000	 0.000000	 unflanked_bex_freq_8_amplitude_3_rep_4_b_N.png	 N	 b	 b	 n.a.	 3.073908e-01
2	 3	 67	 unflanked	 bex	 2	 0.250000	 0.000000	 unflanked_bex_freq_2_amplitude_0.25_rep_9_t_D.png	 D	 t	 l	 n.a.	 4.700640e-01
2	 3	 68	 unflanked	 bex	 16	 0.250000	 0.000000	 unflanked_bex_freq_16_amplitude_0.25_rep_2_l_K.png	 K	 l	 r	 n.a.	 3.609349e-01
2	 3	 69	 unflanked	 bex	 2	 0.500000	 0.000000	 unflanked_bex_freq_2_amplitude_0.5_rep_9_t_H.png	 H	 t	 t	 n.a.	 4.901857e-01
2	 3	 70	 unflanked	 bex	 32	 0.250000	 0.000000	 unflanked_bex_freq_32_amplitude_0.25_rep_1_r_K.png	 K	 r	 r	 n.a.	 3.576381e-01
2	 3	 71	 unflanked	 bex	 4	 1.500000	 0.000000	 unflanked_bex_freq_4_amplitude_1.5_rep_2_t_H.png	 H	 t	 r	 n.a.	 4.256842e-01
2	 3	 72	 unflanked	 bex	 32	 1.500000	 0.000000	 unflanked_bex_freq_32_amplitude_1.5_rep_6_l_D.png	 D	 l	 b	 n.a.	 3.407115e-01
2	 3	 73	 unflanked	 bex	 6	 1.000000	 0.000000	 unflanked_bex_freq_6_amplitude_1_rep_9_r_N.png	 N	 r	 r	 n.a.	 3.029892e-01
2	 3	 74	 unflanked	 bex	 32	 1.000000	 0.000000	 unflanked_bex_freq_32_amplitude_1_rep_0_t_D.png	 D	 t	 t	 n.a.	 3.806500e-01
2	 3	 75	 unflanked	 bex	 8	 1.000000	 0.000000	 unflanked_bex_freq_8_amplitude_1_rep_4_b_H.png	 H	 b	 b	 n.a.	 5.614349e-01
2	 3	 76	 unflanked	 bex	 16	 0.250000	 0.000000	 unflanked_bex_freq_16_amplitude_0.25_rep_6_l_N.png	 N	 l	 r	 n.a.	 2.669648e-01
2	 3	 77	 unflanked	 bex	 8	 1.500000	 0.000000	 unflanked_bex_freq_8_amplitude_1.5_rep_4_r_N.png	 N	 r	 r	 n.a.	 2.122535e-01
2	 3	 78	 unflanked	 bex	 2	 1.500000	 0.000000	 unflanked_bex_freq_2_amplitude_1.5_rep_5_l_H.png	 H	 l	 r	 n.a.	 2.693831e-01
2	 3	 79	 unflanked	 bex	 8	 0.250000	 0.000000	 unflanked_bex_freq_8_amplitude_0.25_rep_3_l_H.png	 H	 l	 r	 n.a.	 4.011073e-01
2	 3	 80	 unflanked	 bex	 6	 3.000000	 0.000000	 unflanked_bex_freq_6_amplitude_3_rep_9_l_K.png	 K	 l	 l	 n.a.	 2.374341e-01
2	 3	 81	 unflanked	 bex	 32	 3.000000	 0.000000	 unflanked_bex_freq_32_amplitude_3_rep_4_t_D.png	 D	 t	 t	 n.a.	 3.954017e-01
2	 3	 82	 unflanked	 bex	 8	 3.000000	 0.000000	 unflanked_bex_freq_8_amplitude_3_rep_0_b_D.png	 D	 b	 b	 n.a.	 2.378023e-01
2	 3	 83	 unflanked	 bex	 4	 2.000000	 0.000000	 unflanked_bex_freq_4_amplitude_2_rep_5_t_H.png	 H	 t	 b	 n.a.	 6.190853e-01
2	 3	 84	 unflanked	 bex	 32	 1.500000	 0.000000	 unflanked_bex_freq_32_amplitude_1.5_rep_2_l_D.png	 D	 l	 l	 n.a.	 4.315334e-01
2	 3	 85	 unflanked	 bex	 16	 1.500000	 0.000000	 unflanked_bex_freq_16_amplitude_1.5_rep_7_r_K.png	 K	 r	 r	 n.a.	 3.266250e-01
2	 3	 86	 unflanked	 bex	 2	 0.250000	 0.000000	 unflanked_bex_freq_2_amplitude_0.25_rep_8_l_N.png	 N	 l	 b	 n.a.	 3.497716e-01
2	 3	 87	 unflanked	 bex	 6	 2.500000	 0.000000	 unflanked_bex_freq_6_amplitude_2.5_rep_2_b_K.png	 K	 b	 r	 n.a.	 4.432522e-01
2	 3	 88	 unflanked	 bex	 4	 0.500000	 0.000000	 unflanked_bex_freq_4_amplitude_0.5_rep_4_l_K.png	 K	 l	 l	 n.a.	 2.732561e-01
2	 3	 89	 unflanked	 bex	 6	 0.250000	 0.000000	 unflanked_bex_freq_6_amplitude_0.25_rep_3_t_D.png	 D	 t	 t	 n.a.	 2.707516e-01
2	 3	 90	 unflanked	 bex	 6	 2.500000	 0.000000	 unflanked_bex_freq_6_amplitude_2.5_rep_1_b_H.png	 H	 b	 b	 n.a.	 4.604287e-01
2	 3	 91	 unflanked	 bex	 2	 1.500000	 0.000000	 unflanked_bex_freq_2_amplitude_1.5_rep_3_b_H.png	 H	 b	 t	 n.a.	 4.635567e-01
2	 3	 92	 unflanked	 bex	 8	 1.500000	 0.000000	 unflanked_bex_freq_8_amplitude_1.5_rep_0_r_K.png	 K	 r	 r	 n.a.	 3.439345e-01
2	 3	 93	 unflanked	 bex	 16	 0.250000	 0.000000	 unflanked_bex_freq_16_amplitude_0.25_rep_7_l_D.png	 D	 l	 r	 n.a.	 4.276862e-01
2	 3	 94	 unflanked	 bex	 32	 0.500000	 0.000000	 unflanked_bex_freq_32_amplitude_0.5_rep_5_l_D.png	 D	 l	 b	 n.a.	 2.404376e-01
2	 3	 95	 unflanked	 bex	 32	 1.500000	 0.000000	 unflanked_bex_freq_32_amplitude_1.5_rep_0_l_D.png	 D	 l	 r	 n.a.	 3.421436e-01
2	 3	 96	 unflanked	 bex	 32	 0.250000	 0.000000	 unflanked_bex_freq_32_amplitude_0.25_rep_9_t_K.png	 K	 t	 r	 n.a.	 3.380471e-01
2	 3	 97	 unflanked	 bex	 4	 2.500000	 0.000000	 unflanked_bex_freq_4_amplitude_2.5_rep_2_t_N.png	 N	 t	 t	 n.a.	 5.751173e-01
2	 3	 98	 unflanked	 bex	 32	 1.000000	 0.000000	 unflanked_bex_freq_32_amplitude_1_rep_3_l_H.png	 H	 l	 r	 n.a.	 3.839745e-01
2	 3	 99	 unflanked	 bex	 8	 2.500000	 0.000000	 unflanked_bex_freq_8_amplitude_2.5_rep_8_r_K.png	 K	 r	 r	 n.a.	 2.731131e-01
2	 3	 100	 unflanked	 bex	 8	 3.000000	 0.000000	 unflanked_bex_freq_8_amplitude_3_rep_3_l_H.png	 H	 l	 l	 n.a.	 3.344335e-01
2	 3	 101	 unflanked	 bex	 16	 2.000000	 0.000000	 unflanked_bex_freq_16_amplitude_2_rep_6_l_N.png	 N	 l	 r	 n.a.	 2.950016e-01
2	 3	 102	 unflanked	 bex	 4	 1.500000	 0.000000	 unflanked_bex_freq_4_amplitude_1.5_rep_6_t_N.png	 N	 t	 r	 n.a.	 3.686427e-01
2	 3	 103	 unflanked	 bex	 8	 1.000000	 0.000000	 unflanked_bex_freq_8_amplitude_1_rep_9_b_K.png	 K	 b	 r	 n.a.	 3.497333e-01
2	 3	 104	 unflanked	 bex	 4	 0.500000	 0.000000	 unflanked_bex_freq_4_amplitude_0.5_rep_6_b_H.png	 H	 b	 l	 n.a.	 6.119668e-01
2	 3	 105	 unflanked	 bex	 8	 2.500000	 0.000000	 unflanked_bex_freq_8_amplitude_2.5_rep_7_t_K.png	 K	 t	 t	 n.a.	 3.554402e-01
2	 3	 106	 unflanked	 bex	 4	 0.250000	 0.000000	 unflanked_bex_freq_4_amplitude_0.25_rep_1_b_K.png	 K	 b	 r	 n.a.	 3.486471e-01
2	 3	 107	 unflanked	 bex	 32	 0.500000	 0.000000	 unflanked_bex_freq_32_amplitude_0.5_rep_3_t_N.png	 N	 t	 r	 n.a.	 4.075048e-01
2	 3	 108	 unflanked	 bex	 6	 1.000000	 0.000000	 unflanked_bex_freq_6_amplitude_1_rep_6_r_N.png	 N	 r	 r	 n.a.	 3.261762e-01
2	 3	 109	 unflanked	 bex	 8	 1.500000	 0.000000	 unflanked_bex_freq_8_amplitude_1.5_rep_7_r_K.png	 K	 r	 l	 n.a.	 5.357486e-01
2	 3	 110	 unflanked	 bex	 6	 2.500000	 0.000000	 unflanked_bex_freq_6_amplitude_2.5_rep_8_r_N.png	 N	 r	 r	 n.a.	 2.780237e-01
2	 3	 111	 unflanked	 bex	 16	 1.000000	 0.000000	 unflanked_bex_freq_16_amplitude_1_rep_0_r_N.png	 N	 r	 r	 n.a.	 3.401994e-01
2	 3	 112	 unflanked	 bex	 2	 1.000000	 0.000000	 unflanked_bex_freq_2_amplitude_1_rep_4_b_D.png	 D	 b	 r	 n.a.	 4.265294e-01
2	 3	 113	 unflanked	 bex	 16	 3.000000	 0.000000	 unflanked_bex_freq_16_amplitude_3_rep_4_l_N.png	 N	 l	 l	 n.a.	 4.960816e-01
2	 3	 114	 unflanked	 bex	 16	 2.500000	 0.000000	 unflanked_bex_freq_16_amplitude_2.5_rep_8_t_K.png	 K	 t	 r	 n.a.	 4.000416e-01
2	 3	 115	 unflanked	 bex	 32	 0.500000	 0.000000	 unflanked_bex_freq_32_amplitude_0.5_rep_6_t_N.png	 N	 t	 l	 n.a.	 4.272621e-01
2	 3	 116	 unflanked	 bex	 4	 3.000000	 0.000000	 unflanked_bex_freq_4_amplitude_3_rep_5_r_K.png	 K	 r	 r	 n.a.	 3.055202e-01
2	 3	 117	 unflanked	 bex	 4	 2.500000	 0.000000	 unflanked_bex_freq_4_amplitude_2.5_rep_4_b_D.png	 D	 b	 b	 n.a.	 3.275513e-01
2	 3	 118	 unflanked	 bex	 16	 2.500000	 0.000000	 unflanked_bex_freq_16_amplitude_2.5_rep_0_t_H.png	 H	 t	 r	 n.a.	 5.308570e-01
2	 3	 119	 unflanked	 bex	 16	 2.500000	 0.000000	 unflanked_bex_freq_16_amplitude_2.5_rep_5_l_N.png	 N	 l	 l	 n.a.	 2.733464e-01
2	 3	 120	 unflanked	 bex	 6	 2.000000	 0.000000	 unflanked_bex_freq_6_amplitude_2_rep_9_l_K.png	 K	 l	 l	 n.a.	 3.276801e-01
2	 3	 121	 unflanked	 bex	 2	 2.000000	 0.000000	 unflanked_bex_freq_2_amplitude_2_rep_1_t_N.png	 N	 t	 l	 n.a.	 4.877335e-01
2	 3	 122	 unflanked	 bex	 6	 0.250000	 0.000000	 unflanked_bex_freq_6_amplitude_0.25_rep_4_b_N.png	 N	 b	 l	 n.a.	 6.211779e-01
2	 3	 123	 unflanked	 bex	 4	 3.000000	 0.000000	 unflanked_bex_freq_4_amplitude_3_rep_3_b_D.png	 D	 b	 b	 n.a.	 2.987740e-01
2	 3	 124	 unflanked	 bex	 2	 0.500000	 0.000000	 unflanked_bex_freq_2_amplitude_0.5_rep_7_r_K.png	 K	 r	 r	 n.a.	 5.927667e-01
2	 3	 125	 unflanked	 bex	 6	 3.000000	 0.000000	 unflanked_bex_freq_6_amplitude_3_rep_7_l_H.png	 H	 l	 l	 n.a.	 2.603695e-01
2	 3	 126	 unflanked	 bex	 2	 3.000000	 0.000000	 unflanked_bex_freq_2_amplitude_3_rep_9_l_H.png	 H	 l	 l	 n.a.	 4.603630e-01
2	 3	 127	 unflanked	 bex	 32	 3.000000	 0.000000	 unflanked_bex_freq_32_amplitude_3_rep_6_l_N.png	 N	 l	 l	 n.a.	 4.739386e-01
2	 3	 128	 unflanked	 bex	 6	 1.500000	 0.000000	 unflanked_bex_freq_6_amplitude_1.5_rep_1_b_N.png	 N	 b	 b	 n.a.	 2.728812e-01
2	 3	 129	 unflanked	 bex	 4	 0.250000	 0.000000	 unflanked_bex_freq_4_amplitude_0.25_rep_6_t_N.png	 N	 t	 r	 n.a.	 4.248536e-01
2	 3	 130	 unflanked	 bex	 2	 0.500000	 0.000000	 unflanked_bex_freq_2_amplitude_0.5_rep_8_t_D.png	 D	 t	 b	 n.a.	 6.828088e-01
2	 3	 131	 unflanked	 bex	 6	 0.250000	 0.000000	 unflanked_bex_freq_6_amplitude_0.25_rep_2_r_D.png	 D	 r	 r	 n.a.	 4.081546e-01
2	 3	 132	 unflanked	 bex	 4	 1.500000	 0.000000	 unflanked_bex_freq_4_amplitude_1.5_rep_3_b_K.png	 K	 b	 r	 n.a.	 4.447422e-01
2	 3	 133	 unflanked	 bex	 32	 3.000000	 0.000000	 unflanked_bex_freq_32_amplitude_3_rep_0_t_N.png	 N	 t	 r	 n.a.	 4.420364e-01
2	 3	 134	 unflanked	 bex	 16	 0.250000	 0.000000	 unflanked_bex_freq_16_amplitude_0.25_rep_8_t_N.png	 N	 t	 l	 n.a.	 4.013067e-01
2	 3	 135	 unflanked	 bex	 4	 2.500000	 0.000000	 unflanked_bex_freq_4_amplitude_2.5_rep_1_r_H.png	 H	 r	 r	 n.a.	 3.413417e-01
2	 3	 136	 unflanked	 bex	 16	 3.000000	 0.000000	 unflanked_bex_freq_16_amplitude_3_rep_8_b_N.png	 N	 b	 b	 n.a.	 6.750671e-01
2	 3	 137	 unflanked	 bex	 4	 2.500000	 0.000000	 unflanked_bex_freq_4_amplitude_2.5_rep_0_b_K.png	 K	 b	 b	 n.a.	 2.790319e-01
2	 3	 138	 unflanked	 bex	 8	 2.000000	 0.000000	 unflanked_bex_freq_8_amplitude_2_rep_7_r_N.png	 N	 r	 r	 n.a.	 2.414581e-01
2	 3	 139	 unflanked	 bex	 2	 0.250000	 0.000000	 unflanked_bex_freq_2_amplitude_0.25_rep_7_r_H.png	 H	 r	 r	 n.a.	 5.327246e-01
2	 3	 140	 unflanked	 bex	 32	 3.000000	 0.000000	 unflanked_bex_freq_32_amplitude_3_rep_5_r_N.png	 N	 r	 r	 n.a.	 3.421389e-01
2	 3	 141	 unflanked	 bex	 32	 1.500000	 0.000000	 unflanked_bex_freq_32_amplitude_1.5_rep_3_l_N.png	 N	 l	 l	 n.a.	 3.811484e-01
2	 3	 142	 unflanked	 bex	 4	 2.500000	 0.000000	 unflanked_bex_freq_4_amplitude_2.5_rep_6_l_K.png	 K	 l	 l	 n.a.	 2.851094e-01
2	 3	 143	 unflanked	 bex	 16	 3.000000	 0.000000	 unflanked_bex_freq_16_amplitude_3_rep_5_r_H.png	 H	 r	 r	 n.a.	 2.729992e-01
2	 3	 144	 unflanked	 bex	 4	 1.000000	 0.000000	 unflanked_bex_freq_4_amplitude_1_rep_6_l_N.png	 N	 l	 t	 n.a.	 5.517609e-01
2	 3	 145	 unflanked	 bex	 4	 1.000000	 0.000000	 unflanked_bex_freq_4_amplitude_1_rep_8_t_H.png	 H	 t	 b	 n.a.	 2.371899e-01
2	 3	 146	 unflanked	 bex	 4	 3.000000	 0.000000	 unflanked_bex_freq_4_amplitude_3_rep_1_r_K.png	 K	 r	 r	 n.a.	 2.598630e-01
2	 3	 147	 unflanked	 bex	 2	 0.500000	 0.000000	 unflanked_bex_freq_2_amplitude_0.5_rep_3_r_H.png	 H	 r	 b	 n.a.	 3.539810e-01
2	 3	 148	 unflanked	 bex	 32	 2.500000	 0.000000	 unflanked_bex_freq_32_amplitude_2.5_rep_2_t_N.png	 N	 t	 r	 n.a.	 3.637108e-01
2	 3	 149	 unflanked	 bex	 8	 1.000000	 0.000000	 unflanked_bex_freq_8_amplitude_1_rep_8_b_D.png	 D	 b	 l	 n.a.	 4.535873e-01
2	 3	 150	 unflanked	 bex	 8	 1.000000	 0.000000	 unflanked_bex_freq_8_amplitude_1_rep_6_r_H.png	 H	 r	 b	 n.a.	 2.683433e-01
2	 3	 151	 unflanked	 bex	 4	 1.000000	 0.000000	 unflanked_bex_freq_4_amplitude_1_rep_4_b_N.png	 N	 b	 t	 n.a.	 2.742115e-01
2	 3	 152	 unflanked	 bex	 2	 0.250000	 0.000000	 unflanked_bex_freq_2_amplitude_0.25_rep_5_l_K.png	 K	 l	 l	 n.a.	 4.201882e-01
2	 3	 153	 unflanked	 bex	 16	 1.000000	 0.000000	 unflanked_bex_freq_16_amplitude_1_rep_6_t_D.png	 D	 t	 b	 n.a.	 2.173045e-01
2	 3	 154	 unflanked	 bex	 16	 1.500000	 0.000000	 unflanked_bex_freq_16_amplitude_1.5_rep_9_t_H.png	 H	 t	 t	 n.a.	 2.196941e-01
2	 3	 155	 unflanked	 bex	 8	 2.000000	 0.000000	 unflanked_bex_freq_8_amplitude_2_rep_2_t_N.png	 N	 t	 r	 n.a.	 1.177878e-01
2	 3	 156	 unflanked	 bex	 32	 0.250000	 0.000000	 unflanked_bex_freq_32_amplitude_0.25_rep_8_b_K.png	 K	 b	 b	 n.a.	 4.466802e-01
2	 3	 157	 unflanked	 bex	 4	 3.000000	 0.000000	 unflanked_bex_freq_4_amplitude_3_rep_7_t_D.png	 D	 t	 t	 n.a.	 4.428030e-01
2	 3	 158	 unflanked	 bex	 2	 0.500000	 0.000000	 unflanked_bex_freq_2_amplitude_0.5_rep_1_r_H.png	 H	 r	 l	 n.a.	 5.207314e-01
2	 3	 159	 unflanked	 bex	 16	 0.500000	 0.000000	 unflanked_bex_freq_16_amplitude_0.5_rep_2_r_N.png	 N	 r	 r	 n.a.	 4.983775e-01
2	 3	 160	 unflanked	 bex	 4	 0.500000	 0.000000	 unflanked_bex_freq_4_amplitude_0.5_rep_5_r_K.png	 K	 r	 r	 n.a.	 3.740243e-01
2	 3	 161	 unflanked	 bex	 6	 3.000000	 0.000000	 unflanked_bex_freq_6_amplitude_3_rep_3_t_D.png	 D	 t	 t	 n.a.	 4.263066e-01
2	 3	 162	 unflanked	 bex	 32	 1.000000	 0.000000	 unflanked_bex_freq_32_amplitude_1_rep_1_l_K.png	 K	 l	 r	 n.a.	 3.147911e-01
2	 3	 163	 unflanked	 bex	 32	 3.000000	 0.000000	 unflanked_bex_freq_32_amplitude_3_rep_2_l_N.png	 N	 l	 l	 n.a.	 3.811156e-01
2	 3	 164	 unflanked	 bex	 16	 2.000000	 0.000000	 unflanked_bex_freq_16_amplitude_2_rep_4_b_D.png	 D	 b	 l	 n.a.	 4.295263e-01
2	 3	 165	 unflanked	 bex	 16	 0.500000	 0.000000	 unflanked_bex_freq_16_amplitude_0.5_rep_6_r_H.png	 H	 r	 l	 n.a.	 4.284199e-01
2	 3	 166	 unflanked	 bex	 2	 2.500000	 0.000000	 unflanked_bex_freq_2_amplitude_2.5_rep_5_b_K.png	 K	 b	 b	 n.a.	 3.128030e-01
2	 3	 167	 unflanked	 bex	 16	 2.500000	 0.000000	 unflanked_bex_freq_16_amplitude_2.5_rep_4_r_H.png	 H	 r	 r	 n.a.	 3.099667e-01
2	 3	 168	 unflanked	 bex	 2	 1.500000	 0.000000	 unflanked_bex_freq_2_amplitude_1.5_rep_2_r_K.png	 K	 r	 r	 n.a.	 3.602351e-01
2	 3	 169	 unflanked	 bex	 4	 1.000000	 0.000000	 unflanked_bex_freq_4_amplitude_1_rep_7_l_K.png	 K	 l	 t	 n.a.	 5.042904e-01
2	 3	 170	 unflanked	 bex	 6	 3.000000	 0.000000	 unflanked_bex_freq_6_amplitude_3_rep_0_b_K.png	 K	 b	 l	 n.a.	 4.499050e-01
2	 3	 171	 unflanked	 bex	 16	 1.500000	 0.000000	 unflanked_bex_freq_16_amplitude_1.5_rep_3_t_D.png	 D	 t	 r	 n.a.	 4.016816e-01
2	 3	 172	 unflanked	 bex	 2	 0.250000	 0.000000	 unflanked_bex_freq_2_amplitude_0.25_rep_1_l_N.png	 N	 l	 r	 n.a.	 4.486034e-01
2	 3	 173	 unflanked	 bex	 8	 1.500000	 0.000000	 unflanked_bex_freq_8_amplitude_1.5_rep_3_l_N.png	 N	 l	 l	 n.a.	 4.206883e-01
2	 3	 174	 unflanked	 bex	 16	 1.500000	 0.000000	 unflanked_bex_freq_16_amplitude_1.5_rep_2_b_K.png	 K	 b	 r	 n.a.	 4.825827e-01
2	 3	 175	 unflanked	 bex	 8	 0.500000	 0.000000	 unflanked_bex_freq_8_amplitude_0.5_rep_4_r_D.png	 D	 r	 r	 n.a.	 4.195742e-01
2	 3	 176	 unflanked	 bex	 4	 2.000000	 0.000000	 unflanked_bex_freq_4_amplitude_2_rep_0_r_K.png	 K	 r	 r	 n.a.	 3.805229e-01
2	 3	 177	 unflanked	 bex	 6	 0.500000	 0.000000	 unflanked_bex_freq_6_amplitude_0.5_rep_6_t_N.png	 N	 t	 t	 n.a.	 5.448442e-01
2	 3	 178	 unflanked	 bex	 6	 2.000000	 0.000000	 unflanked_bex_freq_6_amplitude_2_rep_0_r_H.png	 H	 r	 r	 n.a.	 2.629489e-01
2	 3	 179	 unflanked	 bex	 32	 2.500000	 0.000000	 unflanked_bex_freq_32_amplitude_2.5_rep_8_b_N.png	 N	 b	 l	 n.a.	 3.206430e-01
2	 3	 180	 unflanked	 bex	 4	 2.000000	 0.000000	 unflanked_bex_freq_4_amplitude_2_rep_7_l_N.png	 N	 l	 t	 n.a.	 4.725766e-01
2	 3	 181	 unflanked	 bex	 16	 2.500000	 0.000000	 unflanked_bex_freq_16_amplitude_2.5_rep_7_b_K.png	 K	 b	 r	 n.a.	 3.925815e-01
2	 3	 182	 unflanked	 bex	 4	 0.250000	 0.000000	 unflanked_bex_freq_4_amplitude_0.25_rep_9_l_H.png	 H	 l	 l	 n.a.	 4.989589e-01
2	 3	 183	 unflanked	 bex	 6	 2.500000	 0.000000	 unflanked_bex_freq_6_amplitude_2.5_rep_3_b_K.png	 K	 b	 b	 n.a.	 3.164412e-01
2	 3	 184	 unflanked	 bex	 4	 1.000000	 0.000000	 unflanked_bex_freq_4_amplitude_1_rep_9_t_K.png	 K	 t	 b	 n.a.	 6.927910e-01
2	 3	 185	 unflanked	 bex	 2	 2.000000	 0.000000	 unflanked_bex_freq_2_amplitude_2_rep_0_r_N.png	 N	 r	 t	 n.a.	 2.691529e-01
2	 3	 186	 unflanked	 bex	 32	 0.500000	 0.000000	 unflanked_bex_freq_32_amplitude_0.5_rep_1_b_K.png	 K	 b	 l	 n.a.	 3.605571e-01
2	 3	 187	 unflanked	 bex	 32	 1.500000	 0.000000	 unflanked_bex_freq_32_amplitude_1.5_rep_9_b_H.png	 H	 b	 t	 n.a.	 6.454798e-01
2	 3	 188	 unflanked	 bex	 6	 2.000000	 0.000000	 unflanked_bex_freq_6_amplitude_2_rep_5_l_N.png	 N	 l	 l	 n.a.	 3.791769e-01
2	 3	 189	 unflanked	 bex	 2	 3.000000	 0.000000	 unflanked_bex_freq_2_amplitude_3_rep_7_r_D.png	 D	 r	 r	 n.a.	 2.844343e-01
2	 3	 190	 unflanked	 bex	 32	 2.000000	 0.000000	 unflanked_bex_freq_32_amplitude_2_rep_2_t_H.png	 H	 t	 r	 n.a.	 4.101378e-01
2	 3	 191	 unflanked	 bex	 8	 2.500000	 0.000000	 unflanked_bex_freq_8_amplitude_2.5_rep_6_l_K.png	 K	 l	 l	 n.a.	 3.302991e-01
2	 3	 192	 unflanked	 bex	 6	 1.000000	 0.000000	 unflanked_bex_freq_6_amplitude_1_rep_7_t_H.png	 H	 t	 t	 n.a.	 5.317668e-01
2	 3	 193	 unflanked	 bex	 8	 2.500000	 0.000000	 unflanked_bex_freq_8_amplitude_2.5_rep_9_b_N.png	 N	 b	 b	 n.a.	 4.420819e-01
2	 3	 194	 unflanked	 bex	 8	 0.250000	 0.000000	 unflanked_bex_freq_8_amplitude_0.25_rep_1_l_D.png	 D	 l	 l	 n.a.	 4.426518e-01
2	 3	 195	 unflanked	 bex	 4	 1.500000	 0.000000	 unflanked_bex_freq_4_amplitude_1.5_rep_5_r_K.png	 K	 r	 r	 n.a.	 3.336800e-01
2	 3	 196	 unflanked	 bex	 8	 1.000000	 0.000000	 unflanked_bex_freq_8_amplitude_1_rep_2_l_K.png	 K	 l	 l	 n.a.	 4.736596e-01
2	 3	 197	 unflanked	 bex	 8	 0.500000	 0.000000	 unflanked_bex_freq_8_amplitude_0.5_rep_5_b_N.png	 N	 b	 r	 n.a.	 4.312408e-01
2	 3	 198	 unflanked	 bex	 16	 2.000000	 0.000000	 unflanked_bex_freq_16_amplitude_2_rep_3_l_K.png	 K	 l	 l	 n.a.	 5.070248e-01
2	 3	 199	 unflanked	 bex	 6	 3.000000	 0.000000	 unflanked_bex_freq_6_amplitude_3_rep_8_l_N.png	 N	 l	 l	 n.a.	 3.028627e-01
2	 3	 200	 unflanked	 bex	 2	 2.000000	 0.000000	 unflanked_bex_freq_2_amplitude_2_rep_9_b_N.png	 N	 b	 b	 n.a.	 2.800017e-01
2	 3	 201	 unflanked	 bex	 16	 2.000000	 0.000000	 unflanked_bex_freq_16_amplitude_2_rep_0_l_K.png	 K	 l	 l	 n.a.	 3.142962e-01
2	 3	 202	 unflanked	 bex	 4	 1.500000	 0.000000	 unflanked_bex_freq_4_amplitude_1.5_rep_0_l_H.png	 H	 l	 l	 n.a.	 3.593250e-01
2	 3	 203	 unflanked	 bex	 32	 2.500000	 0.000000	 unflanked_bex_freq_32_amplitude_2.5_rep_3_b_N.png	 N	 b	 r	 n.a.	 7.066633e-01
2	 3	 204	 unflanked	 bex	 16	 1.000000	 0.000000	 unflanked_bex_freq_16_amplitude_1_rep_3_r_K.png	 K	 r	 b	 n.a.	 8.172881e-01
2	 3	 205	 unflanked	 bex	 6	 2.000000	 0.000000	 unflanked_bex_freq_6_amplitude_2_rep_8_b_N.png	 N	 b	 b	 n.a.	 3.384943e-01
2	 3	 206	 unflanked	 bex	 2	 0.250000	 0.000000	 unflanked_bex_freq_2_amplitude_0.25_rep_4_r_N.png	 N	 r	 l	 n.a.	 5.650627e-01
2	 3	 207	 unflanked	 bex	 16	 0.500000	 0.000000	 unflanked_bex_freq_16_amplitude_0.5_rep_0_r_N.png	 N	 r	 b	 n.a.	 3.975823e-01
2	 3	 208	 unflanked	 bex	 2	 3.000000	 0.000000	 unflanked_bex_freq_2_amplitude_3_rep_5_r_K.png	 K	 r	 r	 n.a.	 3.436475e-01
2	 3	 209	 unflanked	 bex	 6	 0.500000	 0.000000	 unflanked_bex_freq_6_amplitude_0.5_rep_7_l_D.png	 D	 l	 l	 n.a.	 4.167203e-01
2	 3	 210	 unflanked	 bex	 2	 1.000000	 0.000000	 unflanked_bex_freq_2_amplitude_1_rep_7_t_K.png	 K	 t	 t	 n.a.	 5.641698e-01
2	 3	 211	 unflanked	 bex	 32	 3.000000	 0.000000	 unflanked_bex_freq_32_amplitude_3_rep_8_t_K.png	 K	 t	 t	 n.a.	 6.979241e-01
2	 3	 212	 unflanked	 bex	 32	 0.500000	 0.000000	 unflanked_bex_freq_32_amplitude_0.5_rep_4_b_H.png	 H	 b	 b	 n.a.	 3.813961e-01
2	 3	 213	 unflanked	 bex	 2	 1.500000	 0.000000	 unflanked_bex_freq_2_amplitude_1.5_rep_4_r_H.png	 H	 r	 r	 n.a.	 3.669100e-01
2	 3	 214	 unflanked	 bex	 8	 1.500000	 0.000000	 unflanked_bex_freq_8_amplitude_1.5_rep_2_l_H.png	 H	 l	 l	 n.a.	 2.689482e-01
2	 3	 215	 unflanked	 bex	 6	 0.500000	 0.000000	 unflanked_bex_freq_6_amplitude_0.5_rep_8_r_K.png	 K	 r	 r	 n.a.	 4.429938e-01
2	 3	 216	 unflanked	 bex	 16	 2.500000	 0.000000	 unflanked_bex_freq_16_amplitude_2.5_rep_1_t_N.png	 N	 t	 b	 n.a.	 6.050953e-01
2	 3	 217	 unflanked	 bex	 6	 1.000000	 0.000000	 unflanked_bex_freq_6_amplitude_1_rep_2_b_D.png	 D	 b	 b	 n.a.	 4.342972e-01
2	 3	 218	 unflanked	 bex	 4	 0.250000	 0.000000	 unflanked_bex_freq_4_amplitude_0.25_rep_8_r_N.png	 N	 r	 b	 n.a.	 6.848281e-01
2	 3	 219	 unflanked	 bex	 4	 2.000000	 0.000000	 unflanked_bex_freq_4_amplitude_2_rep_3_r_H.png	 H	 r	 r	 n.a.	 2.634441e-01
2	 3	 220	 unflanked	 bex	 8	 0.250000	 0.000000	 unflanked_bex_freq_8_amplitude_0.25_rep_2_t_D.png	 D	 t	 r	 n.a.	 3.247707e-01
2	 3	 221	 unflanked	 bex	 6	 1.000000	 0.000000	 unflanked_bex_freq_6_amplitude_1_rep_5_b_N.png	 N	 b	 t	 n.a.	 4.316627e-01
2	 3	 222	 unflanked	 bex	 32	 1.000000	 0.000000	 unflanked_bex_freq_32_amplitude_1_rep_9_r_K.png	 K	 r	 b	 n.a.	 3.557077e-01
2	 3	 223	 unflanked	 bex	 2	 2.500000	 0.000000	 unflanked_bex_freq_2_amplitude_2.5_rep_4_l_D.png	 D	 l	 l	 n.a.	 2.183713e-01
2	 3	 224	 unflanked	 bex	 6	 0.250000	 0.000000	 unflanked_bex_freq_6_amplitude_0.25_rep_6_r_K.png	 K	 r	 l	 n.a.	 5.908010e-01
2	 3	 225	 unflanked	 bex	 8	 1.000000	 0.000000	 unflanked_bex_freq_8_amplitude_1_rep_0_b_N.png	 N	 b	 t	 n.a.	 8.070634e-01
2	 3	 226	 unflanked	 bex	 4	 2.000000	 0.000000	 unflanked_bex_freq_4_amplitude_2_rep_2_b_N.png	 N	 b	 b	 n.a.	 3.730178e-01
2	 3	 227	 unflanked	 bex	 2	 3.000000	 0.000000	 unflanked_bex_freq_2_amplitude_3_rep_0_t_H.png	 H	 t	 t	 n.a.	 2.839171e-01
2	 3	 228	 unflanked	 bex	 4	 1.000000	 0.000000	 unflanked_bex_freq_4_amplitude_1_rep_3_l_K.png	 K	 l	 l	 n.a.	 4.637694e-01
2	 3	 229	 unflanked	 bex	 16	 2.000000	 0.000000	 unflanked_bex_freq_16_amplitude_2_rep_1_b_K.png	 K	 b	 b	 n.a.	 2.656962e-01
2	 3	 230	 unflanked	 bex	 6	 3.000000	 0.000000	 unflanked_bex_freq_6_amplitude_3_rep_5_b_K.png	 K	 b	 b	 n.a.	 2.719238e-01
2	 3	 231	 unflanked	 bex	 4	 1.500000	 0.000000	 unflanked_bex_freq_4_amplitude_1.5_rep_4_l_H.png	 H	 l	 b	 n.a.	 2.367987e-01
2	 3	 232	 unflanked	 bex	 2	 0.250000	 0.000000	 unflanked_bex_freq_2_amplitude_0.25_rep_0_l_K.png	 K	 l	 l	 n.a.	 7.046185e-01
2	 3	 233	 unflanked	 bex	 8	 2.500000	 0.000000	 unflanked_bex_freq_8_amplitude_2.5_rep_2_b_D.png	 D	 b	 b	 n.a.	 3.495100e-01
2	 3	 234	 unflanked	 bex	 2	 3.000000	 0.000000	 unflanked_bex_freq_2_amplitude_3_rep_2_r_K.png	 K	 r	 r	 n.a.	 2.631376e-01
2	 3	 235	 unflanked	 bex	 4	 1.500000	 0.000000	 unflanked_bex_freq_4_amplitude_1.5_rep_7_b_N.png	 N	 b	 b	 n.a.	 2.895306e-01
2	 3	 236	 unflanked	 bex	 16	 3.000000	 0.000000	 unflanked_bex_freq_16_amplitude_3_rep_3_b_N.png	 N	 b	 b	 n.a.	 3.568898e-01
2	 3	 237	 unflanked	 bex	 16	 3.000000	 0.000000	 unflanked_bex_freq_16_amplitude_3_rep_0_b_K.png	 K	 b	 b	 n.a.	 2.471649e-01
2	 3	 238	 unflanked	 bex	 32	 2.500000	 0.000000	 unflanked_bex_freq_32_amplitude_2.5_rep_9_l_K.png	 K	 l	 l	 n.a.	 3.687617e-01
2	 3	 239	 unflanked	 bex	 8	 2.000000	 0.000000	 unflanked_bex_freq_8_amplitude_2_rep_9_r_N.png	 N	 r	 r	 n.a.	 2.851937e-01
2	 3	 240	 unflanked	 bex	 8	 0.500000	 0.000000	 unflanked_bex_freq_8_amplitude_0.5_rep_6_l_D.png	 D	 l	 b	 n.a.	 4.040710e-01
2	 3	 241	 unflanked	 bex	 16	 0.500000	 0.000000	 unflanked_bex_freq_16_amplitude_0.5_rep_3_r_K.png	 K	 r	 r	 n.a.	 5.256482e-01
2	 3	 242	 unflanked	 bex	 8	 2.500000	 0.000000	 unflanked_bex_freq_8_amplitude_2.5_rep_0_t_N.png	 N	 t	 t	 n.a.	 4.073921e-01
2	 3	 243	 unflanked	 bex	 4	 2.000000	 0.000000	 unflanked_bex_freq_4_amplitude_2_rep_6_l_D.png	 D	 l	 l	 n.a.	 3.296437e-01
2	 3	 244	 unflanked	 bex	 2	 2.000000	 0.000000	 unflanked_bex_freq_2_amplitude_2_rep_7_b_H.png	 H	 b	 b	 n.a.	 6.060565e-01
2	 3	 245	 unflanked	 bex	 4	 3.000000	 0.000000	 unflanked_bex_freq_4_amplitude_3_rep_4_b_H.png	 H	 b	 b	 n.a.	 3.303849e-01
2	 3	 246	 unflanked	 bex	 32	 0.250000	 0.000000	 unflanked_bex_freq_32_amplitude_0.25_rep_5_t_K.png	 K	 t	 l	 n.a.	 4.252051e-01
2	 3	 247	 unflanked	 bex	 8	 3.000000	 0.000000	 unflanked_bex_freq_8_amplitude_3_rep_5_b_N.png	 N	 b	 b	 n.a.	 3.616993e-01
2	 3	 248	 unflanked	 bex	 16	 0.500000	 0.000000	 unflanked_bex_freq_16_amplitude_0.5_rep_4_l_K.png	 K	 l	 l	 n.a.	 6.765941e-01
2	 3	 249	 unflanked	 bex	 6	 1.500000	 0.000000	 unflanked_bex_freq_6_amplitude_1.5_rep_0_t_D.png	 D	 t	 t	 n.a.	 3.736537e-01
2	 3	 250	 unflanked	 bex	 8	 2.500000	 0.000000	 unflanked_bex_freq_8_amplitude_2.5_rep_5_b_D.png	 D	 b	 b	 n.a.	 3.552976e-01
2	 3	 251	 unflanked	 bex	 16	 1.000000	 0.000000	 unflanked_bex_freq_16_amplitude_1_rep_4_t_K.png	 K	 t	 t	 n.a.	 6.298608e-01
2	 3	 252	 unflanked	 bex	 2	 2.500000	 0.000000	 unflanked_bex_freq_2_amplitude_2.5_rep_8_b_N.png	 N	 b	 b	 n.a.	 2.799354e-01
2	 3	 253	 unflanked	 bex	 6	 2.500000	 0.000000	 unflanked_bex_freq_6_amplitude_2.5_rep_5_t_K.png	 K	 t	 t	 n.a.	 4.037971e-01
2	 3	 254	 unflanked	 bex	 8	 1.500000	 0.000000	 unflanked_bex_freq_8_amplitude_1.5_rep_8_l_D.png	 D	 l	 l	 n.a.	 4.042938e-01
2	 3	 255	 unflanked	 bex	 32	 0.250000	 0.000000	 unflanked_bex_freq_32_amplitude_0.25_rep_3_r_H.png	 H	 r	 l	 n.a.	 3.973722e-01
2	 3	 256	 unflanked	 bex	 8	 1.000000	 0.000000	 unflanked_bex_freq_8_amplitude_1_rep_3_r_N.png	 N	 r	 r	 n.a.	 5.406317e-01
2	 3	 257	 unflanked	 bex	 32	 1.000000	 0.000000	 unflanked_bex_freq_32_amplitude_1_rep_5_l_D.png	 D	 l	 r	 n.a.	 6.530344e-01
2	 3	 258	 unflanked	 bex	 6	 2.500000	 0.000000	 unflanked_bex_freq_6_amplitude_2.5_rep_4_t_K.png	 K	 t	 l	 n.a.	 5.284077e-01
2	 3	 259	 unflanked	 bex	 8	 1.500000	 0.000000	 unflanked_bex_freq_8_amplitude_1.5_rep_1_b_K.png	 K	 b	 b	 n.a.	 4.818043e-01
2	 3	 260	 unflanked	 bex	 32	 1.500000	 0.000000	 unflanked_bex_freq_32_amplitude_1.5_rep_4_t_D.png	 D	 t	 r	 n.a.	 6.300449e-01
2	 3	 261	 unflanked	 bex	 4	 1.000000	 0.000000	 unflanked_bex_freq_4_amplitude_1_rep_5_l_D.png	 D	 l	 t	 n.a.	 6.272216e-01
2	 3	 262	 unflanked	 bex	 32	 2.000000	 0.000000	 unflanked_bex_freq_32_amplitude_2_rep_5_b_K.png	 K	 b	 b	 n.a.	 3.833044e-01
2	 3	 263	 unflanked	 bex	 32	 0.500000	 0.000000	 unflanked_bex_freq_32_amplitude_0.5_rep_2_r_D.png	 D	 r	 l	 n.a.	 3.248039e-01
2	 3	 264	 unflanked	 bex	 8	 1.000000	 0.000000	 unflanked_bex_freq_8_amplitude_1_rep_5_b_K.png	 K	 b	 b	 n.a.	 2.244434e-01
2	 3	 265	 unflanked	 bex	 4	 0.500000	 0.000000	 unflanked_bex_freq_4_amplitude_0.5_rep_9_r_K.png	 K	 r	 t	 n.a.	 5.387602e-01
2	 3	 266	 unflanked	 bex	 32	 0.500000	 0.000000	 unflanked_bex_freq_32_amplitude_0.5_rep_7_l_N.png	 N	 l	 r	 n.a.	 2.443704e-01
2	 3	 267	 unflanked	 bex	 16	 0.250000	 0.000000	 unflanked_bex_freq_16_amplitude_0.25_rep_5_b_D.png	 D	 b	 t	 n.a.	 3.134453e-01
2	 3	 268	 unflanked	 bex	 32	 1.000000	 0.000000	 unflanked_bex_freq_32_amplitude_1_rep_8_l_H.png	 H	 l	 l	 n.a.	 1.960681e-01
2	 3	 269	 unflanked	 bex	 8	 0.500000	 0.000000	 unflanked_bex_freq_8_amplitude_0.5_rep_1_r_D.png	 D	 r	 b	 n.a.	 3.375836e-01
2	 3	 270	 unflanked	 bex	 8	 0.500000	 0.000000	 unflanked_bex_freq_8_amplitude_0.5_rep_8_r_K.png	 K	 r	 l	 n.a.	 4.030426e-01
2	 3	 271	 unflanked	 bex	 4	 2.000000	 0.000000	 unflanked_bex_freq_4_amplitude_2_rep_9_l_K.png	 K	 l	 l	 n.a.	 3.947457e-01
2	 3	 272	 unflanked	 bex	 2	 1.500000	 0.000000	 unflanked_bex_freq_2_amplitude_1.5_rep_7_b_N.png	 N	 b	 r	 n.a.	 4.744977e-01
2	 3	 273	 unflanked	 bex	 16	 2.000000	 0.000000	 unflanked_bex_freq_16_amplitude_2_rep_7_t_K.png	 K	 t	 t	 n.a.	 5.417895e-01
2	 3	 274	 unflanked	 bex	 6	 2.000000	 0.000000	 unflanked_bex_freq_6_amplitude_2_rep_1_b_D.png	 D	 b	 b	 n.a.	 4.492734e-01
2	 3	 275	 unflanked	 bex	 16	 2.000000	 0.000000	 unflanked_bex_freq_16_amplitude_2_rep_9_r_H.png	 H	 r	 r	 n.a.	 3.759708e-01
2	 3	 276	 unflanked	 bex	 6	 1.000000	 0.000000	 unflanked_bex_freq_6_amplitude_1_rep_0_r_H.png	 H	 r	 r	 n.a.	 4.467324e-01
2	 3	 277	 unflanked	 bex	 8	 0.500000	 0.000000	 unflanked_bex_freq_8_amplitude_0.5_rep_0_b_N.png	 N	 b	 b	 n.a.	 4.578862e-01
2	 3	 278	 unflanked	 bex	 6	 1.000000	 0.000000	 unflanked_bex_freq_6_amplitude_1_rep_8_r_K.png	 K	 r	 l	 n.a.	 4.326306e-01
2	 3	 279	 unflanked	 bex	 32	 2.500000	 0.000000	 unflanked_bex_freq_32_amplitude_2.5_rep_1_l_H.png	 H	 l	 r	 n.a.	 6.221927e-01
2	 3	 280	 unflanked	 bex	 2	 1.000000	 0.000000	 unflanked_bex_freq_2_amplitude_1_rep_5_l_D.png	 D	 l	 t	 n.a.	 7.024339e-01
2	 3	 281	 unflanked	 bex	 2	 2.000000	 0.000000	 unflanked_bex_freq_2_amplitude_2_rep_2_r_D.png	 D	 r	 t	 n.a.	 6.115379e-01
2	 3	 282	 unflanked	 bex	 4	 1.000000	 0.000000	 unflanked_bex_freq_4_amplitude_1_rep_2_r_H.png	 H	 r	 b	 n.a.	 5.465410e-01
2	 3	 283	 unflanked	 bex	 4	 2.500000	 0.000000	 unflanked_bex_freq_4_amplitude_2.5_rep_9_l_H.png	 H	 l	 l	 n.a.	 2.577335e-01
2	 3	 284	 unflanked	 bex	 32	 2.500000	 0.000000	 unflanked_bex_freq_32_amplitude_2.5_rep_7_l_H.png	 H	 l	 l	 n.a.	 5.738154e-01
2	 3	 285	 unflanked	 bex	 32	 0.250000	 0.000000	 unflanked_bex_freq_32_amplitude_0.25_rep_6_t_D.png	 D	 t	 b	 n.a.	 2.536004e-01
2	 3	 286	 unflanked	 bex	 2	 0.250000	 0.000000	 unflanked_bex_freq_2_amplitude_0.25_rep_3_l_H.png	 H	 l	 t	 n.a.	 2.961441e-01
2	 3	 287	 unflanked	 bex	 16	 1.000000	 0.000000	 unflanked_bex_freq_16_amplitude_1_rep_5_r_D.png	 D	 r	 b	 n.a.	 2.763484e-01
2	 3	 288	 unflanked	 bex	 4	 1.000000	 0.000000	 unflanked_bex_freq_4_amplitude_1_rep_0_b_H.png	 H	 b	 b	 n.a.	 4.497724e-01
2	 3	 289	 unflanked	 bex	 4	 2.500000	 0.000000	 unflanked_bex_freq_4_amplitude_2.5_rep_8_b_K.png	 K	 b	 b	 n.a.	 2.568352e-01
2	 3	 290	 unflanked	 bex	 2	 2.000000	 0.000000	 unflanked_bex_freq_2_amplitude_2_rep_6_b_N.png	 N	 b	 b	 n.a.	 2.704101e-01
2	 3	 291	 unflanked	 bex	 8	 3.000000	 0.000000	 unflanked_bex_freq_8_amplitude_3_rep_9_b_N.png	 N	 b	 b	 n.a.	 2.745951e-01
2	 3	 292	 unflanked	 bex	 6	 2.000000	 0.000000	 unflanked_bex_freq_6_amplitude_2_rep_6_l_N.png	 N	 l	 l	 n.a.	 2.644191e-01
2	 3	 293	 unflanked	 bex	 4	 0.500000	 0.000000	 unflanked_bex_freq_4_amplitude_0.5_rep_3_b_H.png	 H	 b	 b	 n.a.	 4.726743e-01
2	 3	 294	 unflanked	 bex	 8	 1.000000	 0.000000	 unflanked_bex_freq_8_amplitude_1_rep_1_l_H.png	 H	 l	 l	 n.a.	 4.942634e-01
2	 3	 295	 unflanked	 bex	 6	 2.000000	 0.000000	 unflanked_bex_freq_6_amplitude_2_rep_4_b_K.png	 K	 b	 b	 n.a.	 2.884245e-01
2	 3	 296	 unflanked	 bex	 16	 0.500000	 0.000000	 unflanked_bex_freq_16_amplitude_0.5_rep_5_l_K.png	 K	 l	 l	 n.a.	 4.532666e-01
2	 3	 297	 unflanked	 bex	 6	 0.500000	 0.000000	 unflanked_bex_freq_6_amplitude_0.5_rep_4_t_K.png	 K	 t	 l	 n.a.	 4.577521e-01
2	 3	 298	 unflanked	 bex	 2	 1.000000	 0.000000	 unflanked_bex_freq_2_amplitude_1_rep_8_l_D.png	 D	 l	 l	 n.a.	 4.826256e-01
2	 3	 299	 unflanked	 bex	 2	 2.500000	 0.000000	 unflanked_bex_freq_2_amplitude_2.5_rep_7_t_K.png	 K	 t	 l	 n.a.	 6.007928e-01
2	 3	 300	 unflanked	 bex	 16	 3.000000	 0.000000	 unflanked_bex_freq_16_amplitude_3_rep_6_l_K.png	 K	 l	 l	 n.a.	 3.727083e-01
2	 3	 301	 unflanked	 bex	 32	 2.500000	 0.000000	 unflanked_bex_freq_32_amplitude_2.5_rep_6_b_H.png	 H	 b	 l	 n.a.	 4.201092e-01
2	 3	 302	 unflanked	 bex	 16	 1.000000	 0.000000	 unflanked_bex_freq_16_amplitude_1_rep_7_l_H.png	 H	 l	 t	 n.a.	 6.659826e-01
2	 3	 303	 unflanked	 bex	 6	 0.500000	 0.000000	 unflanked_bex_freq_6_amplitude_0.5_rep_3_b_D.png	 D	 b	 l	 n.a.	 3.122798e-01
2	 3	 304	 unflanked	 bex	 2	 1.500000	 0.000000	 unflanked_bex_freq_2_amplitude_1.5_rep_0_b_K.png	 K	 b	 l	 n.a.	 5.876834e-01
2	 3	 305	 unflanked	 bex	 6	 2.500000	 0.000000	 unflanked_bex_freq_6_amplitude_2.5_rep_9_r_H.png	 H	 r	 r	 n.a.	 2.670783e-01
2	 3	 306	 unflanked	 bex	 4	 2.500000	 0.000000	 unflanked_bex_freq_4_amplitude_2.5_rep_7_t_K.png	 K	 t	 t	 n.a.	 4.415371e-01
2	 3	 307	 unflanked	 bex	 32	 0.250000	 0.000000	 unflanked_bex_freq_32_amplitude_0.25_rep_7_l_H.png	 H	 l	 t	 n.a.	 8.910684e-01
2	 3	 308	 unflanked	 bex	 6	 0.500000	 0.000000	 unflanked_bex_freq_6_amplitude_0.5_rep_2_t_K.png	 K	 t	 l	 n.a.	 5.916864e-01
2	 3	 309	 unflanked	 bex	 6	 3.000000	 0.000000	 unflanked_bex_freq_6_amplitude_3_rep_6_l_K.png	 K	 l	 l	 n.a.	 3.496101e-01
2	 3	 310	 unflanked	 bex	 6	 0.250000	 0.000000	 unflanked_bex_freq_6_amplitude_0.25_rep_7_r_H.png	 H	 r	 b	 n.a.	 7.803708e-01
2	 3	 311	 unflanked	 bex	 2	 1.500000	 0.000000	 unflanked_bex_freq_2_amplitude_1.5_rep_1_t_N.png	 N	 t	 r	 n.a.	 3.868084e-01
2	 3	 312	 unflanked	 bex	 16	 1.500000	 0.000000	 unflanked_bex_freq_16_amplitude_1.5_rep_5_t_H.png	 H	 t	 l	 n.a.	 5.689898e-01
2	 3	 313	 unflanked	 bex	 16	 0.500000	 0.000000	 unflanked_bex_freq_16_amplitude_0.5_rep_9_b_K.png	 K	 b	 b	 n.a.	 1.950559e-01
2	 3	 314	 unflanked	 bex	 4	 0.250000	 0.000000	 unflanked_bex_freq_4_amplitude_0.25_rep_3_l_D.png	 D	 l	 l	 n.a.	 6.817267e-01
2	 3	 315	 unflanked	 bex	 2	 2.000000	 0.000000	 unflanked_bex_freq_2_amplitude_2_rep_8_t_D.png	 D	 t	 t	 n.a.	 6.454780e-01
2	 3	 316	 unflanked	 bex	 32	 1.500000	 0.000000	 unflanked_bex_freq_32_amplitude_1.5_rep_7_t_H.png	 H	 t	 b	 n.a.	 4.956894e-01
2	 3	 317	 unflanked	 bex	 32	 2.500000	 0.000000	 unflanked_bex_freq_32_amplitude_2.5_rep_4_r_N.png	 N	 r	 r	 n.a.	 3.317266e-01
2	 3	 318	 unflanked	 bex	 2	 1.000000	 0.000000	 unflanked_bex_freq_2_amplitude_1_rep_0_r_D.png	 D	 r	 l	 n.a.	 4.029813e-01
2	 3	 319	 unflanked	 bex	 4	 2.000000	 0.000000	 unflanked_bex_freq_4_amplitude_2_rep_4_l_K.png	 K	 l	 l	 n.a.	 3.526096e-01
2	 3	 320	 unflanked	 bex	 32	 0.250000	 0.000000	 unflanked_bex_freq_32_amplitude_0.25_rep_2_l_D.png	 D	 l	 r	 n.a.	 5.360875e-01
2	 3	 321	 unflanked	 bex	 2	 2.000000	 0.000000	 unflanked_bex_freq_2_amplitude_2_rep_4_l_N.png	 N	 l	 b	 n.a.	 4.900325e-01
2	 3	 322	 unflanked	 bex	 8	 0.250000	 0.000000	 unflanked_bex_freq_8_amplitude_0.25_rep_7_r_N.png	 N	 r	 t	 n.a.	 4.671234e-01
2	 3	 323	 unflanked	 bex	 2	 0.500000	 0.000000	 unflanked_bex_freq_2_amplitude_0.5_rep_4_r_K.png	 K	 r	 b	 n.a.	 3.370105e-01
2	 3	 324	 unflanked	 bex	 8	 1.500000	 0.000000	 unflanked_bex_freq_8_amplitude_1.5_rep_9_t_H.png	 H	 t	 b	 n.a.	 3.477852e-01
2	 3	 325	 unflanked	 bex	 16	 0.250000	 0.000000	 unflanked_bex_freq_16_amplitude_0.25_rep_1_l_K.png	 K	 l	 l	 n.a.	 3.266179e-01
2	 3	 326	 unflanked	 bex	 2	 2.500000	 0.000000	 unflanked_bex_freq_2_amplitude_2.5_rep_9_r_N.png	 N	 r	 r	 n.a.	 2.715250e-01
2	 3	 327	 unflanked	 bex	 2	 3.000000	 0.000000	 unflanked_bex_freq_2_amplitude_3_rep_6_b_D.png	 D	 b	 b	 n.a.	 3.169056e-01
2	 3	 328	 unflanked	 bex	 6	 2.500000	 0.000000	 unflanked_bex_freq_6_amplitude_2.5_rep_0_t_K.png	 K	 t	 t	 n.a.	 3.606106e-01
2	 3	 329	 unflanked	 bex	 6	 2.000000	 0.000000	 unflanked_bex_freq_6_amplitude_2_rep_3_t_K.png	 K	 t	 t	 n.a.	 5.616968e-01
2	 3	 330	 unflanked	 bex	 2	 1.500000	 0.000000	 unflanked_bex_freq_2_amplitude_1.5_rep_9_t_H.png	 H	 t	 t	 n.a.	 4.339081e-01
2	 3	 331	 unflanked	 bex	 8	 2.000000	 0.000000	 unflanked_bex_freq_8_amplitude_2_rep_4_b_H.png	 H	 b	 b	 n.a.	 2.931574e-01
2	 3	 332	 unflanked	 bex	 16	 1.000000	 0.000000	 unflanked_bex_freq_16_amplitude_1_rep_1_l_K.png	 K	 l	 r	 n.a.	 4.227522e-01
2	 3	 333	 unflanked	 bex	 8	 3.000000	 0.000000	 unflanked_bex_freq_8_amplitude_3_rep_8_l_H.png	 H	 l	 l	 n.a.	 2.795548e-01
2	 3	 334	 unflanked	 bex	 4	 0.250000	 0.000000	 unflanked_bex_freq_4_amplitude_0.25_rep_7_b_N.png	 N	 b	 l	 n.a.	 3.995124e-01
2	 3	 335	 unflanked	 bex	 6	 1.000000	 0.000000	 unflanked_bex_freq_6_amplitude_1_rep_1_l_N.png	 N	 l	 l	 n.a.	 4.958553e-01
2	 3	 336	 unflanked	 bex	 8	 2.500000	 0.000000	 unflanked_bex_freq_8_amplitude_2.5_rep_4_l_K.png	 K	 l	 l	 n.a.	 3.008729e-01
2	 3	 337	 unflanked	 bex	 8	 3.000000	 0.000000	 unflanked_bex_freq_8_amplitude_3_rep_7_t_D.png	 D	 t	 t	 n.a.	 3.403077e-01
2	 3	 338	 unflanked	 bex	 32	 2.000000	 0.000000	 unflanked_bex_freq_32_amplitude_2_rep_1_r_K.png	 K	 r	 r	 n.a.	 3.039362e-01
2	 3	 339	 unflanked	 bex	 2	 3.000000	 0.000000	 unflanked_bex_freq_2_amplitude_3_rep_1_l_K.png	 K	 l	 l	 n.a.	 3.291055e-01
2	 3	 340	 unflanked	 bex	 2	 0.500000	 0.000000	 unflanked_bex_freq_2_amplitude_0.5_rep_0_l_N.png	 N	 l	 b	 n.a.	 3.988181e-01
2	 3	 341	 unflanked	 bex	 2	 1.500000	 0.000000	 unflanked_bex_freq_2_amplitude_1.5_rep_8_l_K.png	 K	 l	 l	 n.a.	 2.833500e-01
2	 3	 342	 unflanked	 bex	 4	 3.000000	 0.000000	 unflanked_bex_freq_4_amplitude_3_rep_8_l_N.png	 N	 l	 l	 n.a.	 2.494839e-01
2	 3	 343	 unflanked	 bex	 8	 0.250000	 0.000000	 unflanked_bex_freq_8_amplitude_0.25_rep_6_t_K.png	 K	 t	 b	 n.a.	 4.362856e-01
2	 3	 344	 unflanked	 bex	 4	 0.500000	 0.000000	 unflanked_bex_freq_4_amplitude_0.5_rep_0_r_D.png	 D	 r	 l	 n.a.	 4.769029e-01
2	 3	 345	 unflanked	 bex	 8	 3.000000	 0.000000	 unflanked_bex_freq_8_amplitude_3_rep_6_b_H.png	 H	 b	 b	 n.a.	 2.899401e-01
2	 3	 346	 unflanked	 bex	 32	 1.000000	 0.000000	 unflanked_bex_freq_32_amplitude_1_rep_7_l_K.png	 K	 l	 t	 n.a.	 5.424197e-01
2	 3	 347	 unflanked	 bex	 2	 3.000000	 0.000000	 unflanked_bex_freq_2_amplitude_3_rep_8_t_K.png	 K	 t	 t	 n.a.	 5.513998e-01
2	 3	 348	 unflanked	 bex	 6	 3.000000	 0.000000	 unflanked_bex_freq_6_amplitude_3_rep_1_t_H.png	 H	 t	 t	 n.a.	 4.053956e-01
2	 3	 349	 unflanked	 bex	 2	 2.000000	 0.000000	 unflanked_bex_freq_2_amplitude_2_rep_5_r_K.png	 K	 r	 r	 n.a.	 3.752160e-01
2	 3	 350	 unflanked	 bex	 4	 0.250000	 0.000000	 unflanked_bex_freq_4_amplitude_0.25_rep_4_l_N.png	 N	 l	 b	 n.a.	 4.125197e-01
2	 3	 351	 unflanked	 bex	 6	 2.000000	 0.000000	 unflanked_bex_freq_6_amplitude_2_rep_2_l_K.png	 K	 l	 l	 n.a.	 2.671206e-01
2	 3	 352	 unflanked	 bex	 4	 0.500000	 0.000000	 unflanked_bex_freq_4_amplitude_0.5_rep_7_r_D.png	 D	 r	 l	 n.a.	 4.945554e-01
2	 3	 353	 unflanked	 bex	 32	 3.000000	 0.000000	 unflanked_bex_freq_32_amplitude_3_rep_9_r_H.png	 H	 r	 b	 n.a.	 2.280385e-01
2	 3	 354	 unflanked	 bex	 6	 0.250000	 0.000000	 unflanked_bex_freq_6_amplitude_0.25_rep_8_l_H.png	 H	 l	 t	 n.a.	 4.799763e-01
2	 3	 355	 unflanked	 bex	 2	 1.500000	 0.000000	 unflanked_bex_freq_2_amplitude_1.5_rep_6_t_H.png	 H	 t	 t	 n.a.	 3.440007e-01
2	 3	 356	 unflanked	 bex	 8	 2.000000	 0.000000	 unflanked_bex_freq_8_amplitude_2_rep_8_t_K.png	 K	 t	 t	 n.a.	 4.595228e-01
2	 3	 357	 unflanked	 bex	 16	 3.000000	 0.000000	 unflanked_bex_freq_16_amplitude_3_rep_7_l_H.png	 H	 l	 l	 n.a.	 3.664925e-01
2	 3	 358	 unflanked	 bex	 8	 1.500000	 0.000000	 unflanked_bex_freq_8_amplitude_1.5_rep_5_t_K.png	 K	 t	 l	 n.a.	 4.468540e-01
2	 3	 359	 unflanked	 bex	 16	 0.500000	 0.000000	 unflanked_bex_freq_16_amplitude_0.5_rep_7_t_D.png	 D	 t	 l	 n.a.	 3.825436e-01
2	 3	 360	 unflanked	 bex	 16	 0.250000	 0.000000	 unflanked_bex_freq_16_amplitude_0.25_rep_0_l_H.png	 H	 l	 l	 n.a.	 4.792427e-01
2	 3	 361	 unflanked	 bex	 6	 0.500000	 0.000000	 unflanked_bex_freq_6_amplitude_0.5_rep_9_t_H.png	 H	 t	 t	 n.a.	 4.540211e-01
2	 3	 362	 unflanked	 bex	 4	 2.000000	 0.000000	 unflanked_bex_freq_4_amplitude_2_rep_8_b_K.png	 K	 b	 b	 n.a.	 2.867426e-01
2	 3	 363	 unflanked	 bex	 8	 1.500000	 0.000000	 unflanked_bex_freq_8_amplitude_1.5_rep_6_r_D.png	 D	 r	 r	 n.a.	 3.063767e-01
2	 3	 364	 unflanked	 bex	 32	 0.500000	 0.000000	 unflanked_bex_freq_32_amplitude_0.5_rep_9_t_N.png	 N	 t	 l	 n.a.	 3.281176e-01
2	 3	 365	 unflanked	 bex	 6	 0.250000	 0.000000	 unflanked_bex_freq_6_amplitude_0.25_rep_0_l_D.png	 D	 l	 b	 n.a.	 4.336881e-01
2	 3	 366	 unflanked	 bex	 16	 1.500000	 0.000000	 unflanked_bex_freq_16_amplitude_1.5_rep_1_b_H.png	 H	 b	 l	 n.a.	 4.273033e-01
2	 3	 367	 unflanked	 bex	 2	 2.500000	 0.000000	 unflanked_bex_freq_2_amplitude_2.5_rep_0_r_H.png	 H	 r	 r	 n.a.	 2.783282e-01
2	 3	 368	 unflanked	 bex	 2	 3.000000	 0.000000	 unflanked_bex_freq_2_amplitude_3_rep_4_r_H.png	 H	 r	 r	 n.a.	 3.449617e-01
2	 3	 369	 unflanked	 bex	 32	 2.000000	 0.000000	 unflanked_bex_freq_32_amplitude_2_rep_4_t_H.png	 H	 t	 r	 n.a.	 3.852047e-01
2	 3	 370	 unflanked	 bex	 4	 1.500000	 0.000000	 unflanked_bex_freq_4_amplitude_1.5_rep_8_t_K.png	 K	 t	 l	 n.a.	 3.470008e-01
2	 3	 371	 unflanked	 bex	 6	 1.500000	 0.000000	 unflanked_bex_freq_6_amplitude_1.5_rep_2_b_D.png	 D	 b	 b	 n.a.	 2.854421e-01
2	 3	 372	 unflanked	 bex	 16	 2.500000	 0.000000	 unflanked_bex_freq_16_amplitude_2.5_rep_3_l_N.png	 N	 l	 l	 n.a.	 3.156919e-01
2	 3	 373	 unflanked	 bex	 32	 1.500000	 0.000000	 unflanked_bex_freq_32_amplitude_1.5_rep_8_l_H.png	 H	 l	 l	 n.a.	 4.441759e-01
2	 3	 374	 unflanked	 bex	 16	 1.000000	 0.000000	 unflanked_bex_freq_16_amplitude_1_rep_8_t_H.png	 H	 t	 l	 n.a.	 5.499786e-01
2	 3	 375	 unflanked	 bex	 32	 1.000000	 0.000000	 unflanked_bex_freq_32_amplitude_1_rep_2_t_N.png	 N	 t	 b	 n.a.	 3.698908e-01
2	 3	 376	 unflanked	 bex	 32	 0.500000	 0.000000	 unflanked_bex_freq_32_amplitude_0.5_rep_8_l_D.png	 D	 l	 b	 n.a.	 5.802785e-01
2	 3	 377	 unflanked	 bex	 8	 0.250000	 0.000000	 unflanked_bex_freq_8_amplitude_0.25_rep_9_t_D.png	 D	 t	 l	 n.a.	 5.871870e-01
2	 3	 378	 unflanked	 bex	 4	 3.000000	 0.000000	 unflanked_bex_freq_4_amplitude_3_rep_2_t_D.png	 D	 t	 t	 n.a.	 3.413957e-01
2	 3	 379	 unflanked	 bex	 6	 0.500000	 0.000000	 unflanked_bex_freq_6_amplitude_0.5_rep_0_t_N.png	 N	 t	 r	 n.a.	 3.786944e-01
2	 3	 380	 unflanked	 bex	 32	 2.000000	 0.000000	 unflanked_bex_freq_32_amplitude_2_rep_7_b_H.png	 H	 b	 r	 n.a.	 5.624122e-01
2	 3	 381	 unflanked	 bex	 4	 1.500000	 0.000000	 unflanked_bex_freq_4_amplitude_1.5_rep_1_b_D.png	 D	 b	 b	 n.a.	 3.041343e-01
2	 3	 382	 unflanked	 bex	 2	 0.500000	 0.000000	 unflanked_bex_freq_2_amplitude_0.5_rep_6_l_H.png	 H	 l	 l	 n.a.	 5.319746e-01
2	 3	 383	 unflanked	 bex	 32	 0.250000	 0.000000	 unflanked_bex_freq_32_amplitude_0.25_rep_4_r_N.png	 N	 r	 l	 n.a.	 5.085951e-01
2	 3	 384	 unflanked	 bex	 8	 2.000000	 0.000000	 unflanked_bex_freq_8_amplitude_2_rep_1_l_D.png	 D	 l	 l	 n.a.	 3.007396e-01
2	 3	 385	 unflanked	 bex	 32	 3.000000	 0.000000	 unflanked_bex_freq_32_amplitude_3_rep_3_r_H.png	 H	 r	 l	 n.a.	 5.282646e-01
2	 3	 386	 unflanked	 bex	 16	 0.500000	 0.000000	 unflanked_bex_freq_16_amplitude_0.5_rep_8_l_D.png	 D	 l	 l	 n.a.	 4.793024e-01
2	 3	 387	 unflanked	 bex	 4	 0.250000	 0.000000	 unflanked_bex_freq_4_amplitude_0.25_rep_5_t_D.png	 D	 t	 l	 n.a.	 4.000998e-01
2	 3	 388	 unflanked	 bex	 8	 2.500000	 0.000000	 unflanked_bex_freq_8_amplitude_2.5_rep_1_t_H.png	 H	 t	 l	 n.a.	 4.546691e-01
2	 3	 389	 unflanked	 bex	 2	 1.000000	 0.000000	 unflanked_bex_freq_2_amplitude_1_rep_9_t_N.png	 N	 t	 l	 n.a.	 5.837092e-01
2	 3	 390	 unflanked	 bex	 4	 1.000000	 0.000000	 unflanked_bex_freq_4_amplitude_1_rep_1_r_H.png	 H	 r	 r	 n.a.	 4.522362e-01
2	 3	 391	 unflanked	 bex	 6	 3.000000	 0.000000	 unflanked_bex_freq_6_amplitude_3_rep_2_l_H.png	 H	 l	 l	 n.a.	 3.034185e-01
2	 3	 392	 unflanked	 bex	 8	 0.250000	 0.000000	 unflanked_bex_freq_8_amplitude_0.25_rep_0_t_D.png	 D	 t	 t	 n.a.	 5.974966e-01
2	 3	 393	 unflanked	 bex	 2	 3.000000	 0.000000	 unflanked_bex_freq_2_amplitude_3_rep_3_r_N.png	 N	 r	 r	 n.a.	 3.224957e-01
2	 3	 394	 unflanked	 bex	 2	 1.000000	 0.000000	 unflanked_bex_freq_2_amplitude_1_rep_2_r_K.png	 K	 r	 l	 n.a.	 7.608131e-01
2	 3	 395	 unflanked	 bex	 16	 2.500000	 0.000000	 unflanked_bex_freq_16_amplitude_2.5_rep_6_r_K.png	 K	 r	 b	 n.a.	 5.132370e-01
2	 3	 396	 unflanked	 bex	 16	 0.500000	 0.000000	 unflanked_bex_freq_16_amplitude_0.5_rep_1_r_H.png	 H	 r	 l	 n.a.	 5.470186e-01
2	 3	 397	 unflanked	 bex	 4	 0.500000	 0.000000	 unflanked_bex_freq_4_amplitude_0.5_rep_1_t_N.png	 N	 t	 t	 n.a.	 4.865139e-01
2	 3	 398	 unflanked	 bex	 4	 2.500000	 0.000000	 unflanked_bex_freq_4_amplitude_2.5_rep_3_r_H.png	 H	 r	 r	 n.a.	 2.607865e-01
2	 3	 399	 unflanked	 bex	 32	 0.250000	 0.000000	 unflanked_bex_freq_32_amplitude_0.25_rep_0_t_N.png	 N	 t	 l	 n.a.	 3.321251e-01
2	 3	 400	 unflanked	 bex	 8	 2.000000	 0.000000	 unflanked_bex_freq_8_amplitude_2_rep_0_r_N.png	 N	 r	 r	 n.a.	 3.035397e-01
2	 3	 401	 unflanked	 bex	 6	 1.000000	 0.000000	 unflanked_bex_freq_6_amplitude_1_rep_3_b_K.png	 K	 b	 b	 n.a.	 4.021799e-01
2	 3	 402	 unflanked	 bex	 6	 2.000000	 0.000000	 unflanked_bex_freq_6_amplitude_2_rep_7_t_N.png	 N	 t	 t	 n.a.	 3.039469e-01
2	 3	 403	 unflanked	 bex	 6	 1.500000	 0.000000	 unflanked_bex_freq_6_amplitude_1.5_rep_5_b_N.png	 N	 b	 l	 n.a.	 3.952903e-01
2	 3	 404	 unflanked	 bex	 16	 1.500000	 0.000000	 unflanked_bex_freq_16_amplitude_1.5_rep_4_l_D.png	 D	 l	 b	 n.a.	 4.140665e-01
2	 3	 405	 unflanked	 bex	 16	 3.000000	 0.000000	 unflanked_bex_freq_16_amplitude_3_rep_9_r_K.png	 K	 r	 r	 n.a.	 2.665094e-01
2	 3	 406	 unflanked	 bex	 16	 2.000000	 0.000000	 unflanked_bex_freq_16_amplitude_2_rep_8_b_D.png	 D	 b	 r	 n.a.	 4.707893e-01
2	 3	 407	 unflanked	 bex	 32	 1.000000	 0.000000	 unflanked_bex_freq_32_amplitude_1_rep_4_r_D.png	 D	 r	 r	 n.a.	 3.235951e-01
2	 3	 408	 unflanked	 bex	 2	 2.500000	 0.000000	 unflanked_bex_freq_2_amplitude_2.5_rep_2_b_D.png	 D	 b	 b	 n.a.	 3.448360e-01
2	 3	 409	 unflanked	 bex	 4	 0.250000	 0.000000	 unflanked_bex_freq_4_amplitude_0.25_rep_0_b_N.png	 N	 b	 r	 n.a.	 4.025987e-01
2	 3	 410	 unflanked	 bex	 16	 2.000000	 0.000000	 unflanked_bex_freq_16_amplitude_2_rep_2_t_H.png	 H	 t	 l	 n.a.	 5.282189e-01
2	 3	 411	 unflanked	 bex	 16	 1.500000	 0.000000	 unflanked_bex_freq_16_amplitude_1.5_rep_6_t_N.png	 N	 t	 b	 n.a.	 3.997760e-01
2	 3	 412	 unflanked	 bex	 4	 3.000000	 0.000000	 unflanked_bex_freq_4_amplitude_3_rep_9_t_H.png	 H	 t	 t	 n.a.	 3.217089e-01
2	 3	 413	 unflanked	 bex	 6	 0.250000	 0.000000	 unflanked_bex_freq_6_amplitude_0.25_rep_5_l_D.png	 D	 l	 b	 n.a.	 4.028011e-01
2	 3	 414	 unflanked	 bex	 32	 1.500000	 0.000000	 unflanked_bex_freq_32_amplitude_1.5_rep_5_t_H.png	 H	 t	 b	 n.a.	 3.076752e-01
2	 3	 415	 unflanked	 bex	 2	 2.000000	 0.000000	 unflanked_bex_freq_2_amplitude_2_rep_3_l_D.png	 D	 l	 l	 n.a.	 3.404316e-01
2	 3	 416	 unflanked	 bex	 32	 2.500000	 0.000000	 unflanked_bex_freq_32_amplitude_2.5_rep_0_t_K.png	 K	 t	 b	 n.a.	 4.010697e-01
2	 3	 417	 unflanked	 bex	 8	 0.500000	 0.000000	 unflanked_bex_freq_8_amplitude_0.5_rep_2_b_K.png	 K	 b	 l	 n.a.	 5.987313e-01
2	 3	 418	 unflanked	 bex	 16	 0.250000	 0.000000	 unflanked_bex_freq_16_amplitude_0.25_rep_3_r_N.png	 N	 r	 l	 n.a.	 5.365075e-01
2	 3	 419	 unflanked	 bex	 16	 2.000000	 0.000000	 unflanked_bex_freq_16_amplitude_2_rep_5_l_D.png	 D	 l	 l	 n.a.	 3.589649e-01
2	 3	 420	 unflanked	 bex	 4	 0.500000	 0.000000	 unflanked_bex_freq_4_amplitude_0.5_rep_8_r_H.png	 H	 r	 t	 n.a.	 4.213912e-01
