"","subject","session","trial","flanked","distortion","freq","amplitude","spacing","im_name","targ_letter","targ_pos","response","eyemovement","RT","experiment","correct"
"1","TW",1,1," flanked","RF",4,0.125,2," flanked_rf_freq_4_amplitude_0.125_rep_4_t_N_2.0.png"," N"," t"," b"," n.a.",0.3833919,"a",0
"2","TW",1,1," flanked","BPN",4,3,2," flanked_bex_freq_4_amplitude_3_rep_2_r_K_2.0.png"," K"," r"," b"," n.a.",0.7583771,"a",0
"3","TW",1,1," flanked","RF",4,0.2,2," flanked_rf_freq_4_amplitude_0.2_rep_6_b_H_2.0.png"," H"," b"," r"," n.a.",0.7104177,"a",0
"4","TW",1,1," flanked","BPN",4,1,2," flanked_bex_freq_4_amplitude_1_rep_2_r_H_2.0.png"," H"," r"," l"," n.a.",0.5455678,"a",0
"5","TW",1,1," flanked","RF",4,0.425,2," flanked_rf_freq_4_amplitude_0.425_rep_3_b_N_2.0.png"," N"," b"," r"," n.a.",0.4777692,"a",0
"6","TW",1,1," flanked","BPN",4,4,2," flanked_bex_freq_4_amplitude_4_rep_5_r_D_2.0.png"," D"," r"," l"," n.a.",0.5938812,"a",0
"7","TW",1,2," flanked","RF",4,0.425,2," flanked_rf_freq_4_amplitude_0.425_rep_5_b_D_2.0.png"," D"," b"," l"," n.a.",0.4186792,"a",0
"8","TW",1,2," flanked","BPN",4,1,2," flanked_bex_freq_4_amplitude_1_rep_3_r_N_2.0.png"," N"," r"," b"," n.a.",0.4823284,"a",0
"9","TW",1,2," flanked","RF",4,0.35,2," flanked_rf_freq_4_amplitude_0.35_rep_8_b_N_2.0.png"," N"," b"," r"," n.a.",0.8056844,"a",0
"10","TW",1,2," flanked","BPN",4,1,2," flanked_bex_freq_4_amplitude_1_rep_7_r_D_2.0.png"," D"," r"," b"," n.a.",0.3086529,"a",0
"11","TW",1,2," flanked","RF",4,0.425,2," flanked_rf_freq_4_amplitude_0.425_rep_8_r_D_2.0.png"," D"," r"," b"," n.a.",0.4256572,"a",0
"12","TW",1,2," flanked","BPN",4,4,2," flanked_bex_freq_4_amplitude_4_rep_0_l_H_2.0.png"," H"," l"," b"," n.a.",0.351798,"a",0
"13","TW",1,3," flanked","RF",4,0.35,2," flanked_rf_freq_4_amplitude_0.35_rep_9_r_H_2.0.png"," H"," r"," r"," n.a.",0.3825166,"a",1
"14","TW",1,3," flanked","BPN",4,5,2," flanked_bex_freq_4_amplitude_5_rep_2_l_D_2.0.png"," D"," l"," l"," n.a.",0.3406234,"a",1
"15","TW",1,3," flanked","RF",4,0.275,2," flanked_rf_freq_4_amplitude_0.275_rep_6_t_H_2.0.png"," H"," t"," l"," n.a.",0.5932234,"a",0
"16","TW",1,3," flanked","BPN",4,1,2," flanked_bex_freq_4_amplitude_1_rep_5_t_K_2.0.png"," K"," t"," l"," n.a.",0.4614742,"a",0
"17","TW",1,3," flanked","RF",4,0.425,2," flanked_rf_freq_4_amplitude_0.425_rep_6_t_N_2.0.png"," N"," t"," l"," n.a.",0.4871389,"a",0
"18","TW",1,3," flanked","BPN",4,1,2," flanked_bex_freq_4_amplitude_1_rep_2_b_H_2.0.png"," H"," b"," r"," n.a.",0.5715924,"a",0
"19","TW",1,4," flanked","RF",4,0.275,2," flanked_rf_freq_4_amplitude_0.275_rep_5_r_K_2.0.png"," K"," r"," r"," n.a.",0.4457286,"a",1
"20","TW",1,4," flanked","BPN",4,4,2," flanked_bex_freq_4_amplitude_4_rep_0_t_N_2.0.png"," N"," t"," b"," n.a.",0.3451006,"a",0
"21","TW",1,4," flanked","RF",4,0.35,2," flanked_rf_freq_4_amplitude_0.35_rep_7_r_H_2.0.png"," H"," r"," t"," n.a.",0.6291821,"a",0
"22","TW",1,4," flanked","BPN",4,3,2," flanked_bex_freq_4_amplitude_3_rep_3_r_K_2.0.png"," K"," r"," b"," n.a.",0.5980411,"a",0
"23","TW",1,4," flanked","RF",4,0.05,2," flanked_rf_freq_4_amplitude_0.05_rep_4_l_H_2.0.png"," H"," l"," t"," n.a.",0.2073693,"a",0
"24","TW",1,4," flanked","BPN",4,6,2," flanked_bex_freq_4_amplitude_6_rep_1_l_D_2.0.png"," D"," l"," t"," n.a.",0.4801995,"a",0
"25","TW",1,5," flanked","RF",4,0.5,2," flanked_rf_freq_4_amplitude_0.5_rep_6_t_D_2.0.png"," D"," t"," t"," n.a.",0.3290205,"a",1
"26","TW",1,5," flanked","BPN",4,3,2," flanked_bex_freq_4_amplitude_3_rep_0_t_K_2.0.png"," K"," t"," b"," n.a.",0.4373911,"a",0
"27","TW",1,5," flanked","RF",4,0.275,2," flanked_rf_freq_4_amplitude_0.275_rep_6_t_H_2.0.png"," H"," t"," b"," n.a.",0.2421202,"a",0
"28","TW",1,5," flanked","BPN",4,3,2," flanked_bex_freq_4_amplitude_3_rep_9_b_K_2.0.png"," K"," b"," r"," n.a.",0.8604999,"a",0
"29","TW",1,5," flanked","RF",4,0.125,2," flanked_rf_freq_4_amplitude_0.125_rep_0_r_H_2.0.png"," H"," r"," b"," n.a.",0.05815857,"a",0
"30","TW",1,5," flanked","BPN",4,6,2," flanked_bex_freq_4_amplitude_6_rep_5_t_D_2.0.png"," D"," t"," b"," n.a.",0.588755,"a",0
"31","TW",1,6," flanked","RF",4,0.125,2," flanked_rf_freq_4_amplitude_0.125_rep_5_r_D_2.0.png"," D"," r"," b"," n.a.",0.3914891,"a",0
"32","TW",1,6," flanked","BPN",4,1,2," flanked_bex_freq_4_amplitude_1_rep_8_r_N_2.0.png"," N"," r"," b"," n.a.",0.4352861,"a",0
"33","TW",1,6," flanked","RF",4,0.35,2," flanked_rf_freq_4_amplitude_0.35_rep_0_t_D_2.0.png"," D"," t"," l"," n.a.",0.4146373,"a",0
"34","TW",1,6," flanked","BPN",4,3,2," flanked_bex_freq_4_amplitude_3_rep_5_b_K_2.0.png"," K"," b"," t"," n.a.",0.5440807,"a",0
"35","TW",1,6," flanked","RF",4,0.05,2," flanked_rf_freq_4_amplitude_0.05_rep_6_t_K_2.0.png"," K"," t"," r"," n.a.",0.2506814,"a",0
"36","TW",1,6," flanked","BPN",4,7,2," flanked_bex_freq_4_amplitude_7_rep_3_b_N_2.0.png"," N"," b"," r"," n.a.",0.4431583,"a",0
"37","TW",1,7," flanked","RF",4,0.425,2," flanked_rf_freq_4_amplitude_0.425_rep_4_t_D_2.0.png"," D"," t"," l"," n.a.",0.2034631,"a",0
"38","TW",1,7," flanked","BPN",4,6,2," flanked_bex_freq_4_amplitude_6_rep_9_b_D_2.0.png"," D"," b"," b"," n.a.",0.3988067,"a",1
"39","TW",1,7," flanked","RF",4,0.125,2," flanked_rf_freq_4_amplitude_0.125_rep_0_r_D_2.0.png"," D"," r"," r"," n.a.",0.110838,"a",1
"40","TW",1,7," flanked","BPN",4,7,2," flanked_bex_freq_4_amplitude_7_rep_3_t_N_2.0.png"," N"," t"," b"," n.a.",1.001454,"a",0
"41","TW",1,7," flanked","RF",4,0.35,2," flanked_rf_freq_4_amplitude_0.35_rep_4_b_N_2.0.png"," N"," b"," t"," n.a.",0.4447826,"a",0
"42","TW",1,7," flanked","BPN",4,5,2," flanked_bex_freq_4_amplitude_5_rep_1_b_K_2.0.png"," K"," b"," l"," n.a.",0.5998494,"a",0
"43","TW",1,8," flanked","RF",4,0.5,2," flanked_rf_freq_4_amplitude_0.5_rep_8_t_H_2.0.png"," H"," t"," t"," n.a.",0.3807812,"a",1
"44","TW",1,8," flanked","BPN",4,6,2," flanked_bex_freq_4_amplitude_6_rep_8_l_D_2.0.png"," D"," l"," l"," n.a.",0.3493884,"a",1
"45","TW",1,8," flanked","RF",4,0.5,2," flanked_rf_freq_4_amplitude_0.5_rep_8_t_D_2.0.png"," D"," t"," t"," n.a.",0.6661767,"a",1
"46","TW",1,8," flanked","BPN",4,2,2," flanked_bex_freq_4_amplitude_2_rep_1_b_N_2.0.png"," N"," b"," r"," n.a.",0.5588934,"a",0
"47","TW",1,8," flanked","RF",4,0.125,2," flanked_rf_freq_4_amplitude_0.125_rep_2_t_D_2.0.png"," D"," t"," l"," n.a.",0.3852122,"a",0
"48","TW",1,8," flanked","BPN",4,1,2," flanked_bex_freq_4_amplitude_1_rep_5_t_N_2.0.png"," N"," t"," t"," n.a.",0.4458645,"a",1
"49","TW",1,9," flanked","RF",4,0.275,2," flanked_rf_freq_4_amplitude_0.275_rep_4_l_D_2.0.png"," D"," l"," l"," n.a.",0.3430264,"a",1
"50","TW",1,9," flanked","BPN",4,2,2," flanked_bex_freq_4_amplitude_2_rep_8_r_K_2.0.png"," K"," r"," t"," n.a.",0.2888883,"a",0
"51","TW",1,9," flanked","RF",4,0.275,2," flanked_rf_freq_4_amplitude_0.275_rep_0_r_N_2.0.png"," N"," r"," r"," n.a.",0.4481447,"a",1
"52","TW",1,9," flanked","BPN",4,4,2," flanked_bex_freq_4_amplitude_4_rep_1_t_K_2.0.png"," K"," t"," l"," n.a.",0.4301575,"a",0
"53","TW",1,9," flanked","RF",4,0.05,2," flanked_rf_freq_4_amplitude_0.05_rep_5_t_H_2.0.png"," H"," t"," b"," n.a.",0.1957455,"a",0
"54","TW",1,9," flanked","BPN",4,6,2," flanked_bex_freq_4_amplitude_6_rep_7_b_D_2.0.png"," D"," b"," b"," n.a.",0.7633,"a",1
"55","TW",1,10," flanked","RF",4,0.05,2," flanked_rf_freq_4_amplitude_0.05_rep_0_l_D_2.0.png"," D"," l"," l"," n.a.",0.6213682,"a",1
"56","TW",1,10," flanked","BPN",4,2,2," flanked_bex_freq_4_amplitude_2_rep_1_l_D_2.0.png"," D"," l"," r"," n.a.",0.2594119,"a",0
"57","TW",1,10," flanked","RF",4,0.125,2," flanked_rf_freq_4_amplitude_0.125_rep_4_l_K_2.0.png"," K"," l"," l"," n.a.",0.4547169,"a",1
"58","TW",1,10," flanked","BPN",4,3,2," flanked_bex_freq_4_amplitude_3_rep_4_l_D_2.0.png"," D"," l"," t"," n.a.",0.4096252,"a",0
"59","TW",1,10," flanked","RF",4,0.275,2," flanked_rf_freq_4_amplitude_0.275_rep_1_r_D_2.0.png"," D"," r"," t"," n.a.",0.5227854,"a",0
"60","TW",1,10," flanked","BPN",4,5,2," flanked_bex_freq_4_amplitude_5_rep_8_b_H_2.0.png"," H"," b"," r"," n.a.",0.7057872,"a",0
"61","TW",1,11," flanked","RF",4,0.05,2," flanked_rf_freq_4_amplitude_0.05_rep_8_l_N_2.0.png"," N"," l"," r"," n.a.",0.3355872,"a",0
"62","TW",1,11," flanked","BPN",4,3,2," flanked_bex_freq_4_amplitude_3_rep_6_t_N_2.0.png"," N"," t"," b"," n.a.",0.2574852,"a",0
"63","TW",1,11," flanked","RF",4,0.125,2," flanked_rf_freq_4_amplitude_0.125_rep_2_r_H_2.0.png"," H"," r"," t"," n.a.",0.4235251,"a",0
"64","TW",1,11," flanked","BPN",4,6,2," flanked_bex_freq_4_amplitude_6_rep_0_r_N_2.0.png"," N"," r"," r"," n.a.",0.3566703,"a",1
"65","TW",1,11," flanked","RF",4,0.35,2," flanked_rf_freq_4_amplitude_0.35_rep_0_t_H_2.0.png"," H"," t"," r"," n.a.",0.3143093,"a",0
"66","TW",1,11," flanked","BPN",4,3,2," flanked_bex_freq_4_amplitude_3_rep_3_l_N_2.0.png"," N"," l"," l"," n.a.",0.6388597,"a",1
"67","TW",1,12," flanked","RF",4,0.2,2," flanked_rf_freq_4_amplitude_0.2_rep_6_b_H_2.0.png"," H"," b"," b"," n.a.",0.2989545,"a",1
"68","TW",1,12," flanked","BPN",4,1,2," flanked_bex_freq_4_amplitude_1_rep_9_t_D_2.0.png"," D"," t"," l"," n.a.",0.1805471,"a",0
"69","TW",1,12," flanked","RF",4,0.05,2," flanked_rf_freq_4_amplitude_0.05_rep_9_l_D_2.0.png"," D"," l"," l"," n.a.",0.3904436,"a",1
"70","TW",1,12," flanked","BPN",4,6,2," flanked_bex_freq_4_amplitude_6_rep_9_b_D_2.0.png"," D"," b"," b"," n.a.",0.5377377,"a",1
"71","TW",1,12," flanked","RF",4,0.125,2," flanked_rf_freq_4_amplitude_0.125_rep_6_r_N_2.0.png"," N"," r"," b"," n.a.",0.3693138,"a",0
"72","TW",1,12," flanked","BPN",4,7,2," flanked_bex_freq_4_amplitude_7_rep_7_l_K_2.0.png"," K"," l"," b"," n.a.",0.6096962,"a",0
"73","TW",1,13," flanked","RF",4,0.05,2," flanked_rf_freq_4_amplitude_0.05_rep_1_t_D_2.0.png"," D"," t"," l"," n.a.",0.3525739,"a",0
"74","TW",1,13," flanked","BPN",4,1,2," flanked_bex_freq_4_amplitude_1_rep_0_b_D_2.0.png"," D"," b"," b"," n.a.",0.2666269,"a",1
"75","TW",1,13," flanked","RF",4,0.275,2," flanked_rf_freq_4_amplitude_0.275_rep_2_l_D_2.0.png"," D"," l"," r"," n.a.",0.4637678,"a",0
"76","TW",1,13," flanked","BPN",4,1,2," flanked_bex_freq_4_amplitude_1_rep_8_r_N_2.0.png"," N"," r"," l"," n.a.",0.4359844,"a",0
"77","TW",1,13," flanked","RF",4,0.2,2," flanked_rf_freq_4_amplitude_0.2_rep_6_b_D_2.0.png"," D"," b"," b"," n.a.",0.2679835,"a",1
"78","TW",1,13," flanked","BPN",4,6,2," flanked_bex_freq_4_amplitude_6_rep_8_t_D_2.0.png"," D"," t"," t"," n.a.",0.4482983,"a",1
"79","TW",1,14," flanked","RF",4,0.2,2," flanked_rf_freq_4_amplitude_0.2_rep_8_b_K_2.0.png"," K"," b"," b"," n.a.",0.3320349,"a",1
"80","TW",1,14," flanked","BPN",4,6,2," flanked_bex_freq_4_amplitude_6_rep_5_t_D_2.0.png"," D"," t"," t"," n.a.",0.393301,"a",1
"81","TW",1,14," flanked","RF",4,0.05,2," flanked_rf_freq_4_amplitude_0.05_rep_4_b_K_2.0.png"," K"," b"," b"," n.a.",0.3162719,"a",1
"82","TW",1,14," flanked","BPN",4,1,2," flanked_bex_freq_4_amplitude_1_rep_9_b_N_2.0.png"," N"," b"," l"," n.a.",0.4393443,"a",0
"83","TW",1,14," flanked","RF",4,0.425,2," flanked_rf_freq_4_amplitude_0.425_rep_0_b_H_2.0.png"," H"," b"," l"," n.a.",0.4151092,"a",0
"84","TW",1,14," flanked","BPN",4,7,2," flanked_bex_freq_4_amplitude_7_rep_2_r_H_2.0.png"," H"," r"," t"," n.a.",0.5432506,"a",0
"85","TW",1,15," flanked","RF",4,0.2,2," flanked_rf_freq_4_amplitude_0.2_rep_8_b_K_2.0.png"," K"," b"," b"," n.a.",0.5614448,"a",1
"86","TW",1,15," flanked","BPN",4,5,2," flanked_bex_freq_4_amplitude_5_rep_4_t_D_2.0.png"," D"," t"," l"," n.a.",0.3379724,"a",0
"87","TW",1,15," flanked","RF",4,0.35,2," flanked_rf_freq_4_amplitude_0.35_rep_7_r_H_2.0.png"," H"," r"," t"," n.a.",0.4773872,"a",0
"88","TW",1,15," flanked","BPN",4,4,2," flanked_bex_freq_4_amplitude_4_rep_5_t_N_2.0.png"," N"," t"," r"," n.a.",1.001316,"a",0
"89","TW",1,15," flanked","RF",4,0.05,2," flanked_rf_freq_4_amplitude_0.05_rep_2_b_K_2.0.png"," K"," b"," t"," n.a.",0.3136282,"a",0
"90","TW",1,15," flanked","BPN",4,5,2," flanked_bex_freq_4_amplitude_5_rep_0_r_N_2.0.png"," N"," r"," b"," n.a.",0.3304443,"a",0
"91","TW",1,16," flanked","RF",4,0.5,2," flanked_rf_freq_4_amplitude_0.5_rep_6_t_D_2.0.png"," D"," t"," t"," n.a.",0.5902587,"a",1
"92","TW",1,16," flanked","BPN",4,1,2," flanked_bex_freq_4_amplitude_1_rep_2_l_N_2.0.png"," N"," l"," r"," n.a.",0.191326,"a",0
"93","TW",1,16," flanked","RF",4,0.35,2," flanked_rf_freq_4_amplitude_0.35_rep_0_t_D_2.0.png"," D"," t"," r"," n.a.",0.3516176,"a",0
"94","TW",1,16," flanked","BPN",4,5,2," flanked_bex_freq_4_amplitude_5_rep_5_l_H_2.0.png"," H"," l"," t"," n.a.",0.4008704,"a",0
"95","TW",1,16," flanked","RF",4,0.425,2," flanked_rf_freq_4_amplitude_0.425_rep_4_l_D_2.0.png"," D"," l"," b"," n.a.",0.2247522,"a",0
"96","TW",1,16," flanked","BPN",4,6,2," flanked_bex_freq_4_amplitude_6_rep_2_l_D_2.0.png"," D"," l"," r"," n.a.",0.7851995,"a",0
"97","TW",1,17," flanked","RF",4,0.35,2," flanked_rf_freq_4_amplitude_0.35_rep_3_l_H_2.0.png"," H"," l"," l"," n.a.",0.3998863,"a",1
"98","TW",1,17," flanked","BPN",4,1,2," flanked_bex_freq_4_amplitude_1_rep_7_t_D_2.0.png"," D"," t"," b"," n.a.",0.3104689,"a",0
"99","TW",1,17," flanked","RF",4,0.125,2," flanked_rf_freq_4_amplitude_0.125_rep_8_r_H_2.0.png"," H"," r"," t"," n.a.",0.6221494,"a",0
"100","TW",1,17," flanked","BPN",4,7,2," flanked_bex_freq_4_amplitude_7_rep_9_t_K_2.0.png"," K"," t"," l"," n.a.",0.530993,"a",0
"101","TW",1,17," flanked","RF",4,0.125,2," flanked_rf_freq_4_amplitude_0.125_rep_5_t_K_2.0.png"," K"," t"," l"," n.a.",0.2776637,"a",0
"102","TW",1,17," flanked","BPN",4,1,2," flanked_bex_freq_4_amplitude_1_rep_9_r_N_2.0.png"," N"," r"," t"," n.a.",0.724526,"a",0
"103","TW",1,18," flanked","RF",4,0.35,2," flanked_rf_freq_4_amplitude_0.35_rep_6_b_N_2.0.png"," N"," b"," b"," n.a.",0.3623389,"a",1
"104","TW",1,18," flanked","BPN",4,3,2," flanked_bex_freq_4_amplitude_3_rep_7_b_H_2.0.png"," H"," b"," l"," n.a.",0.2867688,"a",0
"105","TW",1,18," flanked","RF",4,0.125,2," flanked_rf_freq_4_amplitude_0.125_rep_1_r_H_2.0.png"," H"," r"," b"," n.a.",0.4407175,"a",0
"106","TW",1,18," flanked","BPN",4,3,2," flanked_bex_freq_4_amplitude_3_rep_1_l_N_2.0.png"," N"," l"," b"," n.a.",0.1759131,"a",0
"107","TW",1,18," flanked","RF",4,0.35,2," flanked_rf_freq_4_amplitude_0.35_rep_4_b_N_2.0.png"," N"," b"," t"," n.a.",0.4394606,"a",0
"108","TW",1,18," flanked","BPN",4,3,2," flanked_bex_freq_4_amplitude_3_rep_1_l_K_2.0.png"," K"," l"," l"," n.a.",0.6529448,"a",1
"109","TW",1,19," flanked","RF",4,0.125,2," flanked_rf_freq_4_amplitude_0.125_rep_3_l_H_2.0.png"," H"," l"," l"," n.a.",0.4307193,"a",1
"110","TW",1,19," flanked","BPN",4,3,2," flanked_bex_freq_4_amplitude_3_rep_2_r_K_2.0.png"," K"," r"," t"," n.a.",0.1718791,"a",0
"111","TW",1,19," flanked","RF",4,0.35,2," flanked_rf_freq_4_amplitude_0.35_rep_8_b_N_2.0.png"," N"," b"," r"," n.a.",0.4367766,"a",0
"112","TW",1,19," flanked","BPN",4,1,2," flanked_bex_freq_4_amplitude_1_rep_3_t_K_2.0.png"," K"," t"," l"," n.a.",0.2991777,"a",0
"113","TW",1,19," flanked","RF",4,0.5,2," flanked_rf_freq_4_amplitude_0.5_rep_5_t_D_2.0.png"," D"," t"," b"," n.a.",0.40324,"a",0
"114","TW",1,19," flanked","BPN",4,5,2," flanked_bex_freq_4_amplitude_5_rep_9_r_H_2.0.png"," H"," r"," b"," n.a.",0.4470424,"a",0
"115","TW",1,20," flanked","RF",4,0.275,2," flanked_rf_freq_4_amplitude_0.275_rep_8_r_N_2.0.png"," N"," r"," r"," n.a.",0.3082417,"a",1
"116","TW",1,20," flanked","BPN",4,5,2," flanked_bex_freq_4_amplitude_5_rep_5_b_N_2.0.png"," N"," b"," b"," n.a.",0.1409863,"a",1
"117","TW",1,20," flanked","RF",4,0.2,2," flanked_rf_freq_4_amplitude_0.2_rep_7_b_N_2.0.png"," N"," b"," l"," n.a.",0.4966629,"a",0
"118","TW",1,20," flanked","BPN",4,1,2," flanked_bex_freq_4_amplitude_1_rep_0_r_D_2.0.png"," D"," r"," r"," n.a.",0.3667527,"a",1
"119","TW",1,20," flanked","RF",4,0.35,2," flanked_rf_freq_4_amplitude_0.35_rep_2_b_D_2.0.png"," D"," b"," l"," n.a.",0.5498972,"a",0
"120","TW",1,20," flanked","BPN",4,4,2," flanked_bex_freq_4_amplitude_4_rep_0_l_H_2.0.png"," H"," l"," l"," n.a.",0.8422862,"a",1
"121","TW",1,21," flanked","RF",4,0.5,2," flanked_rf_freq_4_amplitude_0.5_rep_4_r_H_2.0.png"," H"," r"," r"," n.a.",0.2737499,"a",1
"122","TW",1,21," flanked","BPN",4,4,2," flanked_bex_freq_4_amplitude_4_rep_4_b_D_2.0.png"," D"," b"," l"," n.a.",0.2373893,"a",0
"123","TW",1,21," flanked","RF",4,0.275,2," flanked_rf_freq_4_amplitude_0.275_rep_7_b_K_2.0.png"," K"," b"," b"," n.a.",0.2060373,"a",1
"124","TW",1,21," flanked","BPN",4,4,2," flanked_bex_freq_4_amplitude_4_rep_4_l_K_2.0.png"," K"," l"," t"," n.a.",0.4771407,"a",0
"125","TW",1,21," flanked","RF",4,0.5,2," flanked_rf_freq_4_amplitude_0.5_rep_9_l_K_2.0.png"," K"," l"," l"," n.a.",0.5220053,"a",1
"126","TW",1,21," flanked","BPN",4,1,2," flanked_bex_freq_4_amplitude_1_rep_0_b_H_2.0.png"," H"," b"," t"," n.a.",0.5709756,"a",0
"127","TW",1,22," flanked","RF",4,0.5,2," flanked_rf_freq_4_amplitude_0.5_rep_0_t_D_2.0.png"," D"," t"," t"," n.a.",0.3983416,"a",1
"128","TW",1,22," flanked","BPN",4,5,2," flanked_bex_freq_4_amplitude_5_rep_8_b_N_2.0.png"," N"," b"," r"," n.a.",0.2399725,"a",0
"129","TW",1,22," flanked","RF",4,0.2,2," flanked_rf_freq_4_amplitude_0.2_rep_8_l_K_2.0.png"," K"," l"," t"," n.a.",0.3828208,"a",0
"130","TW",1,22," flanked","BPN",4,7,2," flanked_bex_freq_4_amplitude_7_rep_3_t_N_2.0.png"," N"," t"," b"," n.a.",0.221991,"a",0
"131","TW",1,22," flanked","RF",4,0.125,2," flanked_rf_freq_4_amplitude_0.125_rep_1_l_K_2.0.png"," K"," l"," b"," n.a.",0.6476814,"a",0
"132","TW",1,22," flanked","BPN",4,3,2," flanked_bex_freq_4_amplitude_3_rep_1_l_K_2.0.png"," K"," l"," r"," n.a.",0.371978,"a",0
"133","TW",1,23," flanked","RF",4,0.2,2," flanked_rf_freq_4_amplitude_0.2_rep_8_b_K_2.0.png"," K"," b"," b"," n.a.",0.3962672,"a",1
"134","TW",1,23," flanked","BPN",4,3,2," flanked_bex_freq_4_amplitude_3_rep_5_t_N_2.0.png"," N"," t"," b"," n.a.",0.20366,"a",0
"135","TW",1,23," flanked","RF",4,0.5,2," flanked_rf_freq_4_amplitude_0.5_rep_3_l_H_2.0.png"," H"," l"," r"," n.a.",0.312627,"a",0
"136","TW",1,23," flanked","BPN",4,7,2," flanked_bex_freq_4_amplitude_7_rep_1_l_K_2.0.png"," K"," l"," l"," n.a.",0.4554488,"a",1
"137","TW",1,23," flanked","RF",4,0.05,2," flanked_rf_freq_4_amplitude_0.05_rep_0_l_N_2.0.png"," N"," l"," t"," n.a.",0.3278005,"a",0
"138","TW",1,23," flanked","BPN",4,5,2," flanked_bex_freq_4_amplitude_5_rep_2_t_D_2.0.png"," D"," t"," t"," n.a.",0.7264733,"a",1
"139","TW",1,24," flanked","RF",4,0.425,2," flanked_rf_freq_4_amplitude_0.425_rep_4_t_D_2.0.png"," D"," t"," t"," n.a.",0.3980048,"a",1
"140","TW",1,24," flanked","BPN",4,6,2," flanked_bex_freq_4_amplitude_6_rep_3_b_N_2.0.png"," N"," b"," b"," n.a.",0.3484226,"a",1
"141","TW",1,24," flanked","RF",4,0.275,2," flanked_rf_freq_4_amplitude_0.275_rep_0_r_N_2.0.png"," N"," r"," l"," n.a.",0.327432,"a",0
"142","TW",1,24," flanked","BPN",4,2,2," flanked_bex_freq_4_amplitude_2_rep_8_r_D_2.0.png"," D"," r"," b"," n.a.",0.2663313,"a",0
"143","TW",1,24," flanked","RF",4,0.275,2," flanked_rf_freq_4_amplitude_0.275_rep_4_l_H_2.0.png"," H"," l"," b"," n.a.",0.7772248,"a",0
"144","TW",1,24," flanked","BPN",4,5,2," flanked_bex_freq_4_amplitude_5_rep_4_r_N_2.0.png"," N"," r"," r"," n.a.",0.6626059,"a",1
"145","TW",1,25," flanked","RF",4,0.425,2," flanked_rf_freq_4_amplitude_0.425_rep_1_l_D_2.0.png"," D"," l"," l"," n.a.",0.2515551,"a",1
"146","TW",1,25," flanked","BPN",4,1,2," flanked_bex_freq_4_amplitude_1_rep_4_l_N_2.0.png"," N"," l"," b"," n.a.",0.2949402,"a",0
"147","TW",1,25," flanked","RF",4,0.5,2," flanked_rf_freq_4_amplitude_0.5_rep_7_r_H_2.0.png"," H"," r"," r"," n.a.",0.2895659,"a",1
"148","TW",1,25," flanked","BPN",4,2,2," flanked_bex_freq_4_amplitude_2_rep_7_t_N_2.0.png"," N"," t"," l"," n.a.",0.3298556,"a",0
"149","TW",1,25," flanked","RF",4,0.2,2," flanked_rf_freq_4_amplitude_0.2_rep_5_l_K_2.0.png"," K"," l"," t"," n.a.",0.3419315,"a",0
"150","TW",1,25," flanked","BPN",4,6,2," flanked_bex_freq_4_amplitude_6_rep_3_t_N_2.0.png"," N"," t"," l"," n.a.",0.6339189,"a",0
"151","TW",1,26," flanked","RF",4,0.5,2," flanked_rf_freq_4_amplitude_0.5_rep_8_t_H_2.0.png"," H"," t"," t"," n.a.",0.4549027,"a",1
"152","TW",1,26," flanked","BPN",4,4,2," flanked_bex_freq_4_amplitude_4_rep_0_t_N_2.0.png"," N"," t"," t"," n.a.",0.4237415,"a",1
"153","TW",1,26," flanked","RF",4,0.05,2," flanked_rf_freq_4_amplitude_0.05_rep_9_l_D_2.0.png"," D"," l"," b"," n.a.",0.4404156,"a",0
"154","TW",1,26," flanked","BPN",4,4,2," flanked_bex_freq_4_amplitude_4_rep_0_t_H_2.0.png"," H"," t"," t"," n.a.",0.2611141,"a",1
"155","TW",1,26," flanked","RF",4,0.35,2," flanked_rf_freq_4_amplitude_0.35_rep_9_t_D_2.0.png"," D"," t"," l"," n.a.",0.4267317,"a",0
"156","TW",1,26," flanked","BPN",4,2,2," flanked_bex_freq_4_amplitude_2_rep_9_b_N_2.0.png"," N"," b"," b"," n.a.",0.551476,"a",1
"157","TW",1,27," flanked","RF",4,0.35,2," flanked_rf_freq_4_amplitude_0.35_rep_6_b_N_2.0.png"," N"," b"," l"," n.a.",0.7524926,"a",0
"158","TW",1,27," flanked","BPN",4,7,2," flanked_bex_freq_4_amplitude_7_rep_9_r_D_2.0.png"," D"," r"," r"," n.a.",0.2994184,"a",1
"159","TW",1,27," flanked","RF",4,0.35,2," flanked_rf_freq_4_amplitude_0.35_rep_5_b_N_2.0.png"," N"," b"," r"," n.a.",0.4520643,"a",0
"160","TW",1,27," flanked","BPN",4,2,2," flanked_bex_freq_4_amplitude_2_rep_9_l_D_2.0.png"," D"," l"," b"," n.a.",0.4546859,"a",0
"161","TW",1,27," flanked","RF",4,0.5,2," flanked_rf_freq_4_amplitude_0.5_rep_6_b_H_2.0.png"," H"," b"," r"," n.a.",0.2968194,"a",0
"162","TW",1,27," flanked","BPN",4,7,2," flanked_bex_freq_4_amplitude_7_rep_8_l_K_2.0.png"," K"," l"," t"," n.a.",0.5551856,"a",0
"163","TW",1,28," flanked","RF",4,0.425,2," flanked_rf_freq_4_amplitude_0.425_rep_2_r_H_2.0.png"," H"," r"," r"," n.a.",0.319634,"a",1
"164","TW",1,28," flanked","BPN",4,7,2," flanked_bex_freq_4_amplitude_7_rep_7_r_N_2.0.png"," N"," r"," r"," n.a.",0.2709498,"a",1
"165","TW",1,28," flanked","RF",4,0.05,2," flanked_rf_freq_4_amplitude_0.05_rep_2_b_N_2.0.png"," N"," b"," t"," n.a.",0.3932776,"a",0
"166","TW",1,28," flanked","BPN",4,6,2," flanked_bex_freq_4_amplitude_6_rep_3_b_K_2.0.png"," K"," b"," r"," n.a.",0.2565029,"a",0
"167","TW",1,28," flanked","RF",4,0.35,2," flanked_rf_freq_4_amplitude_0.35_rep_0_t_H_2.0.png"," H"," t"," t"," n.a.",0.3672566,"a",1
"168","TW",1,28," flanked","BPN",4,2,2," flanked_bex_freq_4_amplitude_2_rep_6_b_D_2.0.png"," D"," b"," b"," n.a.",0.2970747,"a",1
"169","TW",1,29," flanked","RF",4,0.275,2," flanked_rf_freq_4_amplitude_0.275_rep_5_r_K_2.0.png"," K"," r"," l"," n.a.",0.6204907,"a",0
"170","TW",1,29," flanked","BPN",4,5,2," flanked_bex_freq_4_amplitude_5_rep_7_t_N_2.0.png"," N"," t"," t"," n.a.",0.3584092,"a",1
"171","TW",1,29," flanked","RF",4,0.05,2," flanked_rf_freq_4_amplitude_0.05_rep_4_b_K_2.0.png"," K"," b"," b"," n.a.",0.3312752,"a",1
"172","TW",1,29," flanked","BPN",4,5,2," flanked_bex_freq_4_amplitude_5_rep_4_t_D_2.0.png"," D"," t"," l"," n.a.",0.2729963,"a",0
"173","TW",1,29," flanked","RF",4,0.5,2," flanked_rf_freq_4_amplitude_0.5_rep_3_l_K_2.0.png"," K"," l"," l"," n.a.",0.5508762,"a",1
"174","TW",1,29," flanked","BPN",4,6,2," flanked_bex_freq_4_amplitude_6_rep_3_t_N_2.0.png"," N"," t"," l"," n.a.",0.4527417,"a",0
"175","TW",1,30," flanked","RF",4,0.125,2," flanked_rf_freq_4_amplitude_0.125_rep_7_b_D_2.0.png"," D"," b"," t"," n.a.",0.4580738,"a",0
"176","TW",1,30," flanked","BPN",4,7,2," flanked_bex_freq_4_amplitude_7_rep_2_t_N_2.0.png"," N"," t"," t"," n.a.",0.3358191,"a",1
"177","TW",1,30," flanked","RF",4,0.35,2," flanked_rf_freq_4_amplitude_0.35_rep_6_r_N_2.0.png"," N"," r"," r"," n.a.",0.4499058,"a",1
"178","TW",1,30," flanked","BPN",4,7,2," flanked_bex_freq_4_amplitude_7_rep_8_r_D_2.0.png"," D"," r"," b"," n.a.",0.2035818,"a",0
"179","TW",1,30," flanked","RF",4,0.35,2," flanked_rf_freq_4_amplitude_0.35_rep_2_b_D_2.0.png"," D"," b"," l"," n.a.",0.6581823,"a",0
"180","TW",1,30," flanked","BPN",4,2,2," flanked_bex_freq_4_amplitude_2_rep_6_b_D_2.0.png"," D"," b"," r"," n.a.",0.3856187,"a",0
"181","TW",1,31," flanked","RF",4,0.425,2," flanked_rf_freq_4_amplitude_0.425_rep_3_b_H_2.0.png"," H"," b"," b"," n.a.",0.324116,"a",1
"182","TW",1,31," flanked","BPN",4,7,2," flanked_bex_freq_4_amplitude_7_rep_3_l_N_2.0.png"," N"," l"," l"," n.a.",0.2821543,"a",1
"183","TW",1,31," flanked","RF",4,0.125,2," flanked_rf_freq_4_amplitude_0.125_rep_6_l_K_2.0.png"," K"," l"," l"," n.a.",0.4407281,"a",1
"184","TW",1,31," flanked","BPN",4,1,2," flanked_bex_freq_4_amplitude_1_rep_5_t_K_2.0.png"," K"," t"," r"," n.a.",0.1322968,"a",0
"185","TW",1,31," flanked","RF",4,0.5,2," flanked_rf_freq_4_amplitude_0.5_rep_0_b_D_2.0.png"," D"," b"," t"," n.a.",0.3365708,"a",0
"186","TW",1,31," flanked","BPN",4,4,2," flanked_bex_freq_4_amplitude_4_rep_2_l_H_2.0.png"," H"," l"," b"," n.a.",0.7074611,"a",0
"187","TW",1,32," flanked","RF",4,0.2,2," flanked_rf_freq_4_amplitude_0.2_rep_5_t_H_2.0.png"," H"," t"," t"," n.a.",0.3788451,"a",1
"188","TW",1,32," flanked","BPN",4,2,2," flanked_bex_freq_4_amplitude_2_rep_0_r_K_2.0.png"," K"," r"," t"," n.a.",0.4646463,"a",0
"189","TW",1,32," flanked","RF",4,0.275,2," flanked_rf_freq_4_amplitude_0.275_rep_1_r_H_2.0.png"," H"," r"," t"," n.a.",0.508795,"a",0
"190","TW",1,32," flanked","BPN",4,2,2," flanked_bex_freq_4_amplitude_2_rep_5_t_N_2.0.png"," N"," t"," t"," n.a.",0.3018813,"a",1
"191","TW",1,32," flanked","RF",4,0.05,2," flanked_rf_freq_4_amplitude_0.05_rep_2_b_K_2.0.png"," K"," b"," t"," n.a.",0.4856003,"a",0
"192","TW",1,32," flanked","BPN",4,3,2," flanked_bex_freq_4_amplitude_3_rep_7_b_N_2.0.png"," N"," b"," t"," n.a.",0.5307878,"a",0
"193","TW",1,33," flanked","RF",4,0.125,2," flanked_rf_freq_4_amplitude_0.125_rep_0_r_N_2.0.png"," N"," r"," b"," n.a.",0.3558679,"a",0
"194","TW",1,33," flanked","BPN",4,6,2," flanked_bex_freq_4_amplitude_6_rep_6_r_H_2.0.png"," H"," r"," t"," n.a.",0.4906465,"a",0
"195","TW",1,33," flanked","RF",4,0.275,2," flanked_rf_freq_4_amplitude_0.275_rep_9_l_D_2.0.png"," D"," l"," b"," n.a.",0.7236515,"a",0
"196","TW",1,33," flanked","BPN",4,6,2," flanked_bex_freq_4_amplitude_6_rep_9_b_D_2.0.png"," D"," b"," b"," n.a.",0.3252793,"a",1
"197","TW",1,33," flanked","RF",4,0.05,2," flanked_rf_freq_4_amplitude_0.05_rep_0_l_N_2.0.png"," N"," l"," b"," n.a.",0.2390489,"a",0
"198","TW",1,33," flanked","BPN",4,3,2," flanked_bex_freq_4_amplitude_3_rep_6_t_H_2.0.png"," H"," t"," l"," n.a.",0.5356582,"a",0
"199","TW",1,34," flanked","RF",4,0.125,2," flanked_rf_freq_4_amplitude_0.125_rep_4_t_N_2.0.png"," N"," t"," b"," n.a.",0.3774645,"a",0
"200","TW",1,34," flanked","BPN",4,6,2," flanked_bex_freq_4_amplitude_6_rep_3_b_N_2.0.png"," N"," b"," b"," n.a.",0.2275346,"a",1
"201","TW",1,34," flanked","RF",4,0.125,2," flanked_rf_freq_4_amplitude_0.125_rep_3_l_K_2.0.png"," K"," l"," l"," n.a.",0.3857044,"a",1
"202","TW",1,34," flanked","BPN",4,2,2," flanked_bex_freq_4_amplitude_2_rep_2_l_H_2.0.png"," H"," l"," l"," n.a.",0.2762828,"a",1
"203","TW",1,34," flanked","RF",4,0.275,2," flanked_rf_freq_4_amplitude_0.275_rep_7_t_H_2.0.png"," H"," t"," r"," n.a.",0.3248312,"a",0
"204","TW",1,34," flanked","BPN",4,4,2," flanked_bex_freq_4_amplitude_4_rep_7_t_K_2.0.png"," K"," t"," t"," n.a.",0.8409967,"a",1
"205","TW",1,35," flanked","RF",4,0.275,2," flanked_rf_freq_4_amplitude_0.275_rep_2_r_H_2.0.png"," H"," r"," t"," n.a.",0.4249837,"a",0
"206","TW",1,35," flanked","BPN",4,3,2," flanked_bex_freq_4_amplitude_3_rep_1_t_N_2.0.png"," N"," t"," b"," n.a.",0.3447251,"a",0
"207","TW",1,35," flanked","RF",4,0.425,2," flanked_rf_freq_4_amplitude_0.425_rep_7_l_D_2.0.png"," D"," l"," t"," n.a.",0.4819813,"a",0
"208","TW",1,35," flanked","BPN",4,7,2," flanked_bex_freq_4_amplitude_7_rep_1_l_K_2.0.png"," K"," l"," l"," n.a.",0.2717273,"a",1
"209","TW",1,35," flanked","RF",4,0.35,2," flanked_rf_freq_4_amplitude_0.35_rep_5_t_K_2.0.png"," K"," t"," b"," n.a.",0.6374304,"a",0
"210","TW",1,35," flanked","BPN",4,5,2," flanked_bex_freq_4_amplitude_5_rep_0_r_N_2.0.png"," N"," r"," r"," n.a.",0.4106666,"a",1
"211","TW",1,36," flanked","RF",4,0.425,2," flanked_rf_freq_4_amplitude_0.425_rep_2_r_H_2.0.png"," H"," r"," r"," n.a.",0.2226197,"a",1
"212","TW",1,36," flanked","BPN",4,6,2," flanked_bex_freq_4_amplitude_6_rep_9_b_D_2.0.png"," D"," b"," b"," n.a.",0.2957976,"a",1
"213","TW",1,36," flanked","RF",4,0.425,2," flanked_rf_freq_4_amplitude_0.425_rep_2_t_D_2.0.png"," D"," t"," t"," n.a.",0.4842781,"a",1
"214","TW",1,36," flanked","BPN",4,1,2," flanked_bex_freq_4_amplitude_1_rep_9_b_N_2.0.png"," N"," b"," b"," n.a.",0.3001654,"a",1
"215","TW",1,36," flanked","RF",4,0.125,2," flanked_rf_freq_4_amplitude_0.125_rep_8_l_K_2.0.png"," K"," l"," l"," n.a.",0.8408213,"a",1
"216","TW",1,36," flanked","BPN",4,3,2," flanked_bex_freq_4_amplitude_3_rep_4_t_N_2.0.png"," N"," t"," b"," n.a.",0.4708909,"a",0
"217","TW",1,37," flanked","RF",4,0.5,2," flanked_rf_freq_4_amplitude_0.5_rep_4_r_H_2.0.png"," H"," r"," r"," n.a.",0.2577829,"a",1
"218","TW",1,37," flanked","BPN",4,7,2," flanked_bex_freq_4_amplitude_7_rep_2_t_N_2.0.png"," N"," t"," t"," n.a.",0.3232163,"a",1
"219","TW",1,37," flanked","RF",4,0.35,2," flanked_rf_freq_4_amplitude_0.35_rep_1_t_K_2.0.png"," K"," t"," b"," n.a.",0.4213438,"a",0
"220","TW",1,37," flanked","BPN",4,3,2," flanked_bex_freq_4_amplitude_3_rep_1_l_N_2.0.png"," N"," l"," l"," n.a.",0.4028639,"a",1
"221","TW",1,37," flanked","RF",4,0.5,2," flanked_rf_freq_4_amplitude_0.5_rep_4_r_H_2.0.png"," H"," r"," l"," n.a.",0.5792556,"a",0
"222","TW",1,37," flanked","BPN",4,6,2," flanked_bex_freq_4_amplitude_6_rep_6_t_H_2.0.png"," H"," t"," t"," n.a.",0.4470483,"a",1
"223","TW",1,38," flanked","RF",4,0.35,2," flanked_rf_freq_4_amplitude_0.35_rep_4_r_H_2.0.png"," H"," r"," r"," n.a.",0.3169174,"a",1
"224","TW",1,38," flanked","BPN",4,2,2," flanked_bex_freq_4_amplitude_2_rep_4_r_D_2.0.png"," D"," r"," t"," n.a.",0.6483834,"a",0
"225","TW",1,38," flanked","RF",4,0.275,2," flanked_rf_freq_4_amplitude_0.275_rep_5_t_H_2.0.png"," H"," t"," l"," n.a.",0.4348277,"a",0
"226","TW",1,38," flanked","BPN",4,2,2," flanked_bex_freq_4_amplitude_2_rep_9_l_D_2.0.png"," D"," l"," t"," n.a.",0.4671715,"a",0
"227","TW",1,38," flanked","RF",4,0.05,2," flanked_rf_freq_4_amplitude_0.05_rep_4_l_H_2.0.png"," H"," l"," b"," n.a.",0.5036651,"a",0
"228","TW",1,38," flanked","BPN",4,4,2," flanked_bex_freq_4_amplitude_4_rep_2_l_H_2.0.png"," H"," l"," l"," n.a.",0.5164344,"a",1
"229","TW",1,39," flanked","RF",4,0.125,2," flanked_rf_freq_4_amplitude_0.125_rep_3_l_H_2.0.png"," H"," l"," b"," n.a.",0.3012739,"a",0
"230","TW",1,39," flanked","BPN",4,5,2," flanked_bex_freq_4_amplitude_5_rep_3_b_K_2.0.png"," K"," b"," b"," n.a.",0.2965264,"a",1
"231","TW",1,39," flanked","RF",4,0.125,2," flanked_rf_freq_4_amplitude_0.125_rep_1_r_H_2.0.png"," H"," r"," t"," n.a.",0.343322,"a",0
"232","TW",1,39," flanked","BPN",4,6,2," flanked_bex_freq_4_amplitude_6_rep_6_b_K_2.0.png"," K"," b"," b"," n.a.",0.3012999,"a",1
"233","TW",1,39," flanked","RF",4,0.5,2," flanked_rf_freq_4_amplitude_0.5_rep_2_b_D_2.0.png"," D"," b"," t"," n.a.",0.5079842,"a",0
"234","TW",1,39," flanked","BPN",4,1,2," flanked_bex_freq_4_amplitude_1_rep_4_t_H_2.0.png"," H"," t"," b"," n.a.",0.4799299,"a",0
"235","TW",1,40," flanked","RF",4,0.125,2," flanked_rf_freq_4_amplitude_0.125_rep_1_r_D_2.0.png"," D"," r"," r"," n.a.",0.3922993,"a",1
"236","TW",1,40," flanked","BPN",4,2,2," flanked_bex_freq_4_amplitude_2_rep_7_l_N_2.0.png"," N"," l"," b"," n.a.",0.3333883,"a",0
"237","TW",1,40," flanked","RF",4,0.35,2," flanked_rf_freq_4_amplitude_0.35_rep_9_r_H_2.0.png"," H"," r"," b"," n.a.",0.3076543,"a",0
"238","TW",1,40," flanked","BPN",4,2,2," flanked_bex_freq_4_amplitude_2_rep_0_t_D_2.0.png"," D"," t"," r"," n.a.",0.1531597,"a",0
"239","TW",1,40," flanked","RF",4,0.425,2," flanked_rf_freq_4_amplitude_0.425_rep_0_b_H_2.0.png"," H"," b"," l"," n.a.",0.4920051,"a",0
"240","TW",1,40," flanked","BPN",4,4,2," flanked_bex_freq_4_amplitude_4_rep_8_b_D_2.0.png"," D"," b"," b"," n.a.",0.6502614,"a",1
"241","TW",1,41," flanked","RF",4,0.275,2," flanked_rf_freq_4_amplitude_0.275_rep_6_b_K_2.0.png"," K"," b"," b"," n.a.",0.3544994,"a",1
"242","TW",1,41," flanked","BPN",4,2,2," flanked_bex_freq_4_amplitude_2_rep_5_b_D_2.0.png"," D"," b"," l"," n.a.",0.3592974,"a",0
"243","TW",1,41," flanked","RF",4,0.2,2," flanked_rf_freq_4_amplitude_0.2_rep_9_b_N_2.0.png"," N"," b"," l"," n.a.",0.3303076,"a",0
"244","TW",1,41," flanked","BPN",4,7,2," flanked_bex_freq_4_amplitude_7_rep_4_l_H_2.0.png"," H"," l"," l"," n.a.",0.2481743,"a",1
"245","TW",1,41," flanked","RF",4,0.275,2," flanked_rf_freq_4_amplitude_0.275_rep_4_l_H_2.0.png"," H"," l"," b"," n.a.",0.3413875,"a",0
"246","TW",1,41," flanked","BPN",4,6,2," flanked_bex_freq_4_amplitude_6_rep_8_t_D_2.0.png"," D"," t"," t"," n.a.",0.4970369,"a",1
"247","TW",1,42," flanked","RF",4,0.275,2," flanked_rf_freq_4_amplitude_0.275_rep_2_r_H_2.0.png"," H"," r"," r"," n.a.",0.3680742,"a",1
"248","TW",1,42," flanked","BPN",4,2,2," flanked_bex_freq_4_amplitude_2_rep_6_t_N_2.0.png"," N"," t"," t"," n.a.",0.3911441,"a",1
"249","TW",1,42," flanked","RF",4,0.275,2," flanked_rf_freq_4_amplitude_0.275_rep_3_l_K_2.0.png"," K"," l"," b"," n.a.",0.374747,"a",0
"250","TW",1,42," flanked","BPN",4,4,2," flanked_bex_freq_4_amplitude_4_rep_7_r_K_2.0.png"," K"," r"," t"," n.a.",0.4560289,"a",0
"251","TW",1,42," flanked","RF",4,0.275,2," flanked_rf_freq_4_amplitude_0.275_rep_1_r_D_2.0.png"," D"," r"," l"," n.a.",0.6016753,"a",0
"252","TW",1,42," flanked","BPN",4,3,2," flanked_bex_freq_4_amplitude_3_rep_9_t_K_2.0.png"," K"," t"," b"," n.a.",0.6806235,"a",0
"253","TW",1,43," flanked","RF",4,0.125,2," flanked_rf_freq_4_amplitude_0.125_rep_6_t_D_2.0.png"," D"," t"," b"," n.a.",0.343684,"a",0
"254","TW",1,43," flanked","BPN",4,4,2," flanked_bex_freq_4_amplitude_4_rep_8_l_N_2.0.png"," N"," l"," l"," n.a.",0.3908038,"a",1
"255","TW",1,43," flanked","RF",4,0.5,2," flanked_rf_freq_4_amplitude_0.5_rep_8_t_D_2.0.png"," D"," t"," t"," n.a.",0.3775846,"a",1
"256","TW",1,43," flanked","BPN",4,3,2," flanked_bex_freq_4_amplitude_3_rep_3_r_K_2.0.png"," K"," r"," b"," n.a.",0.2955562,"a",0
"257","TW",1,43," flanked","RF",4,0.275,2," flanked_rf_freq_4_amplitude_0.275_rep_6_t_K_2.0.png"," K"," t"," t"," n.a.",0.3902728,"a",1
"258","TW",1,43," flanked","BPN",4,2,2," flanked_bex_freq_4_amplitude_2_rep_5_t_H_2.0.png"," H"," t"," t"," n.a.",0.6336202,"a",1
"259","TW",1,44," flanked","RF",4,0.125,2," flanked_rf_freq_4_amplitude_0.125_rep_7_b_D_2.0.png"," D"," b"," l"," n.a.",0.4205955,"a",0
"260","TW",1,44," flanked","BPN",4,4,2," flanked_bex_freq_4_amplitude_4_rep_6_t_D_2.0.png"," D"," t"," t"," n.a.",0.3565796,"a",1
"261","TW",1,44," flanked","RF",4,0.125,2," flanked_rf_freq_4_amplitude_0.125_rep_8_r_H_2.0.png"," H"," r"," t"," n.a.",0.6577482,"a",0
"262","TW",1,44," flanked","BPN",4,2,2," flanked_bex_freq_4_amplitude_2_rep_1_b_N_2.0.png"," N"," b"," l"," n.a.",0.3057019,"a",0
"263","TW",1,44," flanked","RF",4,0.425,2," flanked_rf_freq_4_amplitude_0.425_rep_2_l_N_2.0.png"," N"," l"," l"," n.a.",0.4695017,"a",1
"264","TW",1,44," flanked","BPN",4,3,2," flanked_bex_freq_4_amplitude_3_rep_0_r_K_2.0.png"," K"," r"," r"," n.a.",0.4251064,"a",1
"265","TW",1,45," flanked","RF",4,0.125,2," flanked_rf_freq_4_amplitude_0.125_rep_8_t_H_2.0.png"," H"," t"," b"," n.a.",0.3274286,"a",0
"266","TW",1,45," flanked","BPN",4,5,2," flanked_bex_freq_4_amplitude_5_rep_7_t_N_2.0.png"," N"," t"," t"," n.a.",0.3143437,"a",1
"267","TW",1,45," flanked","RF",4,0.5,2," flanked_rf_freq_4_amplitude_0.5_rep_2_b_D_2.0.png"," D"," b"," l"," n.a.",0.4328274,"a",0
"268","TW",1,45," flanked","BPN",4,7,2," flanked_bex_freq_4_amplitude_7_rep_9_t_K_2.0.png"," K"," t"," b"," n.a.",0.2129981,"a",0
"269","TW",1,45," flanked","RF",4,0.425,2," flanked_rf_freq_4_amplitude_0.425_rep_9_l_K_2.0.png"," K"," l"," l"," n.a.",0.3862106,"a",1
"270","TW",1,45," flanked","BPN",4,6,2," flanked_bex_freq_4_amplitude_6_rep_6_t_H_2.0.png"," H"," t"," b"," n.a.",0.4791247,"a",0
"271","TW",1,46," flanked","RF",4,0.05,2," flanked_rf_freq_4_amplitude_0.05_rep_7_r_N_2.0.png"," N"," r"," l"," n.a.",0.5024179,"a",0
"272","TW",1,46," flanked","BPN",4,6,2," flanked_bex_freq_4_amplitude_6_rep_4_b_D_2.0.png"," D"," b"," b"," n.a.",0.2330835,"a",1
"273","TW",1,46," flanked","RF",4,0.2,2," flanked_rf_freq_4_amplitude_0.2_rep_1_r_K_2.0.png"," K"," r"," t"," n.a.",0.4123999,"a",0
"274","TW",1,46," flanked","BPN",4,6,2," flanked_bex_freq_4_amplitude_6_rep_3_b_K_2.0.png"," K"," b"," r"," n.a.",0.369059,"a",0
"275","TW",1,46," flanked","RF",4,0.275,2," flanked_rf_freq_4_amplitude_0.275_rep_2_l_K_2.0.png"," K"," l"," l"," n.a.",0.4079739,"a",1
"276","TW",1,46," flanked","BPN",4,7,2," flanked_bex_freq_4_amplitude_7_rep_8_l_K_2.0.png"," K"," l"," l"," n.a.",0.8713413,"a",1
"277","TW",1,47," flanked","RF",4,0.05,2," flanked_rf_freq_4_amplitude_0.05_rep_6_b_N_2.0.png"," N"," b"," b"," n.a.",0.35301,"a",1
"278","TW",1,47," flanked","BPN",4,3,2," flanked_bex_freq_4_amplitude_3_rep_3_t_K_2.0.png"," K"," t"," t"," n.a.",0.3722784,"a",1
"279","TW",1,47," flanked","RF",4,0.125,2," flanked_rf_freq_4_amplitude_0.125_rep_0_r_D_2.0.png"," D"," r"," b"," n.a.",0.3628571,"a",0
"280","TW",1,47," flanked","BPN",4,6,2," flanked_bex_freq_4_amplitude_6_rep_0_r_N_2.0.png"," N"," r"," l"," n.a.",0.549429,"a",0
"281","TW",1,47," flanked","RF",4,0.05,2," flanked_rf_freq_4_amplitude_0.05_rep_1_l_H_2.0.png"," H"," l"," b"," n.a.",0.5698005,"a",0
"282","TW",1,47," flanked","BPN",4,6,2," flanked_bex_freq_4_amplitude_6_rep_0_t_K_2.0.png"," K"," t"," t"," n.a.",0.6040048,"a",1
"283","TW",1,48," flanked","RF",4,0.2,2," flanked_rf_freq_4_amplitude_0.2_rep_2_l_K_2.0.png"," K"," l"," l"," n.a.",0.3780324,"a",1
"284","TW",1,48," flanked","BPN",4,2,2," flanked_bex_freq_4_amplitude_2_rep_1_l_D_2.0.png"," D"," l"," l"," n.a.",0.3488482,"a",1
"285","TW",1,48," flanked","RF",4,0.05,2," flanked_rf_freq_4_amplitude_0.05_rep_0_t_D_2.0.png"," D"," t"," l"," n.a.",0.3975949,"a",0
"286","TW",1,48," flanked","BPN",4,6,2," flanked_bex_freq_4_amplitude_6_rep_5_r_H_2.0.png"," H"," r"," b"," n.a.",0.3575472,"a",0
"287","TW",1,48," flanked","RF",4,0.125,2," flanked_rf_freq_4_amplitude_0.125_rep_5_t_K_2.0.png"," K"," t"," t"," n.a.",0.4223138,"a",1
"288","TW",1,48," flanked","BPN",4,5,2," flanked_bex_freq_4_amplitude_5_rep_8_b_H_2.0.png"," H"," b"," b"," n.a.",0.3672154,"a",1
"289","TW",1,49," flanked","RF",4,0.5,2," flanked_rf_freq_4_amplitude_0.5_rep_2_l_N_2.0.png"," N"," l"," l"," n.a.",0.3366716,"a",1
"290","TW",1,49," flanked","BPN",4,7,2," flanked_bex_freq_4_amplitude_7_rep_5_r_H_2.0.png"," H"," r"," r"," n.a.",0.2768254,"a",1
"291","TW",1,49," flanked","RF",4,0.5,2," flanked_rf_freq_4_amplitude_0.5_rep_6_t_N_2.0.png"," N"," t"," t"," n.a.",0.4874589,"a",1
"292","TW",1,49," flanked","BPN",4,1,2," flanked_bex_freq_4_amplitude_1_rep_1_t_D_2.0.png"," D"," t"," t"," n.a.",0.386685,"a",1
"293","TW",1,49," flanked","RF",4,0.425,2," flanked_rf_freq_4_amplitude_0.425_rep_7_r_H_2.0.png"," H"," r"," r"," n.a.",0.3557169,"a",1
"294","TW",1,49," flanked","BPN",4,4,2," flanked_bex_freq_4_amplitude_4_rep_8_b_D_2.0.png"," D"," b"," t"," n.a.",0.7318349,"a",0
"295","TW",1,50," flanked","RF",4,0.275,2," flanked_rf_freq_4_amplitude_0.275_rep_8_r_N_2.0.png"," N"," r"," r"," n.a.",0.4372812,"a",1
"296","TW",1,50," flanked","BPN",4,2,2," flanked_bex_freq_4_amplitude_2_rep_7_l_N_2.0.png"," N"," l"," b"," n.a.",0.2511163,"a",0
"297","TW",1,50," flanked","RF",4,0.35,2," flanked_rf_freq_4_amplitude_0.35_rep_3_b_H_2.0.png"," H"," b"," r"," n.a.",0.4524057,"a",0
"298","TW",1,50," flanked","BPN",4,1,2," flanked_bex_freq_4_amplitude_1_rep_8_r_N_2.0.png"," N"," r"," l"," n.a.",0.5028564,"a",0
"299","TW",1,50," flanked","RF",4,0.5,2," flanked_rf_freq_4_amplitude_0.5_rep_7_r_N_2.0.png"," N"," r"," r"," n.a.",0.3481242,"a",1
"300","TW",1,50," flanked","BPN",4,3,2," flanked_bex_freq_4_amplitude_3_rep_2_l_H_2.0.png"," H"," l"," t"," n.a.",0.6140052,"a",0
"301","TW",1,51," flanked","RF",4,0.275,2," flanked_rf_freq_4_amplitude_0.275_rep_1_l_N_2.0.png"," N"," l"," b"," n.a.",0.5892091,"a",0
"302","TW",1,51," flanked","BPN",4,3,2," flanked_bex_freq_4_amplitude_3_rep_6_t_N_2.0.png"," N"," t"," t"," n.a.",0.46318,"a",1
"303","TW",1,51," flanked","RF",4,0.2,2," flanked_rf_freq_4_amplitude_0.2_rep_2_t_H_2.0.png"," H"," t"," b"," n.a.",0.2356377,"a",0
"304","TW",1,51," flanked","BPN",4,6,2," flanked_bex_freq_4_amplitude_6_rep_1_b_H_2.0.png"," H"," b"," b"," n.a.",0.3974481,"a",1
"305","TW",1,51," flanked","RF",4,0.425,2," flanked_rf_freq_4_amplitude_0.425_rep_3_b_N_2.0.png"," N"," b"," t"," n.a.",0.3861389,"a",0
"306","TW",1,51," flanked","BPN",4,7,2," flanked_bex_freq_4_amplitude_7_rep_6_t_K_2.0.png"," K"," t"," t"," n.a.",0.5842118,"a",1
"307","TW",1,52," flanked","RF",4,0.5,2," flanked_rf_freq_4_amplitude_0.5_rep_2_l_N_2.0.png"," N"," l"," l"," n.a.",0.4260344,"a",1
"308","TW",1,52," flanked","BPN",4,6,2," flanked_bex_freq_4_amplitude_6_rep_4_b_D_2.0.png"," D"," b"," b"," n.a.",0.3418145,"a",1
"309","TW",1,52," flanked","RF",4,0.2,2," flanked_rf_freq_4_amplitude_0.2_rep_2_t_H_2.0.png"," H"," t"," t"," n.a.",0.3258813,"a",1
"310","TW",1,52," flanked","BPN",4,3,2," flanked_bex_freq_4_amplitude_3_rep_0_b_N_2.0.png"," N"," b"," r"," n.a.",0.3519491,"a",0
"311","TW",1,52," flanked","RF",4,0.125,2," flanked_rf_freq_4_amplitude_0.125_rep_7_l_N_2.0.png"," N"," l"," b"," n.a.",0.3357975,"a",0
"312","TW",1,52," flanked","BPN",4,7,2," flanked_bex_freq_4_amplitude_7_rep_0_t_D_2.0.png"," D"," t"," t"," n.a.",0.4523002,"a",1
"313","TW",1,53," flanked","RF",4,0.425,2," flanked_rf_freq_4_amplitude_0.425_rep_7_b_N_2.0.png"," N"," b"," b"," n.a.",0.5900085,"a",1
"314","TW",1,53," flanked","BPN",4,1,2," flanked_bex_freq_4_amplitude_1_rep_2_l_N_2.0.png"," N"," l"," b"," n.a.",0.3265969,"a",0
"315","TW",1,53," flanked","RF",4,0.125,2," flanked_rf_freq_4_amplitude_0.125_rep_4_l_K_2.0.png"," K"," l"," t"," n.a.",0.39762,"a",0
"316","TW",1,53," flanked","BPN",4,1,2," flanked_bex_freq_4_amplitude_1_rep_3_t_K_2.0.png"," K"," t"," t"," n.a.",0.3837387,"a",1
"317","TW",1,53," flanked","RF",4,0.35,2," flanked_rf_freq_4_amplitude_0.35_rep_7_r_K_2.0.png"," K"," r"," r"," n.a.",0.3660895,"a",1
"318","TW",1,53," flanked","BPN",4,3,2," flanked_bex_freq_4_amplitude_3_rep_3_l_N_2.0.png"," N"," l"," b"," n.a.",0.423281,"a",0
"319","TW",1,54," flanked","RF",4,0.35,2," flanked_rf_freq_4_amplitude_0.35_rep_2_r_D_2.0.png"," D"," r"," r"," n.a.",0.4691696,"a",1
"320","TW",1,54," flanked","BPN",4,7,2," flanked_bex_freq_4_amplitude_7_rep_7_r_N_2.0.png"," N"," r"," r"," n.a.",0.2435006,"a",1
"321","TW",1,54," flanked","RF",4,0.2,2," flanked_rf_freq_4_amplitude_0.2_rep_0_l_N_2.0.png"," N"," l"," b"," n.a.",0.3182441,"a",0
"322","TW",1,54," flanked","BPN",4,4,2," flanked_bex_freq_4_amplitude_4_rep_4_l_K_2.0.png"," K"," l"," b"," n.a.",0.3776883,"a",0
"323","TW",1,54," flanked","RF",4,0.5,2," flanked_rf_freq_4_amplitude_0.5_rep_0_b_D_2.0.png"," D"," b"," b"," n.a.",0.6862211,"a",1
"324","TW",1,54," flanked","BPN",4,2,2," flanked_bex_freq_4_amplitude_2_rep_9_b_N_2.0.png"," N"," b"," b"," n.a.",0.7013594,"a",1
"325","TW",1,55," flanked","RF",4,0.35,2," flanked_rf_freq_4_amplitude_0.35_rep_8_l_D_2.0.png"," D"," l"," l"," n.a.",0.3483736,"a",1
"326","TW",1,55," flanked","BPN",4,5,2," flanked_bex_freq_4_amplitude_5_rep_1_t_N_2.0.png"," N"," t"," t"," n.a.",0.3996628,"a",1
"327","TW",1,55," flanked","RF",4,0.5,2," flanked_rf_freq_4_amplitude_0.5_rep_3_l_H_2.0.png"," H"," l"," l"," n.a.",0.3146673,"a",1
"328","TW",1,55," flanked","BPN",4,1,2," flanked_bex_freq_4_amplitude_1_rep_6_r_N_2.0.png"," N"," r"," l"," n.a.",0.2777304,"a",0
"329","TW",1,55," flanked","RF",4,0.275,2," flanked_rf_freq_4_amplitude_0.275_rep_0_r_K_2.0.png"," K"," r"," t"," n.a.",0.5991992,"a",0
"330","TW",1,55," flanked","BPN",4,6,2," flanked_bex_freq_4_amplitude_6_rep_4_r_N_2.0.png"," N"," r"," r"," n.a.",0.3472606,"a",1
"331","TW",1,56," flanked","RF",4,0.275,2," flanked_rf_freq_4_amplitude_0.275_rep_9_r_D_2.0.png"," D"," r"," r"," n.a.",0.337073,"a",1
"332","TW",1,56," flanked","BPN",4,2,2," flanked_bex_freq_4_amplitude_2_rep_0_r_K_2.0.png"," K"," r"," r"," n.a.",0.3977734,"a",1
"333","TW",1,56," flanked","RF",4,0.425,2," flanked_rf_freq_4_amplitude_0.425_rep_8_l_H_2.0.png"," H"," l"," b"," n.a.",0.6704332,"a",0
"334","TW",1,56," flanked","BPN",4,2,2," flanked_bex_freq_4_amplitude_2_rep_6_l_D_2.0.png"," D"," l"," t"," n.a.",0.6252288,"a",0
"335","TW",1,56," flanked","RF",4,0.35,2," flanked_rf_freq_4_amplitude_0.35_rep_3_l_H_2.0.png"," H"," l"," l"," n.a.",0.4423487,"a",1
"336","TW",1,56," flanked","BPN",4,6,2," flanked_bex_freq_4_amplitude_6_rep_3_t_N_2.0.png"," N"," t"," l"," n.a.",0.5006087,"a",0
"337","TW",1,57," flanked","RF",4,0.35,2," flanked_rf_freq_4_amplitude_0.35_rep_1_b_N_2.0.png"," N"," b"," b"," n.a.",0.3414305,"a",1
"338","TW",1,57," flanked","BPN",4,5,2," flanked_bex_freq_4_amplitude_5_rep_6_r_H_2.0.png"," H"," r"," r"," n.a.",0.2522137,"a",1
"339","TW",1,57," flanked","RF",4,0.2,2," flanked_rf_freq_4_amplitude_0.2_rep_5_l_N_2.0.png"," N"," l"," l"," n.a.",0.3820032,"a",1
"340","TW",1,57," flanked","BPN",4,4,2," flanked_bex_freq_4_amplitude_4_rep_6_t_H_2.0.png"," H"," t"," b"," n.a.",0.2601292,"a",0
"341","TW",1,57," flanked","RF",4,0.35,2," flanked_rf_freq_4_amplitude_0.35_rep_4_b_N_2.0.png"," N"," b"," t"," n.a.",0.4681131,"a",0
"342","TW",1,57," flanked","BPN",4,7,2," flanked_bex_freq_4_amplitude_7_rep_2_r_H_2.0.png"," H"," r"," b"," n.a.",0.8629843,"a",0
"343","TW",1,58," flanked","RF",4,0.2,2," flanked_rf_freq_4_amplitude_0.2_rep_5_t_H_2.0.png"," H"," t"," r"," n.a.",0.3239225,"a",0
"344","TW",1,58," flanked","BPN",4,5,2," flanked_bex_freq_4_amplitude_5_rep_0_b_H_2.0.png"," H"," b"," b"," n.a.",0.2673208,"a",1
"345","TW",1,58," flanked","RF",4,0.125,2," flanked_rf_freq_4_amplitude_0.125_rep_3_l_K_2.0.png"," K"," l"," t"," n.a.",0.6243712,"a",0
"346","TW",1,58," flanked","BPN",4,7,2," flanked_bex_freq_4_amplitude_7_rep_6_l_K_2.0.png"," K"," l"," l"," n.a.",0.3449077,"a",1
"347","TW",1,58," flanked","RF",4,0.425,2," flanked_rf_freq_4_amplitude_0.425_rep_2_l_N_2.0.png"," N"," l"," l"," n.a.",0.3972744,"a",1
"348","TW",1,58," flanked","BPN",4,7,2," flanked_bex_freq_4_amplitude_7_rep_6_t_K_2.0.png"," K"," t"," l"," n.a.",0.3925596,"a",0
"349","TW",1,59," flanked","RF",4,0.5,2," flanked_rf_freq_4_amplitude_0.5_rep_0_t_D_2.0.png"," D"," t"," b"," n.a.",0.3226788,"a",0
"350","TW",1,59," flanked","BPN",4,7,2," flanked_bex_freq_4_amplitude_7_rep_3_l_N_2.0.png"," N"," l"," l"," n.a.",0.2981465,"a",1
"351","TW",1,59," flanked","RF",4,0.5,2," flanked_rf_freq_4_amplitude_0.5_rep_9_b_N_2.0.png"," N"," b"," r"," n.a.",0.5479248,"a",0
"352","TW",1,59," flanked","BPN",4,5,2," flanked_bex_freq_4_amplitude_5_rep_9_t_K_2.0.png"," K"," t"," r"," n.a.",0.2491443,"a",0
"353","TW",1,59," flanked","RF",4,0.5,2," flanked_rf_freq_4_amplitude_0.5_rep_6_b_H_2.0.png"," H"," b"," b"," n.a.",0.6357087,"a",1
"354","TW",1,59," flanked","BPN",4,2,2," flanked_bex_freq_4_amplitude_2_rep_3_l_H_2.0.png"," H"," l"," t"," n.a.",0.5587716,"a",0
"355","TW",1,60," flanked","RF",4,0.125,2," flanked_rf_freq_4_amplitude_0.125_rep_9_l_K_2.0.png"," K"," l"," l"," n.a.",0.4560869,"a",1
"356","TW",1,60," flanked","BPN",4,4,2," flanked_bex_freq_4_amplitude_4_rep_9_r_H_2.0.png"," H"," r"," r"," n.a.",0.3526873,"a",1
"357","TW",1,60," flanked","RF",4,0.425,2," flanked_rf_freq_4_amplitude_0.425_rep_3_b_K_2.0.png"," K"," b"," r"," n.a.",0.4944725,"a",0
"358","TW",1,60," flanked","BPN",4,7,2," flanked_bex_freq_4_amplitude_7_rep_2_r_D_2.0.png"," D"," r"," b"," n.a.",0.3307327,"a",0
"359","TW",1,60," flanked","RF",4,0.05,2," flanked_rf_freq_4_amplitude_0.05_rep_5_t_H_2.0.png"," H"," t"," b"," n.a.",0.4528172,"a",0
"360","TW",1,60," flanked","BPN",4,5,2," flanked_bex_freq_4_amplitude_5_rep_0_r_N_2.0.png"," N"," r"," r"," n.a.",0.2902224,"a",1
"361","TW",1,61," flanked","RF",4,0.275,2," flanked_rf_freq_4_amplitude_0.275_rep_0_b_D_2.0.png"," D"," b"," b"," n.a.",0.3124233,"a",1
"362","TW",1,61," flanked","BPN",4,5,2," flanked_bex_freq_4_amplitude_5_rep_5_b_N_2.0.png"," N"," b"," b"," n.a.",0.3426712,"a",1
"363","TW",1,61," flanked","RF",4,0.425,2," flanked_rf_freq_4_amplitude_0.425_rep_6_l_N_2.0.png"," N"," l"," l"," n.a.",0.4790328,"a",1
"364","TW",1,61," flanked","BPN",4,7,2," flanked_bex_freq_4_amplitude_7_rep_3_t_N_2.0.png"," N"," t"," l"," n.a.",0.2869766,"a",0
"365","TW",1,61," flanked","RF",4,0.35,2," flanked_rf_freq_4_amplitude_0.35_rep_6_b_H_2.0.png"," H"," b"," t"," n.a.",0.4349523,"a",0
"366","TW",1,61," flanked","BPN",4,5,2," flanked_bex_freq_4_amplitude_5_rep_2_t_D_2.0.png"," D"," t"," b"," n.a.",0.4463605,"a",0
"367","TW",1,62," flanked","RF",4,0.5,2," flanked_rf_freq_4_amplitude_0.5_rep_7_l_N_2.0.png"," N"," l"," l"," n.a.",0.3363491,"a",1
"368","TW",1,62," flanked","BPN",4,2,2," flanked_bex_freq_4_amplitude_2_rep_8_r_K_2.0.png"," K"," r"," b"," n.a.",0.2952427,"a",0
"369","TW",1,62," flanked","RF",4,0.275,2," flanked_rf_freq_4_amplitude_0.275_rep_5_t_H_2.0.png"," H"," t"," t"," n.a.",0.4517233,"a",1
"370","TW",1,62," flanked","BPN",4,1,2," flanked_bex_freq_4_amplitude_1_rep_1_t_D_2.0.png"," D"," t"," b"," n.a.",0.1283343,"a",0
"371","TW",1,62," flanked","RF",4,0.35,2," flanked_rf_freq_4_amplitude_0.35_rep_3_l_H_2.0.png"," H"," l"," l"," n.a.",0.401308,"a",1
"372","TW",1,62," flanked","BPN",4,5,2," flanked_bex_freq_4_amplitude_5_rep_2_t_D_2.0.png"," D"," t"," t"," n.a.",0.4613039,"a",1
"373","TW",1,63," flanked","RF",4,0.05,2," flanked_rf_freq_4_amplitude_0.05_rep_4_r_K_2.0.png"," K"," r"," r"," n.a.",0.3517882,"a",1
"374","TW",1,63," flanked","BPN",4,4,2," flanked_bex_freq_4_amplitude_4_rep_4_b_D_2.0.png"," D"," b"," t"," n.a.",0.3915367,"a",0
"375","TW",1,63," flanked","RF",4,0.05,2," flanked_rf_freq_4_amplitude_0.05_rep_1_l_H_2.0.png"," H"," l"," b"," n.a.",0.5798561,"a",0
"376","TW",1,63," flanked","BPN",4,3,2," flanked_bex_freq_4_amplitude_3_rep_4_l_D_2.0.png"," D"," l"," t"," n.a.",0.3541507,"a",0
"377","TW",1,63," flanked","RF",4,0.05,2," flanked_rf_freq_4_amplitude_0.05_rep_1_l_H_2.0.png"," H"," l"," b"," n.a.",0.4259023,"a",0
"378","TW",1,63," flanked","BPN",4,6,2," flanked_bex_freq_4_amplitude_6_rep_9_b_H_2.0.png"," H"," b"," b"," n.a.",0.6879914,"a",1
"379","TW",1,64," flanked","RF",4,0.125,2," flanked_rf_freq_4_amplitude_0.125_rep_0_r_N_2.0.png"," N"," r"," b"," n.a.",0.2899333,"a",0
"380","TW",1,64," flanked","BPN",4,1,2," flanked_bex_freq_4_amplitude_1_rep_1_b_D_2.0.png"," D"," b"," b"," n.a.",0.3187746,"a",1
"381","TW",1,64," flanked","RF",4,0.5,2," flanked_rf_freq_4_amplitude_0.5_rep_4_l_H_2.0.png"," H"," l"," t"," n.a.",0.5194492,"a",0
"382","TW",1,64," flanked","BPN",4,7,2," flanked_bex_freq_4_amplitude_7_rep_5_r_D_2.0.png"," D"," r"," r"," n.a.",0.2077589,"a",1
"383","TW",1,64," flanked","RF",4,0.5,2," flanked_rf_freq_4_amplitude_0.5_rep_1_b_H_2.0.png"," H"," b"," b"," n.a.",0.4415443,"a",1
"384","TW",1,64," flanked","BPN",4,3,2," flanked_bex_freq_4_amplitude_3_rep_6_t_H_2.0.png"," H"," t"," t"," n.a.",0.5485862,"a",1
"385","TW",1,65," flanked","RF",4,0.5,2," flanked_rf_freq_4_amplitude_0.5_rep_8_t_H_2.0.png"," H"," t"," t"," n.a.",0.4099747,"a",1
"386","TW",1,65," flanked","BPN",4,5,2," flanked_bex_freq_4_amplitude_5_rep_4_t_D_2.0.png"," D"," t"," t"," n.a.",0.5330752,"a",1
"387","TW",1,65," flanked","RF",4,0.425,2," flanked_rf_freq_4_amplitude_0.425_rep_5_b_K_2.0.png"," K"," b"," l"," n.a.",0.3771635,"a",0
"388","TW",1,65," flanked","BPN",4,7,2," flanked_bex_freq_4_amplitude_7_rep_2_r_D_2.0.png"," D"," r"," r"," n.a.",0.381401,"a",1
"389","TW",1,65," flanked","RF",4,0.125,2," flanked_rf_freq_4_amplitude_0.125_rep_0_r_H_2.0.png"," H"," r"," b"," n.a.",0.6584507,"a",0
"390","TW",1,65," flanked","BPN",4,5,2," flanked_bex_freq_4_amplitude_5_rep_7_r_N_2.0.png"," N"," r"," t"," n.a.",0.726667,"a",0
"391","TW",1,66," flanked","RF",4,0.125,2," flanked_rf_freq_4_amplitude_0.125_rep_3_l_H_2.0.png"," H"," l"," b"," n.a.",0.4522633,"a",0
"392","TW",1,66," flanked","BPN",4,5,2," flanked_bex_freq_4_amplitude_5_rep_7_t_N_2.0.png"," N"," t"," t"," n.a.",0.4538931,"a",1
"393","TW",1,66," flanked","RF",4,0.275,2," flanked_rf_freq_4_amplitude_0.275_rep_7_b_K_2.0.png"," K"," b"," b"," n.a.",0.2616338,"a",1
"394","TW",1,66," flanked","BPN",4,3,2," flanked_bex_freq_4_amplitude_3_rep_0_b_N_2.0.png"," N"," b"," b"," n.a.",0.4737641,"a",1
"395","TW",1,66," flanked","RF",4,0.275,2," flanked_rf_freq_4_amplitude_0.275_rep_6_t_K_2.0.png"," K"," t"," t"," n.a.",0.3465779,"a",1
"396","TW",1,66," flanked","BPN",4,1,2," flanked_bex_freq_4_amplitude_1_rep_0_b_H_2.0.png"," H"," b"," b"," n.a.",0.3297708,"a",1
"397","TW",1,67," flanked","RF",4,0.2,2," flanked_rf_freq_4_amplitude_0.2_rep_1_r_H_2.0.png"," H"," r"," b"," n.a.",0.2812973,"a",0
"398","TW",1,67," flanked","BPN",4,6,2," flanked_bex_freq_4_amplitude_6_rep_9_b_D_2.0.png"," D"," b"," b"," n.a.",0.2297517,"a",1
"399","TW",1,67," flanked","RF",4,0.35,2," flanked_rf_freq_4_amplitude_0.35_rep_0_t_D_2.0.png"," D"," t"," t"," n.a.",0.3808108,"a",1
"400","TW",1,67," flanked","BPN",4,2,2," flanked_bex_freq_4_amplitude_2_rep_0_t_D_2.0.png"," D"," t"," b"," n.a.",0.4631558,"a",0
"401","TW",1,67," flanked","RF",4,0.35,2," flanked_rf_freq_4_amplitude_0.35_rep_2_b_D_2.0.png"," D"," b"," l"," n.a.",0.4050591,"a",0
"402","TW",1,67," flanked","BPN",4,7,2," flanked_bex_freq_4_amplitude_7_rep_7_l_K_2.0.png"," K"," l"," l"," n.a.",0.4186411,"a",1
"403","TW",1,68," flanked","RF",4,0.275,2," flanked_rf_freq_4_amplitude_0.275_rep_7_r_D_2.0.png"," D"," r"," r"," n.a.",0.2238291,"a",1
"404","TW",1,68," flanked","BPN",4,7,2," flanked_bex_freq_4_amplitude_7_rep_2_t_N_2.0.png"," N"," t"," t"," n.a.",0.3249183,"a",1
"405","TW",1,68," flanked","RF",4,0.275,2," flanked_rf_freq_4_amplitude_0.275_rep_9_l_D_2.0.png"," D"," l"," l"," n.a.",0.682411,"a",1
"406","TW",1,68," flanked","BPN",4,3,2," flanked_bex_freq_4_amplitude_3_rep_9_b_K_2.0.png"," K"," b"," l"," n.a.",0.4712162,"a",0
"407","TW",1,68," flanked","RF",4,0.425,2," flanked_rf_freq_4_amplitude_0.425_rep_8_r_D_2.0.png"," D"," r"," r"," n.a.",0.4623285,"a",1
"408","TW",1,68," flanked","BPN",4,3,2," flanked_bex_freq_4_amplitude_3_rep_7_b_N_2.0.png"," N"," b"," t"," n.a.",0.4244563,"a",0
"409","TW",1,69," flanked","RF",4,0.35,2," flanked_rf_freq_4_amplitude_0.35_rep_4_r_H_2.0.png"," H"," r"," r"," n.a.",0.3568134,"a",1
"410","TW",1,69," flanked","BPN",4,6,2," flanked_bex_freq_4_amplitude_6_rep_6_r_H_2.0.png"," H"," r"," r"," n.a.",0.4209837,"a",1
"411","TW",1,69," flanked","RF",4,0.125,2," flanked_rf_freq_4_amplitude_0.125_rep_0_r_D_2.0.png"," D"," r"," b"," n.a.",0.6316835,"a",0
"412","TW",1,69," flanked","BPN",4,6,2," flanked_bex_freq_4_amplitude_6_rep_5_r_H_2.0.png"," H"," r"," t"," n.a.",0.3232899,"a",0
"413","TW",1,69," flanked","RF",4,0.05,2," flanked_rf_freq_4_amplitude_0.05_rep_8_t_N_2.0.png"," N"," t"," b"," n.a.",0.4820791,"a",0
"414","TW",1,69," flanked","BPN",4,7,2," flanked_bex_freq_4_amplitude_7_rep_0_t_D_2.0.png"," D"," t"," b"," n.a.",0.404098,"a",0
"415","TW",1,70," flanked","RF",4,0.05,2," flanked_rf_freq_4_amplitude_0.05_rep_4_r_K_2.0.png"," K"," r"," b"," n.a.",0.36042,"a",0
"416","TW",1,70," flanked","BPN",4,1,2," flanked_bex_freq_4_amplitude_1_rep_1_b_D_2.0.png"," D"," b"," t"," n.a.",0.6374333,"a",0
"417","TW",1,70," flanked","RF",4,0.5,2," flanked_rf_freq_4_amplitude_0.5_rep_0_b_D_2.0.png"," D"," b"," t"," n.a.",0.5404792,"a",0
"418","TW",1,70," flanked","BPN",4,7,2," flanked_bex_freq_4_amplitude_7_rep_1_l_K_2.0.png"," K"," l"," l"," n.a.",0.4453374,"a",1
"419","TW",1,70," flanked","RF",4,0.2,2," flanked_rf_freq_4_amplitude_0.2_rep_8_t_N_2.0.png"," N"," t"," b"," n.a.",0.4291025,"a",0
"420","TW",1,70," flanked","BPN",4,1,2," flanked_bex_freq_4_amplitude_1_rep_0_b_H_2.0.png"," H"," b"," r"," n.a.",0.3723713,"a",0
"421","TW",1,71," flanked","RF",4,0.425,2," flanked_rf_freq_4_amplitude_0.425_rep_2_r_H_2.0.png"," H"," r"," r"," n.a.",0.2681231,"a",1
"422","TW",1,71," flanked","BPN",4,5,2," flanked_bex_freq_4_amplitude_5_rep_8_b_N_2.0.png"," N"," b"," b"," n.a.",0.3889123,"a",1
"423","TW",1,71," flanked","RF",4,0.275,2," flanked_rf_freq_4_amplitude_0.275_rep_3_l_K_2.0.png"," K"," l"," l"," n.a.",0.69787,"a",1
"424","TW",1,71," flanked","BPN",4,3,2," flanked_bex_freq_4_amplitude_3_rep_7_r_D_2.0.png"," D"," r"," l"," n.a.",0.5410778,"a",0
"425","TW",1,71," flanked","RF",4,0.425,2," flanked_rf_freq_4_amplitude_0.425_rep_9_l_K_2.0.png"," K"," l"," r"," n.a.",0.4388372,"a",0
"426","TW",1,71," flanked","BPN",4,2,2," flanked_bex_freq_4_amplitude_2_rep_2_t_N_2.0.png"," N"," t"," b"," n.a.",0.4303605,"a",0
"427","TW",1,72," flanked","RF",4,0.2,2," flanked_rf_freq_4_amplitude_0.2_rep_3_t_N_2.0.png"," N"," t"," b"," n.a.",0.4100362,"a",0
"428","TW",1,72," flanked","BPN",4,6,2," flanked_bex_freq_4_amplitude_6_rep_5_t_D_2.0.png"," D"," t"," t"," n.a.",0.3618423,"a",1
"429","TW",1,72," flanked","RF",4,0.5,2," flanked_rf_freq_4_amplitude_0.5_rep_3_l_H_2.0.png"," H"," l"," t"," n.a.",0.4472648,"a",0
"430","TW",1,72," flanked","BPN",4,5,2," flanked_bex_freq_4_amplitude_5_rep_7_t_N_2.0.png"," N"," t"," t"," n.a.",0.8951218,"a",1
"431","TW",1,72," flanked","RF",4,0.35,2," flanked_rf_freq_4_amplitude_0.35_rep_7_r_K_2.0.png"," K"," r"," t"," n.a.",0.5591106,"a",0
"432","TW",1,72," flanked","BPN",4,7,2," flanked_bex_freq_4_amplitude_7_rep_2_r_H_2.0.png"," H"," r"," r"," n.a.",0.9056559,"a",1
"433","TW",1,73," flanked","RF",4,0.05,2," flanked_rf_freq_4_amplitude_0.05_rep_9_r_H_2.0.png"," H"," r"," b"," n.a.",0.3185554,"a",0
"434","TW",1,73," flanked","BPN",4,5,2," flanked_bex_freq_4_amplitude_5_rep_3_b_K_2.0.png"," K"," b"," b"," n.a.",0.261643,"a",1
"435","TW",1,73," flanked","RF",4,0.425,2," flanked_rf_freq_4_amplitude_0.425_rep_6_l_N_2.0.png"," N"," l"," b"," n.a.",0.2131614,"a",0
"436","TW",1,73," flanked","BPN",4,1,2," flanked_bex_freq_4_amplitude_1_rep_8_r_N_2.0.png"," N"," r"," b"," n.a.",0.5030284,"a",0
"437","TW",1,73," flanked","RF",4,0.275,2," flanked_rf_freq_4_amplitude_0.275_rep_6_t_K_2.0.png"," K"," t"," b"," n.a.",0.2399958,"a",0
"438","TW",1,73," flanked","BPN",4,1,2," flanked_bex_freq_4_amplitude_1_rep_2_b_H_2.0.png"," H"," b"," t"," n.a.",0.7553429,"a",0
"439","TW",1,74," flanked","RF",4,0.5,2," flanked_rf_freq_4_amplitude_0.5_rep_3_r_N_2.0.png"," N"," r"," r"," n.a.",0.2489209,"a",1
"440","TW",1,74," flanked","BPN",4,4,2," flanked_bex_freq_4_amplitude_4_rep_5_l_H_2.0.png"," H"," l"," l"," n.a.",0.3021675,"a",1
"441","TW",1,74," flanked","RF",4,0.125,2," flanked_rf_freq_4_amplitude_0.125_rep_6_l_K_2.0.png"," K"," l"," l"," n.a.",0.3883827,"a",1
"442","TW",1,74," flanked","BPN",4,7,2," flanked_bex_freq_4_amplitude_7_rep_6_l_K_2.0.png"," K"," l"," l"," n.a.",0.4001884,"a",1
"443","TW",1,74," flanked","RF",4,0.425,2," flanked_rf_freq_4_amplitude_0.425_rep_4_l_D_2.0.png"," D"," l"," l"," n.a.",0.359497,"a",1
"444","TW",1,74," flanked","BPN",4,7,2," flanked_bex_freq_4_amplitude_7_rep_7_l_K_2.0.png"," K"," l"," l"," n.a.",0.6073904,"a",1
"445","TW",1,75," flanked","RF",4,0.2,2," flanked_rf_freq_4_amplitude_0.2_rep_5_t_H_2.0.png"," H"," t"," t"," n.a.",0.4122593,"a",1
"446","TW",1,75," flanked","BPN",4,1,2," flanked_bex_freq_4_amplitude_1_rep_5_r_K_2.0.png"," K"," r"," b"," n.a.",0.4211908,"a",0
"447","TW",1,75," flanked","RF",4,0.275,2," flanked_rf_freq_4_amplitude_0.275_rep_8_t_N_2.0.png"," N"," t"," t"," n.a.",0.5520836,"a",1
"448","TW",1,75," flanked","BPN",4,6,2," flanked_bex_freq_4_amplitude_6_rep_5_r_H_2.0.png"," H"," r"," l"," n.a.",0.6236402,"a",0
"449","TW",1,75," flanked","RF",4,0.2,2," flanked_rf_freq_4_amplitude_0.2_rep_2_r_D_2.0.png"," D"," r"," l"," n.a.",0.5443264,"a",0
"450","TW",1,75," flanked","BPN",4,3,2," flanked_bex_freq_4_amplitude_3_rep_4_t_N_2.0.png"," N"," t"," b"," n.a.",0.3008405,"a",0
"451","TW",1,76," flanked","RF",4,0.35,2," flanked_rf_freq_4_amplitude_0.35_rep_3_l_H_2.0.png"," H"," l"," l"," n.a.",0.2893779,"a",1
"452","TW",1,76," flanked","BPN",4,3,2," flanked_bex_freq_4_amplitude_3_rep_0_t_K_2.0.png"," K"," t"," b"," n.a.",0.3760891,"a",0
"453","TW",1,76," flanked","RF",4,0.5,2," flanked_rf_freq_4_amplitude_0.5_rep_1_l_N_2.0.png"," N"," l"," b"," n.a.",0.5911685,"a",0
"454","TW",1,76," flanked","BPN",4,1,2," flanked_bex_freq_4_amplitude_1_rep_3_t_K_2.0.png"," K"," t"," r"," n.a.",0.2635286,"a",0
"455","TW",1,76," flanked","RF",4,0.275,2," flanked_rf_freq_4_amplitude_0.275_rep_7_t_H_2.0.png"," H"," t"," b"," n.a.",0.4367322,"a",0
"456","TW",1,76," flanked","BPN",4,3,2," flanked_bex_freq_4_amplitude_3_rep_2_l_H_2.0.png"," H"," l"," t"," n.a.",0.4157503,"a",0
"457","TW",1,77," flanked","RF",4,0.05,2," flanked_rf_freq_4_amplitude_0.05_rep_2_r_H_2.0.png"," H"," r"," b"," n.a.",0.2282023,"a",0
"458","TW",1,77," flanked","BPN",4,7,2," flanked_bex_freq_4_amplitude_7_rep_8_b_H_2.0.png"," H"," b"," b"," n.a.",0.280274,"a",1
"459","TW",1,77," flanked","RF",4,0.2,2," flanked_rf_freq_4_amplitude_0.2_rep_6_b_H_2.0.png"," H"," b"," l"," n.a.",0.4390763,"a",0
"460","TW",1,77," flanked","BPN",4,5,2," flanked_bex_freq_4_amplitude_5_rep_1_r_D_2.0.png"," D"," r"," t"," n.a.",0.3955467,"a",0
"461","TW",1,77," flanked","RF",4,0.2,2," flanked_rf_freq_4_amplitude_0.2_rep_7_b_D_2.0.png"," D"," b"," t"," n.a.",0.3955457,"a",0
"462","TW",1,77," flanked","BPN",4,3,2," flanked_bex_freq_4_amplitude_3_rep_9_t_K_2.0.png"," K"," t"," b"," n.a.",0.3286976,"a",0
"463","TW",1,78," flanked","RF",4,0.425,2," flanked_rf_freq_4_amplitude_0.425_rep_9_r_H_2.0.png"," H"," r"," r"," n.a.",0.2277739,"a",1
"464","TW",1,78," flanked","BPN",4,1,2," flanked_bex_freq_4_amplitude_1_rep_6_l_D_2.0.png"," D"," l"," t"," n.a.",0.6177762,"a",0
"465","TW",1,78," flanked","RF",4,0.05,2," flanked_rf_freq_4_amplitude_0.05_rep_3_t_K_2.0.png"," K"," t"," t"," n.a.",0.4072063,"a",1
"466","TW",1,78," flanked","BPN",4,6,2," flanked_bex_freq_4_amplitude_6_rep_6_b_K_2.0.png"," K"," b"," b"," n.a.",0.1989668,"a",1
"467","TW",1,78," flanked","RF",4,0.275,2," flanked_rf_freq_4_amplitude_0.275_rep_5_r_H_2.0.png"," H"," r"," b"," n.a.",0.5695466,"a",0
"468","TW",1,78," flanked","BPN",4,5,2," flanked_bex_freq_4_amplitude_5_rep_9_r_H_2.0.png"," H"," r"," b"," n.a.",0.7115608,"a",0
"469","TW",1,79," flanked","RF",4,0.275,2," flanked_rf_freq_4_amplitude_0.275_rep_3_t_H_2.0.png"," H"," t"," t"," n.a.",0.3967442,"a",1
"470","TW",1,79," flanked","BPN",4,5,2," flanked_bex_freq_4_amplitude_5_rep_3_b_K_2.0.png"," K"," b"," b"," n.a.",0.2371857,"a",1
"471","TW",1,79," flanked","RF",4,0.5,2," flanked_rf_freq_4_amplitude_0.5_rep_5_t_H_2.0.png"," H"," t"," b"," n.a.",0.3748297,"a",0
"472","TW",1,79," flanked","BPN",4,5,2," flanked_bex_freq_4_amplitude_5_rep_6_l_N_2.0.png"," N"," l"," l"," n.a.",0.3767466,"a",1
"473","TW",1,79," flanked","RF",4,0.275,2," flanked_rf_freq_4_amplitude_0.275_rep_3_b_N_2.0.png"," N"," b"," l"," n.a.",0.6364875,"a",0
"474","TW",1,79," flanked","BPN",4,5,2," flanked_bex_freq_4_amplitude_5_rep_1_b_K_2.0.png"," K"," b"," l"," n.a.",0.5810353,"a",0
"475","TW",1,80," flanked","RF",4,0.125,2," flanked_rf_freq_4_amplitude_0.125_rep_6_t_D_2.0.png"," D"," t"," l"," n.a.",0.4042867,"a",0
"476","TW",1,80," flanked","BPN",4,5,2," flanked_bex_freq_4_amplitude_5_rep_6_r_H_2.0.png"," H"," r"," r"," n.a.",0.2964326,"a",1
"477","TW",1,80," flanked","RF",4,0.05,2," flanked_rf_freq_4_amplitude_0.05_rep_7_b_K_2.0.png"," K"," b"," l"," n.a.",0.340021,"a",0
"478","TW",1,80," flanked","BPN",4,6,2," flanked_bex_freq_4_amplitude_6_rep_4_l_H_2.0.png"," H"," l"," l"," n.a.",0.7661098,"a",1
"479","TW",1,80," flanked","RF",4,0.5,2," flanked_rf_freq_4_amplitude_0.5_rep_8_r_D_2.0.png"," D"," r"," t"," n.a.",0.4041576,"a",0
"480","TW",1,80," flanked","BPN",4,1,2," flanked_bex_freq_4_amplitude_1_rep_4_t_H_2.0.png"," H"," t"," b"," n.a.",0.7579646,"a",0
"481","TW",1,81," flanked","RF",4,0.5,2," flanked_rf_freq_4_amplitude_0.5_rep_5_l_N_2.0.png"," N"," l"," l"," n.a.",0.3534486,"a",1
"482","TW",1,81," flanked","BPN",4,3,2," flanked_bex_freq_4_amplitude_3_rep_9_r_H_2.0.png"," H"," r"," r"," n.a.",0.3230994,"a",1
"483","TW",1,81," flanked","RF",4,0.125,2," flanked_rf_freq_4_amplitude_0.125_rep_5_l_K_2.0.png"," K"," l"," b"," n.a.",0.4775586,"a",0
"484","TW",1,81," flanked","BPN",4,6,2," flanked_bex_freq_4_amplitude_6_rep_2_r_H_2.0.png"," H"," r"," r"," n.a.",0.4661819,"a",1
"485","TW",1,81," flanked","RF",4,0.425,2," flanked_rf_freq_4_amplitude_0.425_rep_1_r_N_2.0.png"," N"," r"," r"," n.a.",0.3705288,"a",1
"486","TW",1,81," flanked","BPN",4,1,2," flanked_bex_freq_4_amplitude_1_rep_3_t_H_2.0.png"," H"," t"," r"," n.a.",0.6187685,"a",0
"487","TW",1,82," flanked","RF",4,0.5,2," flanked_rf_freq_4_amplitude_0.5_rep_9_b_H_2.0.png"," H"," b"," b"," n.a.",0.2503247,"a",1
"488","TW",1,82," flanked","BPN",4,3,2," flanked_bex_freq_4_amplitude_3_rep_4_r_H_2.0.png"," H"," r"," r"," n.a.",0.2962774,"a",1
"489","TW",1,82," flanked","RF",4,0.2,2," flanked_rf_freq_4_amplitude_0.2_rep_3_r_D_2.0.png"," D"," r"," l"," n.a.",0.370894,"a",0
"490","TW",1,82," flanked","BPN",4,2,2," flanked_bex_freq_4_amplitude_2_rep_7_t_N_2.0.png"," N"," t"," b"," n.a.",0.3528849,"a",0
"491","TW",1,82," flanked","RF",4,0.35,2," flanked_rf_freq_4_amplitude_0.35_rep_1_l_H_2.0.png"," H"," l"," l"," n.a.",0.5538748,"a",1
"492","TW",1,82," flanked","BPN",4,3,2," flanked_bex_freq_4_amplitude_3_rep_0_r_K_2.0.png"," K"," r"," l"," n.a.",0.8503949,"a",0
"493","TW",1,83," flanked","RF",4,0.05,2," flanked_rf_freq_4_amplitude_0.05_rep_0_l_D_2.0.png"," D"," l"," r"," n.a.",0.4718077,"a",0
"494","TW",1,83," flanked","BPN",4,4,2," flanked_bex_freq_4_amplitude_4_rep_8_l_N_2.0.png"," N"," l"," l"," n.a.",0.3575299,"a",1
"495","TW",1,83," flanked","RF",4,0.2,2," flanked_rf_freq_4_amplitude_0.2_rep_4_l_H_2.0.png"," H"," l"," t"," n.a.",0.38677,"a",0
"496","TW",1,83," flanked","BPN",4,1,2," flanked_bex_freq_4_amplitude_1_rep_0_r_D_2.0.png"," D"," r"," l"," n.a.",0.6251058,"a",0
"497","TW",1,83," flanked","RF",4,0.2,2," flanked_rf_freq_4_amplitude_0.2_rep_9_l_N_2.0.png"," N"," l"," t"," n.a.",0.4240373,"a",0
"498","TW",1,83," flanked","BPN",4,1,2," flanked_bex_freq_4_amplitude_1_rep_7_t_H_2.0.png"," H"," t"," b"," n.a.",0.3722338,"a",0
"499","TW",1,84," flanked","RF",4,0.05,2," flanked_rf_freq_4_amplitude_0.05_rep_9_r_H_2.0.png"," H"," r"," l"," n.a.",0.5222036,"a",0
"500","TW",1,84," flanked","BPN",4,1,2," flanked_bex_freq_4_amplitude_1_rep_6_l_D_2.0.png"," D"," l"," b"," n.a.",0.3361971,"a",0
"501","TW",1,84," flanked","RF",4,0.2,2," flanked_rf_freq_4_amplitude_0.2_rep_1_r_K_2.0.png"," K"," r"," b"," n.a.",0.1920761,"a",0
"502","TW",1,84," flanked","BPN",4,7,2," flanked_bex_freq_4_amplitude_7_rep_0_b_N_2.0.png"," N"," b"," b"," n.a.",0.6240076,"a",1
"503","TW",1,84," flanked","RF",4,0.125,2," flanked_rf_freq_4_amplitude_0.125_rep_8_l_K_2.0.png"," K"," l"," b"," n.a.",0.3252375,"a",0
"504","TW",1,84," flanked","BPN",4,2,2," flanked_bex_freq_4_amplitude_2_rep_9_b_N_2.0.png"," N"," b"," t"," n.a.",0.2726309,"a",0
"505","TW",1,85," flanked","RF",4,0.275,2," flanked_rf_freq_4_amplitude_0.275_rep_9_r_D_2.0.png"," D"," r"," r"," n.a.",0.3211992,"a",1
"506","TW",1,85," flanked","BPN",4,6,2," flanked_bex_freq_4_amplitude_6_rep_0_l_D_2.0.png"," D"," l"," l"," n.a.",0.3462654,"a",1
"507","TW",1,85," flanked","RF",4,0.425,2," flanked_rf_freq_4_amplitude_0.425_rep_0_l_H_2.0.png"," H"," l"," r"," n.a.",0.3416572,"a",0
"508","TW",1,85," flanked","BPN",4,5,2," flanked_bex_freq_4_amplitude_5_rep_8_l_D_2.0.png"," D"," l"," l"," n.a.",0.4359334,"a",1
"509","TW",1,85," flanked","RF",4,0.2,2," flanked_rf_freq_4_amplitude_0.2_rep_3_t_N_2.0.png"," N"," t"," l"," n.a.",0.2206331,"a",0
"510","TW",1,85," flanked","BPN",4,5,2," flanked_bex_freq_4_amplitude_5_rep_9_r_H_2.0.png"," H"," r"," l"," n.a.",0.6941837,"a",0
"511","TW",1,86," flanked","RF",4,0.5,2," flanked_rf_freq_4_amplitude_0.5_rep_5_l_N_2.0.png"," N"," l"," l"," n.a.",0.4038796,"a",1
"512","TW",1,86," flanked","BPN",4,4,2," flanked_bex_freq_4_amplitude_4_rep_5_l_H_2.0.png"," H"," l"," l"," n.a.",0.3763833,"a",1
"513","TW",1,86," flanked","RF",4,0.35,2," flanked_rf_freq_4_amplitude_0.35_rep_2_t_D_2.0.png"," D"," t"," l"," n.a.",0.3428532,"a",0
"514","TW",1,86," flanked","BPN",4,4,2," flanked_bex_freq_4_amplitude_4_rep_7_r_K_2.0.png"," K"," r"," t"," n.a.",0.7145478,"a",0
"515","TW",1,86," flanked","RF",4,0.275,2," flanked_rf_freq_4_amplitude_0.275_rep_9_t_D_2.0.png"," D"," t"," t"," n.a.",0.4443787,"a",1
"516","TW",1,86," flanked","BPN",4,5,2," flanked_bex_freq_4_amplitude_5_rep_1_b_K_2.0.png"," K"," b"," b"," n.a.",0.4593325,"a",1
"517","TW",1,87," flanked","RF",4,0.125,2," flanked_rf_freq_4_amplitude_0.125_rep_9_l_K_2.0.png"," K"," l"," t"," n.a.",0.48994,"a",0
"518","TW",1,87," flanked","BPN",4,5,2," flanked_bex_freq_4_amplitude_5_rep_2_l_D_2.0.png"," D"," l"," l"," n.a.",0.3229048,"a",1
"519","TW",1,87," flanked","RF",4,0.275,2," flanked_rf_freq_4_amplitude_0.275_rep_4_l_K_2.0.png"," K"," l"," l"," n.a.",0.4821265,"a",1
"520","TW",1,87," flanked","BPN",4,5,2," flanked_bex_freq_4_amplitude_5_rep_2_t_N_2.0.png"," N"," t"," l"," n.a.",0.4479667,"a",0
"521","TW",1,87," flanked","RF",4,0.5,2," flanked_rf_freq_4_amplitude_0.5_rep_9_l_K_2.0.png"," K"," l"," t"," n.a.",0.339895,"a",0
"522","TW",1,87," flanked","BPN",4,1,2," flanked_bex_freq_4_amplitude_1_rep_6_l_H_2.0.png"," H"," l"," t"," n.a.",0.4901993,"a",0
"523","TW",1,88," flanked","RF",4,0.275,2," flanked_rf_freq_4_amplitude_0.275_rep_0_b_D_2.0.png"," D"," b"," b"," n.a.",0.3211345,"a",1
"524","TW",1,88," flanked","BPN",4,3,2," flanked_bex_freq_4_amplitude_3_rep_4_r_H_2.0.png"," H"," r"," r"," n.a.",0.3767312,"a",1
"525","TW",1,88," flanked","RF",4,0.275,2," flanked_rf_freq_4_amplitude_0.275_rep_8_t_N_2.0.png"," N"," t"," t"," n.a.",0.4011229,"a",1
"526","TW",1,88," flanked","BPN",4,6,2," flanked_bex_freq_4_amplitude_6_rep_8_b_N_2.0.png"," N"," b"," b"," n.a.",0.2780548,"a",1
"527","TW",1,88," flanked","RF",4,0.35,2," flanked_rf_freq_4_amplitude_0.35_rep_0_t_H_2.0.png"," H"," t"," b"," n.a.",0.2877478,"a",0
"528","TW",1,88," flanked","BPN",4,1,2," flanked_bex_freq_4_amplitude_1_rep_8_b_K_2.0.png"," K"," b"," b"," n.a.",0.3505838,"a",1
"529","TW",1,89," flanked","RF",4,0.5,2," flanked_rf_freq_4_amplitude_0.5_rep_9_b_H_2.0.png"," H"," b"," b"," n.a.",0.2867566,"a",1
"530","TW",1,89," flanked","BPN",4,3,2," flanked_bex_freq_4_amplitude_3_rep_5_t_N_2.0.png"," N"," t"," t"," n.a.",0.437929,"a",1
"531","TW",1,89," flanked","RF",4,0.125,2," flanked_rf_freq_4_amplitude_0.125_rep_2_r_H_2.0.png"," H"," r"," b"," n.a.",0.4846866,"a",0
"532","TW",1,89," flanked","BPN",4,2,2," flanked_bex_freq_4_amplitude_2_rep_8_r_D_2.0.png"," D"," r"," r"," n.a.",0.4813064,"a",1
"533","TW",1,89," flanked","RF",4,0.275,2," flanked_rf_freq_4_amplitude_0.275_rep_5_r_H_2.0.png"," H"," r"," b"," n.a.",0.4765685,"a",0
"534","TW",1,89," flanked","BPN",4,4,2," flanked_bex_freq_4_amplitude_4_rep_1_t_N_2.0.png"," N"," t"," r"," n.a.",0.3706231,"a",0
"535","TW",1,90," flanked","RF",4,0.275,2," flanked_rf_freq_4_amplitude_0.275_rep_6_b_K_2.0.png"," K"," b"," b"," n.a.",0.2903127,"a",1
"536","TW",1,90," flanked","BPN",4,5,2," flanked_bex_freq_4_amplitude_5_rep_4_t_D_2.0.png"," D"," t"," l"," n.a.",0.5498799,"a",0
"537","TW",1,90," flanked","RF",4,0.125,2," flanked_rf_freq_4_amplitude_0.125_rep_3_l_K_2.0.png"," K"," l"," t"," n.a.",0.312975,"a",0
"538","TW",1,90," flanked","BPN",4,6,2," flanked_bex_freq_4_amplitude_6_rep_9_b_D_2.0.png"," D"," b"," b"," n.a.",0.3116473,"a",1
"539","TW",1,90," flanked","RF",4,0.125,2," flanked_rf_freq_4_amplitude_0.125_rep_1_l_K_2.0.png"," K"," l"," l"," n.a.",0.5754243,"a",1
"540","TW",1,90," flanked","BPN",4,2,2," flanked_bex_freq_4_amplitude_2_rep_0_t_H_2.0.png"," H"," t"," b"," n.a.",0.5090034,"a",0
"541","TW",1,91," flanked","RF",4,0.275,2," flanked_rf_freq_4_amplitude_0.275_rep_4_l_D_2.0.png"," D"," l"," l"," n.a.",0.3673267,"a",1
"542","TW",1,91," flanked","BPN",4,1,2," flanked_bex_freq_4_amplitude_1_rep_0_b_D_2.0.png"," D"," b"," b"," n.a.",0.39847,"a",1
"543","TW",1,91," flanked","RF",4,0.05,2," flanked_rf_freq_4_amplitude_0.05_rep_2_b_N_2.0.png"," N"," b"," l"," n.a.",0.4722541,"a",0
"544","TW",1,91," flanked","BPN",4,6,2," flanked_bex_freq_4_amplitude_6_rep_4_l_H_2.0.png"," H"," l"," l"," n.a.",0.3343064,"a",1
"545","TW",1,91," flanked","RF",4,0.425,2," flanked_rf_freq_4_amplitude_0.425_rep_5_t_H_2.0.png"," H"," t"," t"," n.a.",0.4311557,"a",1
"546","TW",1,91," flanked","BPN",4,7,2," flanked_bex_freq_4_amplitude_7_rep_8_l_K_2.0.png"," K"," l"," l"," n.a.",0.7004284,"a",1
"547","TW",1,92," flanked","RF",4,0.5,2," flanked_rf_freq_4_amplitude_0.5_rep_1_r_D_2.0.png"," D"," r"," r"," n.a.",0.3154431,"a",1
"548","TW",1,92," flanked","BPN",4,1,2," flanked_bex_freq_4_amplitude_1_rep_2_l_N_2.0.png"," N"," l"," b"," n.a.",0.4486348,"a",0
"549","TW",1,92," flanked","RF",4,0.425,2," flanked_rf_freq_4_amplitude_0.425_rep_2_t_D_2.0.png"," D"," t"," t"," n.a.",0.4602893,"a",1
"550","TW",1,92," flanked","BPN",4,4,2," flanked_bex_freq_4_amplitude_4_rep_0_t_H_2.0.png"," H"," t"," l"," n.a.",0.7236077,"a",0
"551","TW",1,92," flanked","RF",4,0.275,2," flanked_rf_freq_4_amplitude_0.275_rep_8_b_H_2.0.png"," H"," b"," t"," n.a.",0.3935316,"a",0
"552","TW",1,92," flanked","BPN",4,1,2," flanked_bex_freq_4_amplitude_1_rep_6_l_H_2.0.png"," H"," l"," b"," n.a.",0.6660067,"a",0
"553","TW",1,93," flanked","RF",4,0.2,2," flanked_rf_freq_4_amplitude_0.2_rep_9_b_H_2.0.png"," H"," b"," b"," n.a.",0.2638506,"a",1
"554","TW",1,93," flanked","BPN",4,3,2," flanked_bex_freq_4_amplitude_3_rep_8_t_K_2.0.png"," K"," t"," t"," n.a.",0.4106922,"a",1
"555","TW",1,93," flanked","RF",4,0.425,2," flanked_rf_freq_4_amplitude_0.425_rep_8_l_H_2.0.png"," H"," l"," t"," n.a.",0.4654869,"a",0
"556","TW",1,93," flanked","BPN",4,1,2," flanked_bex_freq_4_amplitude_1_rep_4_l_N_2.0.png"," N"," l"," t"," n.a.",0.3780996,"a",0
"557","TW",1,93," flanked","RF",4,0.275,2," flanked_rf_freq_4_amplitude_0.275_rep_7_t_H_2.0.png"," H"," t"," b"," n.a.",0.3445723,"a",0
"558","TW",1,93," flanked","BPN",4,2,2," flanked_bex_freq_4_amplitude_2_rep_5_t_H_2.0.png"," H"," t"," b"," n.a.",0.4552262,"a",0
"559","TW",1,94," flanked","RF",4,0.35,2," flanked_rf_freq_4_amplitude_0.35_rep_9_r_H_2.0.png"," H"," r"," r"," n.a.",0.3018377,"a",1
"560","TW",1,94," flanked","BPN",4,2,2," flanked_bex_freq_4_amplitude_2_rep_9_t_N_2.0.png"," N"," t"," b"," n.a.",0.5042246,"a",0
"561","TW",1,94," flanked","RF",4,0.125,2," flanked_rf_freq_4_amplitude_0.125_rep_9_l_D_2.0.png"," D"," l"," b"," n.a.",0.2550212,"a",0
"562","TW",1,94," flanked","BPN",4,6,2," flanked_bex_freq_4_amplitude_6_rep_7_r_D_2.0.png"," D"," r"," r"," n.a.",0.5572292,"a",1
"563","TW",1,94," flanked","RF",4,0.2,2," flanked_rf_freq_4_amplitude_0.2_rep_1_r_K_2.0.png"," K"," r"," l"," n.a.",0.6629516,"a",0
"564","TW",1,94," flanked","BPN",4,1,2," flanked_bex_freq_4_amplitude_1_rep_5_t_N_2.0.png"," N"," t"," t"," n.a.",0.3528095,"a",1
"565","TW",1,95," flanked","RF",4,0.05,2," flanked_rf_freq_4_amplitude_0.05_rep_3_r_K_2.0.png"," K"," r"," t"," n.a.",0.8597741,"a",0
"566","TW",1,95," flanked","BPN",4,4,2," flanked_bex_freq_4_amplitude_4_rep_6_t_D_2.0.png"," D"," t"," b"," n.a.",0.3723109,"a",0
"567","TW",1,95," flanked","RF",4,0.275,2," flanked_rf_freq_4_amplitude_0.275_rep_6_t_H_2.0.png"," H"," t"," t"," n.a.",0.3175144,"a",1
"568","TW",1,95," flanked","BPN",4,6,2," flanked_bex_freq_4_amplitude_6_rep_6_b_K_2.0.png"," K"," b"," b"," n.a.",0.3826389,"a",1
"569","TW",1,95," flanked","RF",4,0.275,2," flanked_rf_freq_4_amplitude_0.275_rep_9_t_D_2.0.png"," D"," t"," t"," n.a.",0.3708023,"a",1
"570","TW",1,95," flanked","BPN",4,6,2," flanked_bex_freq_4_amplitude_6_rep_8_t_D_2.0.png"," D"," t"," l"," n.a.",0.5643147,"a",0
"571","TW",1,96," flanked","RF",4,0.35,2," flanked_rf_freq_4_amplitude_0.35_rep_0_r_N_2.0.png"," N"," r"," r"," n.a.",0.4281299,"a",1
"572","TW",1,96," flanked","BPN",4,4,2," flanked_bex_freq_4_amplitude_4_rep_1_b_H_2.0.png"," H"," b"," b"," n.a.",0.3091953,"a",1
"573","TW",1,96," flanked","RF",4,0.5,2," flanked_rf_freq_4_amplitude_0.5_rep_1_l_N_2.0.png"," N"," l"," l"," n.a.",0.6627896,"a",1
"574","TW",1,96," flanked","BPN",4,5,2," flanked_bex_freq_4_amplitude_5_rep_0_b_K_2.0.png"," K"," b"," b"," n.a.",0.3512077,"a",1
"575","TW",1,96," flanked","RF",4,0.275,2," flanked_rf_freq_4_amplitude_0.275_rep_8_b_H_2.0.png"," H"," b"," t"," n.a.",0.338746,"a",0
"576","TW",1,96," flanked","BPN",4,4,2," flanked_bex_freq_4_amplitude_4_rep_3_r_D_2.0.png"," D"," r"," t"," n.a.",0.3606124,"a",0
"577","TW",1,97," flanked","RF",4,0.425,2," flanked_rf_freq_4_amplitude_0.425_rep_7_b_N_2.0.png"," N"," b"," b"," n.a.",0.3144606,"a",1
"578","TW",1,97," flanked","BPN",4,3,2," flanked_bex_freq_4_amplitude_3_rep_8_t_K_2.0.png"," K"," t"," l"," n.a.",0.4849066,"a",0
"579","TW",1,97," flanked","RF",4,0.2,2," flanked_rf_freq_4_amplitude_0.2_rep_2_t_H_2.0.png"," H"," t"," t"," n.a.",0.7611774,"a",1
"580","TW",1,97," flanked","BPN",4,6,2," flanked_bex_freq_4_amplitude_6_rep_8_b_N_2.0.png"," N"," b"," l"," n.a.",0.3538879,"a",0
"581","TW",1,97," flanked","RF",4,0.275,2," flanked_rf_freq_4_amplitude_0.275_rep_3_b_N_2.0.png"," N"," b"," t"," n.a.",0.5477841,"a",0
"582","TW",1,97," flanked","BPN",4,6,2," flanked_bex_freq_4_amplitude_6_rep_4_r_N_2.0.png"," N"," r"," l"," n.a.",0.5720091,"a",0
"583","TW",1,98," flanked","RF",4,0.05,2," flanked_rf_freq_4_amplitude_0.05_rep_2_r_H_2.0.png"," H"," r"," b"," n.a.",0.3062102,"a",0
"584","TW",1,98," flanked","BPN",4,1,2," flanked_bex_freq_4_amplitude_1_rep_8_r_N_2.0.png"," N"," r"," b"," n.a.",0.3010212,"a",0
"585","TW",1,98," flanked","RF",4,0.275,2," flanked_rf_freq_4_amplitude_0.275_rep_8_t_N_2.0.png"," N"," t"," l"," n.a.",0.8307392,"a",0
"586","TW",1,98," flanked","BPN",4,6,2," flanked_bex_freq_4_amplitude_6_rep_7_r_D_2.0.png"," D"," r"," r"," n.a.",0.4315685,"a",1
"587","TW",1,98," flanked","RF",4,0.35,2," flanked_rf_freq_4_amplitude_0.35_rep_8_b_H_2.0.png"," H"," b"," b"," n.a.",0.2613662,"a",1
"588","TW",1,98," flanked","BPN",4,1,2," flanked_bex_freq_4_amplitude_1_rep_1_b_H_2.0.png"," H"," b"," b"," n.a.",0.2323983,"a",1
"589","TW",1,99," flanked","RF",4,0.425,2," flanked_rf_freq_4_amplitude_0.425_rep_0_l_N_2.0.png"," N"," l"," l"," n.a.",0.3425179,"a",1
"590","TW",1,99," flanked","BPN",4,3,2," flanked_bex_freq_4_amplitude_3_rep_1_t_N_2.0.png"," N"," t"," l"," n.a.",0.4935068,"a",0
"591","TW",1,99," flanked","RF",4,0.05,2," flanked_rf_freq_4_amplitude_0.05_rep_6_r_N_2.0.png"," N"," r"," b"," n.a.",0.3637086,"a",0
"592","TW",1,99," flanked","BPN",4,6,2," flanked_bex_freq_4_amplitude_6_rep_2_r_H_2.0.png"," H"," r"," r"," n.a.",0.5462034,"a",1
"593","TW",1,99," flanked","RF",4,0.35,2," flanked_rf_freq_4_amplitude_0.35_rep_5_t_K_2.0.png"," K"," t"," t"," n.a.",0.3921911,"a",1
"594","TW",1,99," flanked","BPN",4,1,2," flanked_bex_freq_4_amplitude_1_rep_8_b_K_2.0.png"," K"," b"," l"," n.a.",0.6140871,"a",0
"595","TW",1,100," flanked","RF",4,0.2,2," flanked_rf_freq_4_amplitude_0.2_rep_9_b_H_2.0.png"," H"," b"," b"," n.a.",0.2709626,"a",1
"596","TW",1,100," flanked","BPN",4,6,2," flanked_bex_freq_4_amplitude_6_rep_1_t_H_2.0.png"," H"," t"," t"," n.a.",0.3832762,"a",1
"597","TW",1,100," flanked","RF",4,0.425,2," flanked_rf_freq_4_amplitude_0.425_rep_0_l_H_2.0.png"," H"," l"," t"," n.a.",0.4156703,"a",0
"598","TW",1,100," flanked","BPN",4,7,2," flanked_bex_freq_4_amplitude_7_rep_7_t_K_2.0.png"," K"," t"," l"," n.a.",0.3817908,"a",0
"599","TW",1,100," flanked","RF",4,0.05,2," flanked_rf_freq_4_amplitude_0.05_rep_7_l_D_2.0.png"," D"," l"," b"," n.a.",0.5073133,"a",0
"600","TW",1,100," flanked","BPN",4,6,2," flanked_bex_freq_4_amplitude_6_rep_1_l_D_2.0.png"," D"," l"," l"," n.a.",0.4904585,"a",1
"601","TW",1,101," flanked","RF",4,0.275,2," flanked_rf_freq_4_amplitude_0.275_rep_3_t_H_2.0.png"," H"," t"," l"," n.a.",0.5983104,"a",0
"602","TW",1,101," flanked","BPN",4,6,2," flanked_bex_freq_4_amplitude_6_rep_0_l_D_2.0.png"," D"," l"," l"," n.a.",0.3691755,"a",1
"603","TW",1,101," flanked","RF",4,0.05,2," flanked_rf_freq_4_amplitude_0.05_rep_4_b_K_2.0.png"," K"," b"," b"," n.a.",0.3625743,"a",1
"604","TW",1,101," flanked","BPN",4,7,2," flanked_bex_freq_4_amplitude_7_rep_4_l_H_2.0.png"," H"," l"," l"," n.a.",0.4317792,"a",1
"605","TW",1,101," flanked","RF",4,0.05,2," flanked_rf_freq_4_amplitude_0.05_rep_3_b_N_2.0.png"," N"," b"," l"," n.a.",0.6866682,"a",0
"606","TW",1,101," flanked","BPN",4,5,2," flanked_bex_freq_4_amplitude_5_rep_5_r_N_2.0.png"," N"," r"," l"," n.a.",0.6772548,"a",0
"607","TW",1,102," flanked","RF",4,0.05,2," flanked_rf_freq_4_amplitude_0.05_rep_3_r_K_2.0.png"," K"," r"," l"," n.a.",0.7531575,"a",0
"608","TW",1,102," flanked","BPN",4,7,2," flanked_bex_freq_4_amplitude_7_rep_9_r_D_2.0.png"," D"," r"," r"," n.a.",0.2656399,"a",1
"609","TW",1,102," flanked","RF",4,0.05,2," flanked_rf_freq_4_amplitude_0.05_rep_7_b_K_2.0.png"," K"," b"," l"," n.a.",0.2848964,"a",0
"610","TW",1,102," flanked","BPN",4,3,2," flanked_bex_freq_4_amplitude_3_rep_6_r_K_2.0.png"," K"," r"," t"," n.a.",0.5068917,"a",0
"611","TW",1,102," flanked","RF",4,0.35,2," flanked_rf_freq_4_amplitude_0.35_rep_1_l_H_2.0.png"," H"," l"," l"," n.a.",0.3859038,"a",1
"612","TW",1,102," flanked","BPN",4,1,2," flanked_bex_freq_4_amplitude_1_rep_6_l_H_2.0.png"," H"," l"," b"," n.a.",0.4199157,"a",0
"613","TW",1,103," flanked","RF",4,0.2,2," flanked_rf_freq_4_amplitude_0.2_rep_0_t_K_2.0.png"," K"," t"," t"," n.a.",0.596183,"a",1
"614","TW",1,103," flanked","BPN",4,2,2," flanked_bex_freq_4_amplitude_2_rep_2_t_K_2.0.png"," K"," t"," t"," n.a.",0.7942259,"a",1
"615","TW",1,103," flanked","RF",4,0.35,2," flanked_rf_freq_4_amplitude_0.35_rep_2_t_D_2.0.png"," D"," t"," t"," n.a.",0.4483157,"a",1
"616","TW",1,103," flanked","BPN",4,3,2," flanked_bex_freq_4_amplitude_3_rep_2_t_H_2.0.png"," H"," t"," l"," n.a.",0.517532,"a",0
"617","TW",1,103," flanked","RF",4,0.05,2," flanked_rf_freq_4_amplitude_0.05_rep_3_b_N_2.0.png"," N"," b"," b"," n.a.",0.4819582,"a",1
"618","TW",1,103," flanked","BPN",4,3,2," flanked_bex_freq_4_amplitude_3_rep_1_l_K_2.0.png"," K"," l"," b"," n.a.",0.6378853,"a",0
"619","TW",1,104," flanked","RF",4,0.05,2," flanked_rf_freq_4_amplitude_0.05_rep_8_l_N_2.0.png"," N"," l"," b"," n.a.",0.3948116,"a",0
"620","TW",1,104," flanked","BPN",4,6,2," flanked_bex_freq_4_amplitude_6_rep_3_b_N_2.0.png"," N"," b"," b"," n.a.",0.331485,"a",1
"621","TW",1,104," flanked","RF",4,0.2,2," flanked_rf_freq_4_amplitude_0.2_rep_8_l_K_2.0.png"," K"," l"," t"," n.a.",0.5873208,"a",0
"622","TW",1,104," flanked","BPN",4,7,2," flanked_bex_freq_4_amplitude_7_rep_0_b_N_2.0.png"," N"," b"," b"," n.a.",0.2827736,"a",1
"623","TW",1,104," flanked","RF",4,0.425,2," flanked_rf_freq_4_amplitude_0.425_rep_8_r_D_2.0.png"," D"," r"," r"," n.a.",0.3741273,"a",1
"624","TW",1,104," flanked","BPN",4,7,2," flanked_bex_freq_4_amplitude_7_rep_3_b_N_2.0.png"," N"," b"," l"," n.a.",0.4237402,"a",0
"625","TW",1,105," flanked","RF",4,0.05,2," flanked_rf_freq_4_amplitude_0.05_rep_6_b_N_2.0.png"," N"," b"," l"," n.a.",0.4979807,"a",0
"626","TW",1,105," flanked","BPN",4,7,2," flanked_bex_freq_4_amplitude_7_rep_4_b_H_2.0.png"," H"," b"," b"," n.a.",0.2975384,"a",1
"627","TW",1,105," flanked","RF",4,0.2,2," flanked_rf_freq_4_amplitude_0.2_rep_9_b_N_2.0.png"," N"," b"," b"," n.a.",0.4087672,"a",1
"628","TW",1,105," flanked","BPN",4,2,2," flanked_bex_freq_4_amplitude_2_rep_2_l_H_2.0.png"," H"," l"," t"," n.a.",0.4892069,"a",0
"629","TW",1,105," flanked","RF",4,0.2,2," flanked_rf_freq_4_amplitude_0.2_rep_1_r_K_2.0.png"," K"," r"," b"," n.a.",0.3941025,"a",0
"630","TW",1,105," flanked","BPN",4,6,2," flanked_bex_freq_4_amplitude_6_rep_7_b_D_2.0.png"," D"," b"," t"," n.a.",0.3418919,"a",0
"631","TW",1,106," flanked","RF",4,0.125,2," flanked_rf_freq_4_amplitude_0.125_rep_5_r_D_2.0.png"," D"," r"," b"," n.a.",0.3679047,"a",0
"632","TW",1,106," flanked","BPN",4,1,2," flanked_bex_freq_4_amplitude_1_rep_5_r_K_2.0.png"," K"," r"," t"," n.a.",0.4506449,"a",0
"633","TW",1,106," flanked","RF",4,0.35,2," flanked_rf_freq_4_amplitude_0.35_rep_6_r_N_2.0.png"," N"," r"," r"," n.a.",0.2518866,"a",1
"634","TW",1,106," flanked","BPN",4,3,2," flanked_bex_freq_4_amplitude_3_rep_2_t_H_2.0.png"," H"," t"," b"," n.a.",0.3182158,"a",0
"635","TW",1,106," flanked","RF",4,0.2,2," flanked_rf_freq_4_amplitude_0.2_rep_9_l_N_2.0.png"," N"," l"," l"," n.a.",0.5650752,"a",1
"636","TW",1,106," flanked","BPN",4,3,2," flanked_bex_freq_4_amplitude_3_rep_8_t_H_2.0.png"," H"," t"," b"," n.a.",0.2964575,"a",0
"637","TW",1,107," flanked","RF",4,0.5,2," flanked_rf_freq_4_amplitude_0.5_rep_4_r_H_2.0.png"," H"," r"," r"," n.a.",0.2672649,"a",1
"638","TW",1,107," flanked","BPN",4,7,2," flanked_bex_freq_4_amplitude_7_rep_1_r_D_2.0.png"," D"," r"," r"," n.a.",0.2667596,"a",1
"639","TW",1,107," flanked","RF",4,0.35,2," flanked_rf_freq_4_amplitude_0.35_rep_6_r_N_2.0.png"," N"," r"," r"," n.a.",0.343336,"a",1
"640","TW",1,107," flanked","BPN",4,1,2," flanked_bex_freq_4_amplitude_1_rep_7_r_D_2.0.png"," D"," r"," l"," n.a.",0.4158058,"a",0
"641","TW",1,107," flanked","RF",4,0.275,2," flanked_rf_freq_4_amplitude_0.275_rep_5_r_H_2.0.png"," H"," r"," l"," n.a.",0.4146467,"a",0
"642","TW",1,107," flanked","BPN",4,7,2," flanked_bex_freq_4_amplitude_7_rep_4_b_D_2.0.png"," D"," b"," t"," n.a.",0.3634288,"a",0
"643","TW",1,108," flanked","RF",4,0.35,2," flanked_rf_freq_4_amplitude_0.35_rep_5_t_D_2.0.png"," D"," t"," b"," n.a.",0.5457888,"a",0
"644","TW",1,108," flanked","BPN",4,7,2," flanked_bex_freq_4_amplitude_7_rep_6_l_D_2.0.png"," D"," l"," l"," n.a.",0.2368772,"a",1
"645","TW",1,108," flanked","RF",4,0.35,2," flanked_rf_freq_4_amplitude_0.35_rep_1_t_K_2.0.png"," K"," t"," r"," n.a.",0.4567119,"a",0
"646","TW",1,108," flanked","BPN",4,5,2," flanked_bex_freq_4_amplitude_5_rep_0_b_K_2.0.png"," K"," b"," b"," n.a.",0.2664759,"a",1
"647","TW",1,108," flanked","RF",4,0.35,2," flanked_rf_freq_4_amplitude_0.35_rep_8_b_H_2.0.png"," H"," b"," b"," n.a.",0.3059316,"a",1
"648","TW",1,108," flanked","BPN",4,7,2," flanked_bex_freq_4_amplitude_7_rep_4_b_D_2.0.png"," D"," b"," b"," n.a.",0.2596248,"a",1
"649","TW",1,109," flanked","RF",4,0.35,2," flanked_rf_freq_4_amplitude_0.35_rep_7_b_N_2.0.png"," N"," b"," b"," n.a.",0.357189,"a",1
"650","TW",1,109," flanked","BPN",4,4,2," flanked_bex_freq_4_amplitude_4_rep_4_b_D_2.0.png"," D"," b"," b"," n.a.",0.3250253,"a",1
"651","TW",1,109," flanked","RF",4,0.425,2," flanked_rf_freq_4_amplitude_0.425_rep_0_l_H_2.0.png"," H"," l"," l"," n.a.",0.4964556,"a",1
"652","TW",1,109," flanked","BPN",4,5,2," flanked_bex_freq_4_amplitude_5_rep_8_l_D_2.0.png"," D"," l"," l"," n.a.",0.4586059,"a",1
"653","TW",1,109," flanked","RF",4,0.125,2," flanked_rf_freq_4_amplitude_0.125_rep_7_l_N_2.0.png"," N"," l"," l"," n.a.",0.5248668,"a",1
"654","TW",1,109," flanked","BPN",4,2,2," flanked_bex_freq_4_amplitude_2_rep_7_t_D_2.0.png"," D"," t"," l"," n.a.",0.5193553,"a",0
"655","TW",1,110," flanked","RF",4,0.35,2," flanked_rf_freq_4_amplitude_0.35_rep_1_b_N_2.0.png"," N"," b"," b"," n.a.",0.3121517,"a",1
"656","TW",1,110," flanked","BPN",4,6,2," flanked_bex_freq_4_amplitude_6_rep_8_l_D_2.0.png"," D"," l"," l"," n.a.",0.2803956,"a",1
"657","TW",1,110," flanked","RF",4,0.05,2," flanked_rf_freq_4_amplitude_0.05_rep_3_t_K_2.0.png"," K"," t"," t"," n.a.",0.5374066,"a",1
"658","TW",1,110," flanked","BPN",4,6,2," flanked_bex_freq_4_amplitude_6_rep_4_l_H_2.0.png"," H"," l"," t"," n.a.",0.4447342,"a",0
"659","TW",1,110," flanked","RF",4,0.2,2," flanked_rf_freq_4_amplitude_0.2_rep_4_l_D_2.0.png"," D"," l"," l"," n.a.",0.3909761,"a",1
"660","TW",1,110," flanked","BPN",4,4,2," flanked_bex_freq_4_amplitude_4_rep_6_l_K_2.0.png"," K"," l"," l"," n.a.",0.5046143,"a",1
"661","TW",1,111," flanked","RF",4,0.275,2," flanked_rf_freq_4_amplitude_0.275_rep_8_r_N_2.0.png"," N"," r"," r"," n.a.",0.381906,"a",1
"662","TW",1,111," flanked","BPN",4,2,2," flanked_bex_freq_4_amplitude_2_rep_5_b_D_2.0.png"," D"," b"," l"," n.a.",0.4279581,"a",0
"663","TW",1,111," flanked","RF",4,0.05,2," flanked_rf_freq_4_amplitude_0.05_rep_1_l_H_2.0.png"," H"," l"," b"," n.a.",0.4052322,"a",0
"664","TW",1,111," flanked","BPN",4,7,2," flanked_bex_freq_4_amplitude_7_rep_7_t_K_2.0.png"," K"," t"," t"," n.a.",0.554064,"a",1
"665","TW",1,111," flanked","RF",4,0.5,2," flanked_rf_freq_4_amplitude_0.5_rep_8_r_D_2.0.png"," D"," r"," r"," n.a.",0.3809177,"a",1
"666","TW",1,111," flanked","BPN",4,5,2," flanked_bex_freq_4_amplitude_5_rep_7_r_N_2.0.png"," N"," r"," l"," n.a.",0.5757867,"a",0
"667","TW",1,112," flanked","RF",4,0.125,2," flanked_rf_freq_4_amplitude_0.125_rep_1_r_D_2.0.png"," D"," r"," b"," n.a.",0.3776384,"a",0
"668","TW",1,112," flanked","BPN",4,3,2," flanked_bex_freq_4_amplitude_3_rep_9_r_H_2.0.png"," H"," r"," r"," n.a.",0.2838646,"a",1
"669","TW",1,112," flanked","RF",4,0.35,2," flanked_rf_freq_4_amplitude_0.35_rep_4_l_K_2.0.png"," K"," l"," l"," n.a.",0.4019546,"a",1
"670","TW",1,112," flanked","BPN",4,4,2," flanked_bex_freq_4_amplitude_4_rep_6_t_H_2.0.png"," H"," t"," b"," n.a.",0.3177163,"a",0
"671","TW",1,112," flanked","RF",4,0.425,2," flanked_rf_freq_4_amplitude_0.425_rep_0_b_H_2.0.png"," H"," b"," b"," n.a.",0.3549448,"a",1
"672","TW",1,112," flanked","BPN",4,7,2," flanked_bex_freq_4_amplitude_7_rep_6_t_K_2.0.png"," K"," t"," t"," n.a.",0.4489406,"a",1
"673","TW",1,113," flanked","RF",4,0.05,2," flanked_rf_freq_4_amplitude_0.05_rep_0_l_D_2.0.png"," D"," l"," b"," n.a.",0.4067343,"a",0
"674","TW",1,113," flanked","BPN",4,6,2," flanked_bex_freq_4_amplitude_6_rep_1_t_H_2.0.png"," H"," t"," t"," n.a.",0.3760846,"a",1
"675","TW",1,113," flanked","RF",4,0.2,2," flanked_rf_freq_4_amplitude_0.2_rep_4_l_H_2.0.png"," H"," l"," t"," n.a.",0.5084604,"a",0
"676","TW",1,113," flanked","BPN",4,5,2," flanked_bex_freq_4_amplitude_5_rep_3_r_D_2.0.png"," D"," r"," b"," n.a.",0.5981264,"a",0
"677","TW",1,113," flanked","RF",4,0.425,2," flanked_rf_freq_4_amplitude_0.425_rep_1_r_N_2.0.png"," N"," r"," t"," n.a.",0.5037166,"a",0
"678","TW",1,113," flanked","BPN",4,5,2," flanked_bex_freq_4_amplitude_5_rep_8_b_H_2.0.png"," H"," b"," b"," n.a.",0.3618694,"a",1
"679","TW",1,114," flanked","RF",4,0.425,2," flanked_rf_freq_4_amplitude_0.425_rep_5_b_D_2.0.png"," D"," b"," b"," n.a.",0.3092091,"a",1
"680","TW",1,114," flanked","BPN",4,5,2," flanked_bex_freq_4_amplitude_5_rep_1_t_N_2.0.png"," N"," t"," t"," n.a.",0.3779804,"a",1
"681","TW",1,114," flanked","RF",4,0.5,2," flanked_rf_freq_4_amplitude_0.5_rep_4_l_H_2.0.png"," H"," l"," l"," n.a.",0.4157534,"a",1
"682","TW",1,114," flanked","BPN",4,2,2," flanked_bex_freq_4_amplitude_2_rep_7_t_N_2.0.png"," N"," t"," r"," n.a.",0.4328788,"a",0
"683","TW",1,114," flanked","RF",4,0.5,2," flanked_rf_freq_4_amplitude_0.5_rep_0_b_D_2.0.png"," D"," b"," r"," n.a.",0.3726039,"a",0
"684","TW",1,114," flanked","BPN",4,2,2," flanked_bex_freq_4_amplitude_2_rep_4_r_K_2.0.png"," K"," r"," t"," n.a.",0.6761793,"a",0
"685","TW",1,115," flanked","RF",4,0.275,2," flanked_rf_freq_4_amplitude_0.275_rep_1_l_N_2.0.png"," N"," l"," b"," n.a.",0.3247047,"a",0
"686","TW",1,115," flanked","BPN",4,6,2," flanked_bex_freq_4_amplitude_6_rep_0_l_D_2.0.png"," D"," l"," l"," n.a.",0.3074637,"a",1
"687","TW",1,115," flanked","RF",4,0.125,2," flanked_rf_freq_4_amplitude_0.125_rep_8_r_H_2.0.png"," H"," r"," t"," n.a.",0.6271392,"a",0
"688","TW",1,115," flanked","BPN",4,7,2," flanked_bex_freq_4_amplitude_7_rep_9_t_K_2.0.png"," K"," t"," t"," n.a.",0.4785243,"a",1
"689","TW",1,115," flanked","RF",4,0.5,2," flanked_rf_freq_4_amplitude_0.5_rep_7_r_N_2.0.png"," N"," r"," l"," n.a.",0.5202768,"a",0
"690","TW",1,115," flanked","BPN",4,1,2," flanked_bex_freq_4_amplitude_1_rep_4_t_H_2.0.png"," H"," t"," b"," n.a.",0.36354,"a",0
"691","TW",1,116," flanked","RF",4,0.5,2," flanked_rf_freq_4_amplitude_0.5_rep_9_b_H_2.0.png"," H"," b"," b"," n.a.",0.2830199,"a",1
"692","TW",1,116," flanked","BPN",4,7,2," flanked_bex_freq_4_amplitude_7_rep_8_b_H_2.0.png"," H"," b"," b"," n.a.",0.2331246,"a",1
"693","TW",1,116," flanked","RF",4,0.275,2," flanked_rf_freq_4_amplitude_0.275_rep_0_r_N_2.0.png"," N"," r"," r"," n.a.",0.4053189,"a",1
"694","TW",1,116," flanked","BPN",4,1,2," flanked_bex_freq_4_amplitude_1_rep_2_r_H_2.0.png"," H"," r"," b"," n.a.",0.3991039,"a",0
"695","TW",1,116," flanked","RF",4,0.05,2," flanked_rf_freq_4_amplitude_0.05_rep_9_l_N_2.0.png"," N"," l"," b"," n.a.",0.3272702,"a",0
"696","TW",1,116," flanked","BPN",4,7,2," flanked_bex_freq_4_amplitude_7_rep_1_r_H_2.0.png"," H"," r"," b"," n.a.",0.6647109,"a",0
"697","TW",1,117," flanked","RF",4,0.425,2," flanked_rf_freq_4_amplitude_0.425_rep_6_r_K_2.0.png"," K"," r"," r"," n.a.",0.3092235,"a",1
"698","TW",1,117," flanked","BPN",4,1,2," flanked_bex_freq_4_amplitude_1_rep_6_l_D_2.0.png"," D"," l"," b"," n.a.",0.4152927,"a",0
"699","TW",1,117," flanked","RF",4,0.5,2," flanked_rf_freq_4_amplitude_0.5_rep_6_t_N_2.0.png"," N"," t"," l"," n.a.",0.6308858,"a",0
"700","TW",1,117," flanked","BPN",4,1,2," flanked_bex_freq_4_amplitude_1_rep_9_b_N_2.0.png"," N"," b"," t"," n.a.",0.4227991,"a",0
"701","TW",1,117," flanked","RF",4,0.425,2," flanked_rf_freq_4_amplitude_0.425_rep_7_r_H_2.0.png"," H"," r"," r"," n.a.",0.3856375,"a",1
"702","TW",1,117," flanked","BPN",4,4,2," flanked_bex_freq_4_amplitude_4_rep_2_l_H_2.0.png"," H"," l"," l"," n.a.",0.3212435,"a",1
"703","TW",1,118," flanked","RF",4,0.125,2," flanked_rf_freq_4_amplitude_0.125_rep_1_r_D_2.0.png"," D"," r"," b"," n.a.",0.4641568,"a",0
"704","TW",1,118," flanked","BPN",4,7,2," flanked_bex_freq_4_amplitude_7_rep_4_b_H_2.0.png"," H"," b"," b"," n.a.",0.4428269,"a",1
"705","TW",1,118," flanked","RF",4,0.35,2," flanked_rf_freq_4_amplitude_0.35_rep_4_l_K_2.0.png"," K"," l"," b"," n.a.",0.3990211,"a",0
"706","TW",1,118," flanked","BPN",4,2,2," flanked_bex_freq_4_amplitude_2_rep_6_l_D_2.0.png"," D"," l"," b"," n.a.",0.3801799,"a",0
"707","TW",1,118," flanked","RF",4,0.125,2," flanked_rf_freq_4_amplitude_0.125_rep_2_t_D_2.0.png"," D"," t"," l"," n.a.",0.4610043,"a",0
"708","TW",1,118," flanked","BPN",4,7,2," flanked_bex_freq_4_amplitude_7_rep_5_t_D_2.0.png"," D"," t"," t"," n.a.",0.4480638,"a",1
"709","TW",1,119," flanked","RF",4,0.2,2," flanked_rf_freq_4_amplitude_0.2_rep_6_b_H_2.0.png"," H"," b"," b"," n.a.",0.3171618,"a",1
"710","TW",1,119," flanked","BPN",4,1,2," flanked_bex_freq_4_amplitude_1_rep_3_r_N_2.0.png"," N"," r"," b"," n.a.",0.4266346,"a",0
"711","TW",1,119," flanked","RF",4,0.05,2," flanked_rf_freq_4_amplitude_0.05_rep_5_l_K_2.0.png"," K"," l"," l"," n.a.",0.5710254,"a",1
"712","TW",1,119," flanked","BPN",4,3,2," flanked_bex_freq_4_amplitude_3_rep_8_r_H_2.0.png"," H"," r"," r"," n.a.",0.4054901,"a",1
"713","TW",1,119," flanked","RF",4,0.125,2," flanked_rf_freq_4_amplitude_0.125_rep_7_l_N_2.0.png"," N"," l"," b"," n.a.",0.3641666,"a",0
"714","TW",1,119," flanked","BPN",4,6,2," flanked_bex_freq_4_amplitude_6_rep_4_r_N_2.0.png"," N"," r"," t"," n.a.",0.6129765,"a",0
"715","TW",1,120," flanked","RF",4,0.425,2," flanked_rf_freq_4_amplitude_0.425_rep_7_b_N_2.0.png"," N"," b"," b"," n.a.",0.3122258,"a",1
"716","TW",1,120," flanked","BPN",4,2,2," flanked_bex_freq_4_amplitude_2_rep_1_l_D_2.0.png"," D"," l"," l"," n.a.",0.4036369,"a",1
"717","TW",1,120," flanked","RF",4,0.05,2," flanked_rf_freq_4_amplitude_0.05_rep_8_l_D_2.0.png"," D"," l"," t"," n.a.",0.5356563,"a",0
"718","TW",1,120," flanked","BPN",4,4,2," flanked_bex_freq_4_amplitude_4_rep_1_t_K_2.0.png"," K"," t"," t"," n.a.",0.4820744,"a",1
"719","TW",1,120," flanked","RF",4,0.05,2," flanked_rf_freq_4_amplitude_0.05_rep_1_l_H_2.0.png"," H"," l"," t"," n.a.",0.3334431,"a",0
"720","TW",1,120," flanked","BPN",4,3,2," flanked_bex_freq_4_amplitude_3_rep_3_l_N_2.0.png"," N"," l"," b"," n.a.",0.2762622,"a",0
"721","TW",1,121," flanked","RF",4,0.35,2," flanked_rf_freq_4_amplitude_0.35_rep_0_r_N_2.0.png"," N"," r"," r"," n.a.",0.3705972,"a",1
"722","TW",1,121," flanked","BPN",4,4,2," flanked_bex_freq_4_amplitude_4_rep_7_b_D_2.0.png"," D"," b"," b"," n.a.",0.2267341,"a",1
"723","TW",1,121," flanked","RF",4,0.275,2," flanked_rf_freq_4_amplitude_0.275_rep_5_t_H_2.0.png"," H"," t"," b"," n.a.",0.4845481,"a",0
"724","TW",1,121," flanked","BPN",4,4,2," flanked_bex_freq_4_amplitude_4_rep_6_t_H_2.0.png"," H"," t"," b"," n.a.",0.3960904,"a",0
"725","TW",1,121," flanked","RF",4,0.05,2," flanked_rf_freq_4_amplitude_0.05_rep_0_l_N_2.0.png"," N"," l"," r"," n.a.",0.4906706,"a",0
"726","TW",1,121," flanked","BPN",4,4,2," flanked_bex_freq_4_amplitude_4_rep_1_t_N_2.0.png"," N"," t"," l"," n.a.",0.3487979,"a",0
"727","TW",1,122," flanked","RF",4,0.125,2," flanked_rf_freq_4_amplitude_0.125_rep_0_r_N_2.0.png"," N"," r"," b"," n.a.",0.3709394,"a",0
"728","TW",1,122," flanked","BPN",4,6,2," flanked_bex_freq_4_amplitude_6_rep_2_r_N_2.0.png"," N"," r"," r"," n.a.",0.2453,"a",1
"729","TW",1,122," flanked","RF",4,0.425,2," flanked_rf_freq_4_amplitude_0.425_rep_4_l_D_2.0.png"," D"," l"," r"," n.a.",0.3095056,"a",0
"730","TW",1,122," flanked","BPN",4,3,2," flanked_bex_freq_4_amplitude_3_rep_0_b_N_2.0.png"," N"," b"," t"," n.a.",0.3959562,"a",0
"731","TW",1,122," flanked","RF",4,0.05,2," flanked_rf_freq_4_amplitude_0.05_rep_7_l_D_2.0.png"," D"," l"," b"," n.a.",0.5608973,"a",0
"732","TW",1,122," flanked","BPN",4,5,2," flanked_bex_freq_4_amplitude_5_rep_6_l_N_2.0.png"," N"," l"," l"," n.a.",0.5693535,"a",1
"733","TW",1,123," flanked","RF",4,0.2,2," flanked_rf_freq_4_amplitude_0.2_rep_6_b_H_2.0.png"," H"," b"," b"," n.a.",0.2825872,"a",1
"734","TW",1,123," flanked","BPN",4,1,2," flanked_bex_freq_4_amplitude_1_rep_4_l_N_2.0.png"," N"," l"," b"," n.a.",0.3024007,"a",0
"735","TW",1,123," flanked","RF",4,0.2,2," flanked_rf_freq_4_amplitude_0.2_rep_0_l_N_2.0.png"," N"," l"," l"," n.a.",0.3450746,"a",1
"736","TW",1,123," flanked","BPN",4,2,2," flanked_bex_freq_4_amplitude_2_rep_5_t_N_2.0.png"," N"," t"," t"," n.a.",0.4404832,"a",1
"737","TW",1,123," flanked","RF",4,0.275,2," flanked_rf_freq_4_amplitude_0.275_rep_2_l_K_2.0.png"," K"," l"," l"," n.a.",0.4214499,"a",1
"738","TW",1,123," flanked","BPN",4,6,2," flanked_bex_freq_4_amplitude_6_rep_0_t_K_2.0.png"," K"," t"," t"," n.a.",0.4973534,"a",1
"739","TW",1,124," flanked","RF",4,0.5,2," flanked_rf_freq_4_amplitude_0.5_rep_0_t_D_2.0.png"," D"," t"," t"," n.a.",0.4134167,"a",1
"740","TW",1,124," flanked","BPN",4,7,2," flanked_bex_freq_4_amplitude_7_rep_9_r_D_2.0.png"," D"," r"," r"," n.a.",0.2612849,"a",1
"741","TW",1,124," flanked","RF",4,0.125,2," flanked_rf_freq_4_amplitude_0.125_rep_5_l_K_2.0.png"," K"," l"," b"," n.a.",0.4134608,"a",0
"742","TW",1,124," flanked","BPN",4,2,2," flanked_bex_freq_4_amplitude_2_rep_9_l_D_2.0.png"," D"," l"," t"," n.a.",0.6256935,"a",0
"743","TW",1,124," flanked","RF",4,0.2,2," flanked_rf_freq_4_amplitude_0.2_rep_6_b_D_2.0.png"," D"," b"," t"," n.a.",0.5691351,"a",0
"744","TW",1,124," flanked","BPN",4,4,2," flanked_bex_freq_4_amplitude_4_rep_7_t_K_2.0.png"," K"," t"," t"," n.a.",0.3864437,"a",1
"745","TW",1,125," flanked","RF",4,0.425,2," flanked_rf_freq_4_amplitude_0.425_rep_6_r_K_2.0.png"," K"," r"," r"," n.a.",0.303247,"a",1
"746","TW",1,125," flanked","BPN",4,6,2," flanked_bex_freq_4_amplitude_6_rep_7_t_H_2.0.png"," H"," t"," t"," n.a.",0.3657968,"a",1
"747","TW",1,125," flanked","RF",4,0.5,2," flanked_rf_freq_4_amplitude_0.5_rep_8_t_D_2.0.png"," D"," t"," r"," n.a.",0.336294,"a",0
"748","TW",1,125," flanked","BPN",4,3,2," flanked_bex_freq_4_amplitude_3_rep_6_r_K_2.0.png"," K"," r"," b"," n.a.",0.3885304,"a",0
"749","TW",1,125," flanked","RF",4,0.425,2," flanked_rf_freq_4_amplitude_0.425_rep_7_r_H_2.0.png"," H"," r"," r"," n.a.",0.4247523,"a",1
"750","TW",1,125," flanked","BPN",4,3,2," flanked_bex_freq_4_amplitude_3_rep_5_l_D_2.0.png"," D"," l"," b"," n.a.",0.3217936,"a",0
"751","TW",1,126," flanked","RF",4,0.275,2," flanked_rf_freq_4_amplitude_0.275_rep_4_l_D_2.0.png"," D"," l"," b"," n.a.",0.2800119,"a",0
"752","TW",1,126," flanked","BPN",4,7,2," flanked_bex_freq_4_amplitude_7_rep_5_r_H_2.0.png"," H"," r"," r"," n.a.",0.2875311,"a",1
"753","TW",1,126," flanked","RF",4,0.5,2," flanked_rf_freq_4_amplitude_0.5_rep_6_t_N_2.0.png"," N"," t"," l"," n.a.",0.4568089,"a",0
"754","TW",1,126," flanked","BPN",4,6,2," flanked_bex_freq_4_amplitude_6_rep_1_b_H_2.0.png"," H"," b"," r"," n.a.",0.4726468,"a",0
"755","TW",1,126," flanked","RF",4,0.275,2," flanked_rf_freq_4_amplitude_0.275_rep_9_t_D_2.0.png"," D"," t"," l"," n.a.",0.6338466,"a",0
